timestamp,ax,ay,az,gx,gy,gz
1000.000000,0.000000,0.001000,0.001000,0.001000,0.001000,0.001000
1000.019231,0.001156,0.001000,0.001000,0.001000,0.001000,0.001000
1000.038462,0.002311,0.001000,0.001000,0.001000,0.001000,0.001000
1000.057692,0.003465,0.001000,0.001000,0.001000,0.001000,0.001000
1000.076923,0.004617,0.001000,0.001000,0.001000,0.001000,0.001000
1000.096154,0.005766,0.001000,0.001000,0.001000,0.001000,0.001000
1000.115385,0.006913,0.001000,0.001000,0.001000,0.001000,0.001000
1000.134615,0.008056,0.001000,0.001000,0.001000,0.001000,0.001000
1000.153846,0.009194,0.001000,0.001000,0.001000,0.001000,0.001000
1000.173077,0.010328,0.001000,0.001000,0.001000,0.001000,0.001000
1000.192308,0.011456,0.001000,0.001000,0.001000,0.001000,0.001000
1000.211538,0.012578,0.001000,0.001000,0.001000,0.001000,0.001000
1000.230769,0.013693,0.001000,0.001000,0.001000,0.001000,0.001000
1000.250000,0.014801,0.001000,0.001000,0.001000,0.001000,0.001000
1000.269231,0.015901,0.001000,0.001000,0.001000,0.001000,0.001000
1000.288462,0.016992,0.001000,0.001000,0.001000,0.001000,0.001000
1000.307692,0.018075,0.001000,0.001000,0.001000,0.001000,0.001000
1000.326923,0.019148,0.001000,0.001000,0.001000,0.001000,0.001000
1000.346154,0.020210,0.001000,0.001000,0.001000,0.001000,0.001000
1000.365385,0.021262,0.001000,0.001000,0.001000,0.001000,0.001000
1000.384615,0.022302,0.001000,0.001000,0.001000,0.001000,0.001000
1000.403846,0.023331,0.001000,0.001000,0.001000,0.001000,0.001000
1000.423077,0.024347,0.001000,0.001000,0.001000,0.001000,0.001000
1000.442308,0.025350,0.001000,0.001000,0.001000,0.001000,0.001000
1000.461538,0.026339,0.001000,0.001000,0.001000,0.001000,0.001000
1000.480769,0.027315,0.001000,0.001000,0.001000,0.001000,0.001000
1000.500000,0.028275,0.001000,0.001000,0.001000,0.001000,0.001000
1000.519231,0.029221,0.001000,0.001000,0.001000,0.001000,0.001000
1000.538462,0.030151,0.001000,0.001000,0.001000,0.001000,0.001000
1000.557692,0.031065,0.001000,0.001000,0.001000,0.001000,0.001000
1000.576923,0.031962,0.001000,0.001000,0.001000,0.001000,0.001000
1000.596154,0.032842,0.001000,0.001000,0.001000,0.001000,0.001000
1000.615385,0.033705,0.001000,0.001000,0.001000,0.001000,0.001000
1000.634615,0.034550,0.001000,0.001000,0.001000,0.001000,0.001000
1000.653846,0.035376,0.001000,0.001000,0.001000,0.001000,0.001000
1000.673077,0.036183,0.001000,0.001000,0.001000,0.001000,0.001000
1000.692308,0.036971,0.001000,0.001000,0.001000,0.001000,0.001000
1000.711538,0.037740,0.001000,0.001000,0.001000,0.001000,0.001000
1000.730769,0.038488,0.001000,0.001000,0.001000,0.001000,0.001000
1000.750000,0.039215,0.001000,0.001000,0.001000,0.001000,0.001000
1000.769231,0.039922,0.001000,0.001000,0.001000,0.001000,0.001000
1000.788462,0.040607,0.001000,0.001000,0.001000,0.001000,0.001000
1000.807692,0.041270,0.001000,0.001000,0.001000,0.001000,0.001000
1000.826923,0.041912,0.001000,0.001000,0.001000,0.001000,0.001000
1000.846154,0.042531,0.001000,0.001000,0.001000,0.001000,0.001000
1000.865385,0.043127,0.001000,0.001000,0.001000,0.001000,0.001000
1000.884615,0.043700,0.001000,0.001000,0.001000,0.001000,0.001000
1000.903846,0.044250,0.001000,0.001000,0.001000,0.001000,0.001000
1000.923077,0.044777,0.001000,0.001000,0.001000,0.001000,0.001000
1000.942308,0.045279,0.001000,0.001000,0.001000,0.001000,0.001000
1000.961538,0.045757,0.001000,0.001000,0.001000,0.001000,0.001000
1000.980769,0.046211,0.001000,0.001000,0.001000,0.001000,0.001000
1001.000000,0.046640,0.001000,0.001000,0.001000,0.001000,0.001000
1001.019231,0.047044,0.001000,0.001000,0.001000,0.001000,0.001000
1001.038462,0.047423,0.001000,0.001000,0.001000,0.001000,0.001000
1001.057692,0.047776,0.001000,0.001000,0.001000,0.001000,0.001000
1001.076923,0.048104,0.001000,0.001000,0.001000,0.001000,0.001000
1001.096154,0.048407,0.001000,0.001000,0.001000,0.001000,0.001000
1001.115385,0.048683,0.001000,0.001000,0.001000,0.001000,0.001000
1001.134615,0.048934,0.001000,0.001000,0.001000,0.001000,0.001000
1001.153846,0.049158,0.001000,0.001000,0.001000,0.001000,0.001000
1001.173077,0.049356,0.001000,0.001000,0.001000,0.001000,0.001000
1001.192308,0.049528,0.001000,0.001000,0.001000,0.001000,0.001000
1001.211538,0.049673,0.001000,0.001000,0.001000,0.001000,0.001000
1001.230769,0.049792,0.001000,0.001000,0.001000,0.001000,0.001000
1001.250000,0.049884,0.001000,0.001000,0.001000,0.001000,0.001000
1001.269231,0.049949,0.001000,0.001000,0.001000,0.001000,0.001000
1001.288462,0.049988,0.001000,0.001000,0.001000,0.001000,0.001000
1001.307692,0.050000,0.001000,0.001000,0.001000,0.001000,0.001000
1001.326923,0.049985,0.001000,0.001000,0.001000,0.001000,0.001000
1001.346154,0.049944,0.001000,0.001000,0.001000,0.001000,0.001000
1001.365385,0.049876,0.001000,0.001000,0.001000,0.001000,0.001000
1001.384615,0.049781,0.001000,0.001000,0.001000,0.001000,0.001000
1001.403846,0.049660,0.001000,0.001000,0.001000,0.001000,0.001000
1001.423077,0.049512,0.001000,0.001000,0.001000,0.001000,0.001000
1001.442308,0.049337,0.001000,0.001000,0.001000,0.001000,0.001000
1001.461538,0.049137,0.001000,0.001000,0.001000,0.001000,0.001000
1001.480769,0.048910,0.001000,0.001000,0.001000,0.001000,0.001000
1001.500000,0.048656,0.001000,0.001000,0.001000,0.001000,0.001000
1001.519231,0.048377,0.001000,0.001000,0.001000,0.001000,0.001000
1001.538462,0.048072,0.001000,0.001000,0.001000,0.001000,0.001000
1001.557692,0.047742,0.001000,0.001000,0.001000,0.001000,0.001000
1001.576923,0.047386,0.001000,0.001000,0.001000,0.001000,0.001000
1001.596154,0.047004,0.001000,0.001000,0.001000,0.001000,0.001000
1001.615385,0.046597,0.001000,0.001000,0.001000,0.001000,0.001000
1001.634615,0.046166,0.001000,0.001000,0.001000,0.001000,0.001000
1001.653846,0.045710,0.001000,0.001000,0.001000,0.001000,0.001000
1001.673077,0.045229,0.001000,0.001000,0.001000,0.001000,0.001000
1001.692308,0.044724,0.001000,0.001000,0.001000,0.001000,0.001000
1001.711538,0.044196,0.001000,0.001000,0.001000,0.001000,0.001000
1001.730769,0.043643,0.001000,0.001000,0.001000,0.001000,0.001000
1001.750000,0.043068,0.001000,0.001000,0.001000,0.001000,0.001000
1001.769231,0.042469,0.001000,0.001000,0.001000,0.001000,0.001000
1001.788462,0.041848,0.001000,0.001000,0.001000,0.001000,0.001000
1001.807692,0.041204,0.001000,0.001000,0.001000,0.001000,0.001000
1001.826923,0.040538,0.001000,0.001000,0.001000,0.001000,0.001000
1001.846154,0.039851,0.001000,0.001000,0.001000,0.001000,0.001000
1001.865385,0.039142,0.001000,0.001000,0.001000,0.001000,0.001000
1001.884615,0.038413,0.001000,0.001000,0.001000,0.001000,0.001000
1001.903846,0.037663,0.001000,0.001000,0.001000,0.001000,0.001000
1001.923077,0.036892,0.001000,0.001000,0.001000,0.001000,0.001000
1001.942308,0.036102,0.001000,0.001000,0.001000,0.001000,0.001000
1001.961538,0.035293,0.001000,0.001000,0.001000,0.001000,0.001000
1001.980769,0.034465,0.001000,0.001000,0.001000,0.001000,0.001000
1002.000000,0.033619,0.001000,0.001000,0.001000,0.001000,0.001000
1002.019231,0.032754,0.001000,0.001000,0.001000,0.001000,0.001000
1002.038462,0.031872,0.001000,0.001000,0.001000,0.001000,0.001000
1002.057692,0.030973,0.001000,0.001000,0.001000,0.001000,0.001000
1002.076923,0.030058,0.001000,0.001000,0.001000,0.001000,0.001000
1002.096154,0.029126,0.001000,0.001000,0.001000,0.001000,0.001000
1002.115385,0.028179,0.001000,0.001000,0.001000,0.001000,0.001000
1002.134615,0.027216,0.001000,0.001000,0.001000,0.001000,0.001000
1002.153846,0.026240,0.001000,0.001000,0.001000,0.001000,0.001000
1002.173077,0.025249,0.001000,0.001000,0.001000,0.001000,0.001000
1002.192308,0.024244,0.001000,0.001000,0.001000,0.001000,0.001000
1002.211538,0.023227,0.001000,0.001000,0.001000,0.001000,0.001000
1002.230769,0.022198,0.001000,0.001000,0.001000,0.001000,0.001000
1002.250000,0.021156,0.001000,0.001000,0.001000,0.001000,0.001000
1002.269231,0.020103,0.001000,0.001000,0.001000,0.001000,0.001000
1002.288462,0.019040,0.001000,0.001000,0.001000,0.001000,0.001000
1002.307692,0.017966,0.001000,0.001000,0.001000,0.001000,0.001000
1002.326923,0.016882,0.001000,0.001000,0.001000,0.001000,0.001000
1002.346154,0.015790,0.001000,0.001000,0.001000,0.001000,0.001000
1002.365385,0.014689,0.001000,0.001000,0.001000,0.001000,0.001000
1002.384615,0.013581,0.001000,0.001000,0.001000,0.001000,0.001000
1002.403846,0.012465,0.001000,0.001000,0.001000,0.001000,0.001000
1002.423077,0.011342,0.001000,0.001000,0.001000,0.001000,0.001000
1002.442308,0.010213,0.001000,0.001000,0.001000,0.001000,0.001000
1002.461538,0.009079,0.001000,0.001000,0.001000,0.001000,0.001000
1002.480769,0.007940,0.001000,0.001000,0.001000,0.001000,0.001000
1002.500000,0.006797,0.001000,0.001000,0.001000,0.001000,0.001000
1002.519231,0.005650,0.001000,0.001000,0.001000,0.001000,0.001000
1002.538462,0.004500,0.001000,0.001000,0.001000,0.001000,0.001000
1002.557692,0.003348,0.001000,0.001000,0.001000,0.001000,0.001000
1002.576923,0.002194,0.001000,0.001000,0.001000,0.001000,0.001000
1002.596154,0.001039,0.001000,0.001000,0.001000,0.001000,0.001000
1002.615385,-0.000117,0.001000,0.001000,0.001000,0.001000,0.001000
1002.634615,-0.001273,0.001000,0.001000,0.001000,0.001000,0.001000
1002.653846,-0.002428,0.001000,0.001000,0.001000,0.001000,0.001000
1002.673077,-0.003582,0.001000,0.001000,0.001000,0.001000,0.001000
1002.692308,-0.004733,0.001000,0.001000,0.001000,0.001000,0.001000
1002.711538,-0.005883,0.001000,0.001000,0.001000,0.001000,0.001000
1002.730769,-0.007029,0.001000,0.001000,0.001000,0.001000,0.001000
1002.750000,-0.008171,0.001000,0.001000,0.001000,0.001000,0.001000
1002.769231,-0.009309,0.001000,0.001000,0.001000,0.001000,0.001000
1002.788462,-0.010442,0.001000,0.001000,0.001000,0.001000,0.001000
1002.807692,-0.011570,0.001000,0.001000,0.001000,0.001000,0.001000
1002.826923,-0.012691,0.001000,0.001000,0.001000,0.001000,0.001000
1002.846154,-0.013806,0.001000,0.001000,0.001000,0.001000,0.001000
1002.865385,-0.014913,0.001000,0.001000,0.001000,0.001000,0.001000
1002.884615,-0.016012,0.001000,0.001000,0.001000,0.001000,0.001000
1002.903846,-0.017102,0.001000,0.001000,0.001000,0.001000,0.001000
1002.923077,-0.018184,0.001000,0.001000,0.001000,0.001000,0.001000
1002.942308,-0.019256,0.001000,0.001000,0.001000,0.001000,0.001000
1002.961538,-0.020317,0.001000,0.001000,0.001000,0.001000,0.001000
1002.980769,-0.021368,0.001000,0.001000,0.001000,0.001000,0.001000
1003.000000,-0.022407,0.001000,0.001000,0.001000,0.001000,0.001000
1003.019231,-0.023434,0.001000,0.001000,0.001000,0.001000,0.001000
1003.038462,-0.024449,0.001000,0.001000,0.001000,0.001000,0.001000
1003.057692,-0.025451,0.001000,0.001000,0.001000,0.001000,0.001000
1003.076923,-0.026439,0.001000,0.001000,0.001000,0.001000,0.001000
1003.096154,-0.027412,0.001000,0.001000,0.001000,0.001000,0.001000
1003.115385,-0.028372,0.001000,0.001000,0.001000,0.001000,0.001000
1003.134615,-0.029316,0.001000,0.001000,0.001000,0.001000,0.001000
1003.153846,-0.030244,0.001000,0.001000,0.001000,0.001000,0.001000
1003.173077,-0.031156,0.001000,0.001000,0.001000,0.001000,0.001000
1003.192308,-0.032052,0.001000,0.001000,0.001000,0.001000,0.001000
1003.211538,-0.032931,0.001000,0.001000,0.001000,0.001000,0.001000
1003.230769,-0.033791,0.001000,0.001000,0.001000,0.001000,0.001000
1003.250000,-0.034634,0.001000,0.001000,0.001000,0.001000,0.001000
1003.269231,-0.035459,0.001000,0.001000,0.001000,0.001000,0.001000
1003.288462,-0.036264,0.001000,0.001000,0.001000,0.001000,0.001000
1003.307692,-0.037050,0.001000,0.001000,0.001000,0.001000,0.001000
1003.326923,-0.037816,0.001000,0.001000,0.001000,0.001000,0.001000
1003.346154,-0.038562,0.001000,0.001000,0.001000,0.001000,0.001000
1003.365385,-0.039288,0.001000,0.001000,0.001000,0.001000,0.001000
1003.384615,-0.039992,0.001000,0.001000,0.001000,0.001000,0.001000
1003.403846,-0.040675,0.001000,0.001000,0.001000,0.001000,0.001000
1003.423077,-0.041336,0.001000,0.001000,0.001000,0.001000,0.001000
1003.442308,-0.041975,0.001000,0.001000,0.001000,0.001000,0.001000
1003.461538,-0.042592,0.001000,0.001000,0.001000,0.001000,0.001000
1003.480769,-0.043186,0.001000,0.001000,0.001000,0.001000,0.001000
1003.500000,-0.043757,0.001000,0.001000,0.001000,0.001000,0.001000
1003.519231,-0.044305,0.001000,0.001000,0.001000,0.001000,0.001000
1003.538462,-0.044828,0.001000,0.001000,0.001000,0.001000,0.001000
1003.557692,-0.045328,0.001000,0.001000,0.001000,0.001000,0.001000
1003.576923,-0.045804,0.001000,0.001000,0.001000,0.001000,0.001000
1003.596154,-0.046255,0.001000,0.001000,0.001000,0.001000,0.001000
1003.615385,-0.046682,0.001000,0.001000,0.001000,0.001000,0.001000
1003.634615,-0.047083,0.001000,0.001000,0.001000,0.001000,0.001000
1003.653846,-0.047460,0.001000,0.001000,0.001000,0.001000,0.001000
1003.673077,-0.047811,0.001000,0.001000,0.001000,0.001000,0.001000
1003.692308,-0.048136,0.001000,0.001000,0.001000,0.001000,0.001000
1003.711538,-0.048436,0.001000,0.001000,0.001000,0.001000,0.001000
1003.730769,-0.048710,0.001000,0.001000,0.001000,0.001000,0.001000
1003.750000,-0.048958,0.001000,0.001000,0.001000,0.001000,0.001000
1003.769231,-0.049179,0.001000,0.001000,0.001000,0.001000,0.001000
1003.788462,-0.049375,0.001000,0.001000,0.001000,0.001000,0.001000
1003.807692,-0.049544,0.001000,0.001000,0.001000,0.001000,0.001000
1003.826923,-0.049686,0.001000,0.001000,0.001000,0.001000,0.001000
1003.846154,-0.049802,0.001000,0.001000,0.001000,0.001000,0.001000
1003.865385,-0.049892,0.001000,0.001000,0.001000,0.001000,0.001000
1003.884615,-0.049954,0.001000,0.001000,0.001000,0.001000,0.001000
1003.903846,-0.049990,0.001000,0.001000,0.001000,0.001000,0.001000
1003.923077,-0.050000,0.001000,0.001000,0.001000,0.001000,0.001000
1003.942308,-0.049982,0.001000,0.001000,0.001000,0.001000,0.001000
1003.961538,-0.049938,0.001000,0.001000,0.001000,0.001000,0.001000
1003.980769,-0.049867,0.001000,0.001000,0.001000,0.001000,0.001000
1004.000000,-0.049770,0.001000,0.001000,0.001000,0.001000,0.001000
1004.019231,-0.049646,0.001000,0.001000,0.001000,0.001000,0.001000
1004.038462,-0.049495,0.001000,0.001000,0.001000,0.001000,0.001000
1004.057692,-0.049318,0.001000,0.001000,0.001000,0.001000,0.001000
1004.076923,-0.049115,0.001000,0.001000,0.001000,0.001000,0.001000
1004.096154,-0.048885,0.001000,0.001000,0.001000,0.001000,0.001000
1004.115385,-0.048629,0.001000,0.001000,0.001000,0.001000,0.001000
1004.134615,-0.048348,0.001000,0.001000,0.001000,0.001000,0.001000
1004.153846,-0.048040,0.001000,0.001000,0.001000,0.001000,0.001000
1004.173077,-0.047707,0.001000,0.001000,0.001000,0.001000,0.001000
1004.192308,-0.047348,0.001000,0.001000,0.001000,0.001000,0.001000
1004.211538,-0.046964,0.001000,0.001000,0.001000,0.001000,0.001000
1004.230769,-0.046555,0.001000,0.001000,0.001000,0.001000,0.001000
1004.250000,-0.046121,0.001000,0.001000,0.001000,0.001000,0.001000
1004.269231,-0.045662,0.001000,0.001000,0.001000,0.001000,0.001000
1004.288462,-0.045179,0.001000,0.001000,0.001000,0.001000,0.001000
1004.307692,-0.044672,0.001000,0.001000,0.001000,0.001000,0.001000
1004.326923,-0.044141,0.001000,0.001000,0.001000,0.001000,0.001000
1004.346154,-0.043586,0.001000,0.001000,0.001000,0.001000,0.001000
1004.365385,-0.043008,0.001000,0.001000,0.001000,0.001000,0.001000
1004.384615,-0.042407,0.001000,0.001000,0.001000,0.001000,0.001000
1004.403846,-0.041784,0.001000,0.001000,0.001000,0.001000,0.001000
1004.423077,-0.041138,0.001000,0.001000,0.001000,0.001000,0.001000
1004.442308,-0.040470,0.001000,0.001000,0.001000,0.001000,0.001000
1004.461538,-0.039780,0.001000,0.001000,0.001000,0.001000,0.001000
1004.480769,-0.039069,0.001000,0.001000,0.001000,0.001000,0.001000
1004.500000,-0.038338,0.001000,0.001000,0.001000,0.001000,0.001000
1004.519231,-0.037586,0.001000,0.001000,0.001000,0.001000,0.001000
1004.538462,-0.036813,0.001000,0.001000,0.001000,0.001000,0.001000
1004.557692,-0.036021,0.001000,0.001000,0.001000,0.001000,0.001000
1004.576923,-0.035210,0.001000,0.001000,0.001000,0.001000,0.001000
1004.596154,-0.034380,0.001000,0.001000,0.001000,0.001000,0.001000
1004.615385,-0.033532,0.001000,0.001000,0.001000,0.001000,0.001000
1004.634615,-0.032666,0.001000,0.001000,0.001000,0.001000,0.001000
1004.653846,-0.031782,0.001000,0.001000,0.001000,0.001000,0.001000
1004.673077,-0.030881,0.001000,0.001000,0.001000,0.001000,0.001000
1004.692308,-0.029964,0.001000,0.001000,0.001000,0.001000,0.001000
1004.711538,-0.029031,0.001000,0.001000,0.001000,0.001000,0.001000
1004.730769,-0.028082,0.001000,0.001000,0.001000,0.001000,0.001000
1004.750000,-0.027118,0.001000,0.001000,0.001000,0.001000,0.001000
1004.769231,-0.026140,0.001000,0.001000,0.001000,0.001000,0.001000
1004.788462,-0.025148,0.001000,0.001000,0.001000,0.001000,0.001000
1004.807692,-0.024142,0.001000,0.001000,0.001000,0.001000,0.001000
1004.826923,-0.023124,0.001000,0.001000,0.001000,0.001000,0.001000
1004.846154,-0.022093,0.001000,0.001000,0.001000,0.001000,0.001000
1004.865385,-0.021050,0.001000,0.001000,0.001000,0.001000,0.001000
1004.884615,-0.019996,0.001000,0.001000,0.001000,0.001000,0.001000
1004.903846,-0.018931,0.001000,0.001000,0.001000,0.001000,0.001000
1004.923077,-0.017857,0.001000,0.001000,0.001000,0.001000,0.001000
1004.942308,-0.016772,0.001000,0.001000,0.001000,0.001000,0.001000
1004.961538,-0.015679,0.001000,0.001000,0.001000,0.001000,0.001000
1004.980769,-0.014577,0.001000,0.001000,0.001000,0.001000,0.001000
1005.000000,-0.013468,0.001000,0.001000,0.001000,0.001000,0.001000
1005.019231,-0.012351,0.001000,0.001000,0.001000,0.001000,0.001000
1005.038462,-0.011228,0.001000,0.001000,0.001000,0.001000,0.001000
1005.057692,-0.010099,0.001000,0.001000,0.001000,0.001000,0.001000
1005.076923,-0.008964,0.001000,0.001000,0.001000,0.001000,0.001000
1005.096154,-0.007825,0.001000,0.001000,0.001000,0.001000,0.001000
1005.115385,-0.006681,0.001000,0.001000,0.001000,0.001000,0.001000
1005.134615,-0.005534,0.001000,0.001000,0.001000,0.001000,0.001000
1005.153846,-0.004384,0.001000,0.001000,0.001000,0.001000,0.001000
1005.173077,-0.003231,0.001000,0.001000,0.001000,0.001000,0.001000
1005.192308,-0.002077,0.001000,0.001000,0.001000,0.001000,0.001000
1005.211538,-0.000922,0.001000,0.001000,0.001000,0.001000,0.001000
1005.230769,0.000234,0.001000,0.001000,0.001000,0.001000,0.001000
1005.250000,0.001390,0.001000,0.001000,0.001000,0.001000,0.001000
1005.269231,0.002545,0.001000,0.001000,0.001000,0.001000,0.001000
1005.288462,0.003698,0.001000,0.001000,0.001000,0.001000,0.001000
1005.307692,0.004850,0.001000,0.001000,0.001000,0.001000,0.001000
1005.326923,0.005999,0.001000,0.001000,0.001000,0.001000,0.001000
1005.346154,0.007145,0.001000,0.001000,0.001000,0.001000,0.001000
1005.365385,0.008287,0.001000,0.001000,0.001000,0.001000,0.001000
1005.384615,0.009424,0.001000,0.001000,0.001000,0.001000,0.001000
1005.403846,0.010557,0.001000,0.001000,0.001000,0.001000,0.001000
1005.423077,0.011684,0.001000,0.001000,0.001000,0.001000,0.001000
1005.442308,0.012804,0.001000,0.001000,0.001000,0.001000,0.001000
1005.461538,0.013918,0.001000,0.001000,0.001000,0.001000,0.001000
1005.480769,0.015024,0.001000,0.001000,0.001000,0.001000,0.001000
1005.500000,0.016123,0.001000,0.001000,0.001000,0.001000,0.001000
1005.519231,0.017212,0.001000,0.001000,0.001000,0.001000,0.001000
1005.538462,0.018293,0.001000,0.001000,0.001000,0.001000,0.001000
1005.557692,0.019364,0.001000,0.001000,0.001000,0.001000,0.001000
1005.576923,0.020424,0.001000,0.001000,0.001000,0.001000,0.001000
1005.596154,0.021474,0.001000,0.001000,0.001000,0.001000,0.001000
1005.615385,0.022512,0.001000,0.001000,0.001000,0.001000,0.001000
1005.634615,0.023537,0.001000,0.001000,0.001000,0.001000,0.001000
1005.653846,0.024551,0.001000,0.001000,0.001000,0.001000,0.001000
1005.673077,0.025551,0.001000,0.001000,0.001000,0.001000,0.001000
1005.692308,0.026538,0.001000,0.001000,0.001000,0.001000,0.001000
1005.711538,0.027510,0.001000,0.001000,0.001000,0.001000,0.001000
1005.730769,0.028468,0.001000,0.001000,0.001000,0.001000,0.001000
1005.750000,0.029410,0.001000,0.001000,0.001000,0.001000,0.001000
1005.769231,0.030337,0.001000,0.001000,0.001000,0.001000,0.001000
1005.788462,0.031248,0.001000,0.001000,0.001000,0.001000,0.001000
1005.807692,0.032142,0.001000,0.001000,0.001000,0.001000,0.001000
1005.826923,0.033019,0.001000,0.001000,0.001000,0.001000,0.001000
1005.846154,0.033878,0.001000,0.001000,0.001000,0.001000,0.001000
1005.865385,0.034719,0.001000,0.001000,0.001000,0.001000,0.001000
1005.884615,0.035541,0.001000,0.001000,0.001000,0.001000,0.001000
1005.903846,0.036344,0.001000,0.001000,0.001000,0.001000,0.001000
1005.923077,0.037128,0.001000,0.001000,0.001000,0.001000,0.001000
1005.942308,0.037893,0.001000,0.001000,0.001000,0.001000,0.001000
1005.961538,0.038637,0.001000,0.001000,0.001000,0.001000,0.001000
1005.980769,0.039360,0.001000,0.001000,0.001000,0.001000,0.001000
1006.000000,0.040062,0.001000,0.001000,0.001000,0.001000,0.001000
1006.019231,0.040743,0.001000,0.001000,0.001000,0.001000,0.001000
1006.038462,0.041402,0.001000,0.001000,0.001000,0.001000,0.001000
1006.057692,0.042039,0.001000,0.001000,0.001000,0.001000,0.001000
1006.076923,0.042653,0.001000,0.001000,0.001000,0.001000,0.001000
1006.096154,0.043245,0.001000,0.001000,0.001000,0.001000,0.001000
1006.115385,0.043814,0.001000,0.001000,0.001000,0.001000,0.001000
1006.134615,0.044359,0.001000,0.001000,0.001000,0.001000,0.001000
1006.153846,0.044880,0.001000,0.001000,0.001000,0.001000,0.001000
1006.173077,0.045378,0.001000,0.001000,0.001000,0.001000,0.001000
1006.192308,0.045851,0.001000,0.001000,0.001000,0.001000,0.001000
1006.211538,0.046300,0.001000,0.001000,0.001000,0.001000,0.001000
1006.230769,0.046724,0.001000,0.001000,0.001000,0.001000,0.001000
1006.250000,0.047123,0.001000,0.001000,0.001000,0.001000,0.001000
1006.269231,0.047496,0.001000,0.001000,0.001000,0.001000,0.001000
1006.288462,0.047845,0.001000,0.001000,0.001000,0.001000,0.001000
1006.307692,0.048168,0.001000,0.001000,0.001000,0.001000,0.001000
1006.326923,0.048465,0.001000,0.001000,0.001000,0.001000,0.001000
1006.346154,0.048736,0.001000,0.001000,0.001000,0.001000,0.001000
1006.365385,0.048981,0.001000,0.001000,0.001000,0.001000,0.001000
1006.384615,0.049200,0.001000,0.001000,0.001000,0.001000,0.001000
1006.403846,0.049393,0.001000,0.001000,0.001000,0.001000,0.001000
1006.423077,0.049559,0.001000,0.001000,0.001000,0.001000,0.001000
1006.442308,0.049699,0.001000,0.001000,0.001000,0.001000,0.001000
1006.461538,0.049813,0.001000,0.001000,0.001000,0.001000,0.001000
1006.480769,0.049899,0.001000,0.001000,0.001000,0.001000,0.001000
1006.500000,0.049959,0.001000,0.001000,0.001000,0.001000,0.001000
1006.519231,0.049993,0.001000,0.001000,0.001000,0.001000,0.001000
1006.538462,0.049999,0.001000,0.001000,0.001000,0.001000,0.001000
1006.557692,0.049979,0.001000,0.001000,0.001000,0.001000,0.001000
1006.576923,0.049932,0.001000,0.001000,0.001000,0.001000,0.001000
1006.596154,0.049859,0.001000,0.001000,0.001000,0.001000,0.001000
1006.615385,0.049759,0.001000,0.001000,0.001000,0.001000,0.001000
1006.634615,0.049632,0.001000,0.001000,0.001000,0.001000,0.001000
1006.653846,0.049479,0.001000,0.001000,0.001000,0.001000,0.001000
1006.673077,0.049299,0.001000,0.001000,0.001000,0.001000,0.001000
1006.692308,0.049093,0.001000,0.001000,0.001000,0.001000,0.001000
1006.711538,0.048860,0.001000,0.001000,0.001000,0.001000,0.001000
1006.730769,0.048602,0.001000,0.001000,0.001000,0.001000,0.001000
1006.750000,0.048318,0.001000,0.001000,0.001000,0.001000,0.001000
1006.769231,0.048008,0.001000,0.001000,0.001000,0.001000,0.001000
1006.788462,0.047672,0.001000,0.001000,0.001000,0.001000,0.001000
1006.807692,0.047310,0.001000,0.001000,0.001000,0.001000,0.001000
1006.826923,0.046924,0.001000,0.001000,0.001000,0.001000,0.001000
1006.846154,0.046512,0.001000,0.001000,0.001000,0.001000,0.001000
1006.865385,0.046076,0.001000,0.001000,0.001000,0.001000,0.001000
1006.884615,0.045614,0.001000,0.001000,0.001000,0.001000,0.001000
1006.903846,0.045129,0.001000,0.001000,0.001000,0.001000,0.001000
1006.923077,0.044619,0.001000,0.001000,0.001000,0.001000,0.001000
1006.942308,0.044086,0.001000,0.001000,0.001000,0.001000,0.001000
1006.961538,0.043529,0.001000,0.001000,0.001000,0.001000,0.001000
1006.980769,0.042948,0.001000,0.001000,0.001000,0.001000,0.001000
1007.000000,0.042345,0.001000,0.001000,0.001000,0.001000,0.001000
1007.019231,0.041719,0.001000,0.001000,0.001000,0.001000,0.001000
1007.038462,0.041071,0.001000,0.001000,0.001000,0.001000,0.001000
1007.057692,0.040401,0.001000,0.001000,0.001000,0.001000,0.001000
1007.076923,0.039709,0.001000,0.001000,0.001000,0.001000,0.001000
1007.096154,0.038996,0.001000,0.001000,0.001000,0.001000,0.001000
1007.115385,0.038263,0.001000,0.001000,0.001000,0.001000,0.001000
1007.134615,0.037508,0.001000,0.001000,0.001000,0.001000,0.001000
1007.153846,0.036734,0.001000,0.001000,0.001000,0.001000,0.001000
1007.173077,0.035940,0.001000,0.001000,0.001000,0.001000,0.001000
1007.192308,0.035127,0.001000,0.001000,0.001000,0.001000,0.001000
1007.211538,0.034295,0.001000,0.001000,0.001000,0.001000,0.001000
1007.230769,0.033445,0.001000,0.001000,0.001000,0.001000,0.001000
1007.250000,0.032577,0.001000,0.001000,0.001000,0.001000,0.001000
1007.269231,0.031691,0.001000,0.001000,0.001000,0.001000,0.001000
1007.288462,0.030789,0.001000,0.001000,0.001000,0.001000,0.001000
1007.307692,0.029870,0.001000,0.001000,0.001000,0.001000,0.001000
1007.326923,0.028935,0.001000,0.001000,0.001000,0.001000,0.001000
1007.346154,0.027985,0.001000,0.001000,0.001000,0.001000,0.001000
1007.365385,0.027020,0.001000,0.001000,0.001000,0.001000,0.001000
1007.384615,0.026040,0.001000,0.001000,0.001000,0.001000,0.001000
1007.403846,0.025047,0.001000,0.001000,0.001000,0.001000,0.001000
1007.423077,0.024040,0.001000,0.001000,0.001000,0.001000,0.001000
1007.442308,0.023020,0.001000,0.001000,0.001000,0.001000,0.001000
1007.461538,0.021988,0.001000,0.001000,0.001000,0.001000,0.001000
1007.480769,0.020944,0.001000,0.001000,0.001000,0.001000,0.001000
1007.500000,0.019889,0.001000,0.001000,0.001000,0.001000,0.001000
1007.519231,0.018823,0.001000,0.001000,0.001000,0.001000,0.001000
1007.538462,0.017747,0.001000,0.001000,0.001000,0.001000,0.001000
1007.557692,0.016662,0.001000,0.001000,0.001000,0.001000,0.001000
1007.576923,0.015568,0.001000,0.001000,0.001000,0.001000,0.001000
1007.596154,0.014465,0.001000,0.001000,0.001000,0.001000,0.001000
1007.615385,0.013355,0.001000,0.001000,0.001000,0.001000,0.001000
1007.634615,0.012238,0.001000,0.001000,0.001000,0.001000,0.001000
1007.653846,0.011114,0.001000,0.001000,0.001000,0.001000,0.001000
1007.673077,0.009984,0.001000,0.001000,0.001000,0.001000,0.001000
1007.692308,0.008849,0.001000,0.001000,0.001000,0.001000,0.001000
1007.711538,0.007709,0.001000,0.001000,0.001000,0.001000,0.001000
1007.730769,0.006565,0.001000,0.001000,0.001000,0.001000,0.001000
1007.750000,0.005418,0.001000,0.001000,0.001000,0.001000,0.001000
1007.769231,0.004267,0.001000,0.001000,0.001000,0.001000,0.001000
1007.788462,0.003115,0.001000,0.001000,0.001000,0.001000,0.001000
1007.807692,0.001960,0.001000,0.001000,0.001000,0.001000,0.001000
1007.826923,0.000805,0.001000,0.001000,0.001000,0.001000,0.001000
1007.846154,-0.000351,0.001000,0.001000,0.001000,0.001000,0.001000
1007.865385,-0.001507,0.001000,0.001000,0.001000,0.001000,0.001000
1007.884615,-0.002661,0.001000,0.001000,0.001000,0.001000,0.001000
1007.903846,-0.003815,0.001000,0.001000,0.001000,0.001000,0.001000
1007.923077,-0.004966,0.001000,0.001000,0.001000,0.001000,0.001000
1007.942308,-0.006115,0.001000,0.001000,0.001000,0.001000,0.001000
1007.961538,-0.007260,0.001000,0.001000,0.001000,0.001000,0.001000
1007.980769,-0.008402,0.001000,0.001000,0.001000,0.001000,0.001000
1008.000000,-0.009539,0.001000,0.001000,0.001000,0.001000,0.001000
1008.019231,-0.010671,0.001000,0.001000,0.001000,0.001000,0.001000
1008.038462,-0.011797,0.001000,0.001000,0.001000,0.001000,0.001000
1008.057692,-0.012917,0.001000,0.001000,0.001000,0.001000,0.001000
1008.076923,-0.014030,0.001000,0.001000,0.001000,0.001000,0.001000
1008.096154,-0.015136,0.001000,0.001000,0.001000,0.001000,0.001000
1008.115385,-0.016233,0.001000,0.001000,0.001000,0.001000,0.001000
1008.134615,-0.017322,0.001000,0.001000,0.001000,0.001000,0.001000
1008.153846,-0.018402,0.001000,0.001000,0.001000,0.001000,0.001000
1008.173077,-0.019471,0.001000,0.001000,0.001000,0.001000,0.001000
1008.192308,-0.020531,0.001000,0.001000,0.001000,0.001000,0.001000
1008.211538,-0.021579,0.001000,0.001000,0.001000,0.001000,0.001000
1008.230769,-0.022616,0.001000,0.001000,0.001000,0.001000,0.001000
1008.250000,-0.023641,0.001000,0.001000,0.001000,0.001000,0.001000
1008.269231,-0.024653,0.001000,0.001000,0.001000,0.001000,0.001000
1008.288462,-0.025652,0.001000,0.001000,0.001000,0.001000,0.001000
1008.307692,-0.026637,0.001000,0.001000,0.001000,0.001000,0.001000
1008.326923,-0.027608,0.001000,0.001000,0.001000,0.001000,0.001000
1008.346154,-0.028564,0.001000,0.001000,0.001000,0.001000,0.001000
1008.365385,-0.029505,0.001000,0.001000,0.001000,0.001000,0.001000
1008.384615,-0.030430,0.001000,0.001000,0.001000,0.001000,0.001000
1008.403846,-0.031339,0.001000,0.001000,0.001000,0.001000,0.001000
1008.423077,-0.032231,0.001000,0.001000,0.001000,0.001000,0.001000
1008.442308,-0.033106,0.001000,0.001000,0.001000,0.001000,0.001000
1008.461538,-0.033964,0.001000,0.001000,0.001000,0.001000,0.001000
1008.480769,-0.034803,0.001000,0.001000,0.001000,0.001000,0.001000
1008.500000,-0.035623,0.001000,0.001000,0.001000,0.001000,0.001000
1008.519231,-0.036425,0.001000,0.001000,0.001000,0.001000,0.001000
1008.538462,-0.037207,0.001000,0.001000,0.001000,0.001000,0.001000
1008.557692,-0.037969,0.001000,0.001000,0.001000,0.001000,0.001000
1008.576923,-0.038711,0.001000,0.001000,0.001000,0.001000,0.001000
1008.596154,-0.039432,0.001000,0.001000,0.001000,0.001000,0.001000
1008.615385,-0.040132,0.001000,0.001000,0.001000,0.001000,0.001000
1008.634615,-0.040811,0.001000,0.001000,0.001000,0.001000,0.001000
1008.653846,-0.041467,0.001000,0.001000,0.001000,0.001000,0.001000
1008.673077,-0.042102,0.001000,0.001000,0.001000,0.001000,0.001000
1008.692308,-0.042714,0.001000,0.001000,0.001000,0.001000,0.001000
1008.711538,-0.043304,0.001000,0.001000,0.001000,0.001000,0.001000
1008.730769,-0.043870,0.001000,0.001000,0.001000,0.001000,0.001000
1008.750000,-0.044413,0.001000,0.001000,0.001000,0.001000,0.001000
1008.769231,-0.044932,0.001000,0.001000,0.001000,0.001000,0.001000
1008.788462,-0.045427,0.001000,0.001000,0.001000,0.001000,0.001000
1008.807692,-0.045897,0.001000,0.001000,0.001000,0.001000,0.001000
1008.826923,-0.046344,0.001000,0.001000,0.001000,0.001000,0.001000
1008.846154,-0.046765,0.001000,0.001000,0.001000,0.001000,0.001000
1008.865385,-0.047162,0.001000,0.001000,0.001000,0.001000,0.001000
1008.884615,-0.047533,0.001000,0.001000,0.001000,0.001000,0.001000
1008.903846,-0.047879,0.001000,0.001000,0.001000,0.001000,0.001000
1008.923077,-0.048199,0.001000,0.001000,0.001000,0.001000,0.001000
1008.942308,-0.048494,0.001000,0.001000,0.001000,0.001000,0.001000
1008.961538,-0.048762,0.001000,0.001000,0.001000,0.001000,0.001000
1008.980769,-0.049005,0.001000,0.001000,0.001000,0.001000,0.001000
1009.000000,-0.049221,0.001000,0.001000,0.001000,0.001000,0.001000
1009.019231,-0.049411,0.001000,0.001000,0.001000,0.001000,0.001000
1009.038462,-0.049575,0.001000,0.001000,0.001000,0.001000,0.001000
1009.057692,-0.049712,0.001000,0.001000,0.001000,0.001000,0.001000
1009.076923,-0.049823,0.001000,0.001000,0.001000,0.001000,0.001000
1009.096154,-0.049907,0.001000,0.001000,0.001000,0.001000,0.001000
1009.115385,-0.049964,0.001000,0.001000,0.001000,0.001000,0.001000
1009.134615,-0.049994,0.001000,0.001000,0.001000,0.001000,0.001000
1009.153846,-0.049998,0.001000,0.001000,0.001000,0.001000,0.001000
1009.173077,-0.049975,0.001000,0.001000,0.001000,0.001000,0.001000
1009.192308,-0.049926,0.001000,0.001000,0.001000,0.001000,0.001000
1009.211538,-0.049850,0.001000,0.001000,0.001000,0.001000,0.001000
1009.230769,-0.049747,0.001000,0.001000,0.001000,0.001000,0.001000
1009.250000,-0.049617,0.001000,0.001000,0.001000,0.001000,0.001000
1009.269231,-0.049462,0.001000,0.001000,0.001000,0.001000,0.001000
1009.288462,-0.049279,0.001000,0.001000,0.001000,0.001000,0.001000
1009.307692,-0.049070,0.001000,0.001000,0.001000,0.001000,0.001000
1009.326923,-0.048836,0.001000,0.001000,0.001000,0.001000,0.001000
1009.346154,-0.048574,0.001000,0.001000,0.001000,0.001000,0.001000
1009.365385,-0.048287,0.001000,0.001000,0.001000,0.001000,0.001000
1009.384615,-0.047975,0.001000,0.001000,0.001000,0.001000,0.001000
1009.403846,-0.047636,0.001000,0.001000,0.001000,0.001000,0.001000
1009.423077,-0.047272,0.001000,0.001000,0.001000,0.001000,0.001000
1009.442308,-0.046883,0.001000,0.001000,0.001000,0.001000,0.001000
1009.461538,-0.046469,0.001000,0.001000,0.001000,0.001000,0.001000
1009.480769,-0.046030,0.001000,0.001000,0.001000,0.001000,0.001000
1009.500000,-0.045566,0.001000,0.001000,0.001000,0.001000,0.001000
1009.519231,-0.045078,0.001000,0.001000,0.001000,0.001000,0.001000
1009.538462,-0.044566,0.001000,0.001000,0.001000,0.001000,0.001000
1009.557692,-0.044030,0.001000,0.001000,0.001000,0.001000,0.001000
1009.576923,-0.043471,0.001000,0.001000,0.001000,0.001000,0.001000
1009.596154,-0.042888,0.001000,0.001000,0.001000,0.001000,0.001000
1009.615385,-0.042283,0.001000,0.001000,0.001000,0.001000,0.001000
1009.634615,-0.041655,0.001000,0.001000,0.001000,0.001000,0.001000
1009.653846,-0.041004,0.001000,0.001000,0.001000,0.001000,0.001000
1009.673077,-0.040332,0.001000,0.001000,0.001000,0.001000,0.001000
1009.692308,-0.039638,0.001000,0.001000,0.001000,0.001000,0.001000
1009.711538,-0.038923,0.001000,0.001000,0.001000,0.001000,0.001000
1009.730769,-0.038187,0.001000,0.001000,0.001000,0.001000,0.001000
1009.750000,-0.037431,0.001000,0.001000,0.001000,0.001000,0.001000
1009.769231,-0.036655,0.001000,0.001000,0.001000,0.001000,0.001000
1009.788462,-0.035859,0.001000,0.001000,0.001000,0.001000,0.001000
1009.807692,-0.035044,0.001000,0.001000,0.001000,0.001000,0.001000
1009.826923,-0.034210,0.001000,0.001000,0.001000,0.001000,0.001000
1009.846154,-0.033358,0.001000,0.001000,0.001000,0.001000,0.001000
1009.865385,-0.032488,0.001000,0.001000,0.001000,0.001000,0.001000
1009.884615,-0.031601,0.001000,0.001000,0.001000,0.001000,0.001000
1009.903846,-0.030697,0.001000,0.001000,0.001000,0.001000,0.001000
1009.923077,-0.029776,0.001000,0.001000,0.001000,0.001000,0.001000
1009.942308,-0.028840,0.001000,0.001000,0.001000,0.001000,0.001000
1009.961538,-0.027888,0.001000,0.001000,0.001000,0.001000,0.001000
1009.980769,-0.026921,0.001000,0.001000,0.001000,0.001000,0.001000
1010.000000,-0.025940,0.001000,0.001000,0.001000,0.001000,0.001000
1010.019231,-0.024945,0.001000,0.001000,0.001000,0.001000,0.001000
1010.038462,-0.023937,0.001000,0.001000,0.001000,0.001000,0.001000
1010.057692,-0.022916,0.001000,0.001000,0.001000,0.001000,0.001000
1010.076923,-0.021882,0.001000,0.001000,0.001000,0.001000,0.001000
1010.096154,-0.020837,0.001000,0.001000,0.001000,0.001000,0.001000
1010.115385,-0.019781,0.001000,0.001000,0.001000,0.001000,0.001000
1010.134615,-0.018715,0.001000,0.001000,0.001000,0.001000,0.001000
1010.153846,-0.017638,0.001000,0.001000,0.001000,0.001000,0.001000
1010.173077,-0.016552,0.001000,0.001000,0.001000,0.001000,0.001000
1010.192308,-0.015457,0.001000,0.001000,0.001000,0.001000,0.001000
1010.211538,-0.014353,0.001000,0.001000,0.001000,0.001000,0.001000
1010.230769,-0.013242,0.001000,0.001000,0.001000,0.001000,0.001000
1010.250000,-0.012124,0.001000,0.001000,0.001000,0.001000,0.001000
1010.269231,-0.011000,0.001000,0.001000,0.001000,0.001000,0.001000
1010.288462,-0.009869,0.001000,0.001000,0.001000,0.001000,0.001000
1010.307692,-0.008734,0.001000,0.001000,0.001000,0.001000,0.001000
1010.326923,-0.007594,0.001000,0.001000,0.001000,0.001000,0.001000
1010.346154,-0.006449,0.001000,0.001000,0.001000,0.001000,0.001000
1010.365385,-0.005301,0.001000,0.001000,0.001000,0.001000,0.001000
1010.384615,-0.004151,0.001000,0.001000,0.001000,0.001000,0.001000
1010.403846,-0.002998,0.001000,0.001000,0.001000,0.001000,0.001000
1010.423077,-0.001843,0.001000,0.001000,0.001000,0.001000,0.001000
1010.442308,-0.000688,0.001000,0.001000,0.001000,0.001000,0.001000
1010.461538,0.000468,0.001000,0.001000,0.001000,0.001000,0.001000
1010.480769,0.001624,0.001000,0.001000,0.001000,0.001000,0.001000
1010.500000,0.002778,0.001000,0.001000,0.001000,0.001000,0.001000
1010.519231,0.003932,0.001000,0.001000,0.001000,0.001000,0.001000
1010.538462,0.005083,0.001000,0.001000,0.001000,0.001000,0.001000
1010.557692,0.006231,0.001000,0.001000,0.001000,0.001000,0.001000
1010.576923,0.007376,0.001000,0.001000,0.001000,0.001000,0.001000
1010.596154,0.008517,0.001000,0.001000,0.001000,0.001000,0.001000
1010.615385,0.009654,0.001000,0.001000,0.001000,0.001000,0.001000
1010.634615,0.010785,0.001000,0.001000,0.001000,0.001000,0.001000
1010.653846,0.011911,0.001000,0.001000,0.001000,0.001000,0.001000
1010.673077,0.013030,0.001000,0.001000,0.001000,0.001000,0.001000
1010.692308,0.014143,0.001000,0.001000,0.001000,0.001000,0.001000
1010.711538,0.015247,0.001000,0.001000,0.001000,0.001000,0.001000
1010.730769,0.016344,0.001000,0.001000,0.001000,0.001000,0.001000
1010.750000,0.017432,0.001000,0.001000,0.001000,0.001000,0.001000
1010.769231,0.018510,0.001000,0.001000,0.001000,0.001000,0.001000
1010.788462,0.019579,0.001000,0.001000,0.001000,0.001000,0.001000
1010.807692,0.020637,0.001000,0.001000,0.001000,0.001000,0.001000
1010.826923,0.021685,0.001000,0.001000,0.001000,0.001000,0.001000
1010.846154,0.022720,0.001000,0.001000,0.001000,0.001000,0.001000
1010.865385,0.023744,0.001000,0.001000,0.001000,0.001000,0.001000
1010.884615,0.024754,0.001000,0.001000,0.001000,0.001000,0.001000
1010.903846,0.025752,0.001000,0.001000,0.001000,0.001000,0.001000
1010.923077,0.026736,0.001000,0.001000,0.001000,0.001000,0.001000
1010.942308,0.027705,0.001000,0.001000,0.001000,0.001000,0.001000
1010.961538,0.028660,0.001000,0.001000,0.001000,0.001000,0.001000
1010.980769,0.029599,0.001000,0.001000,0.001000,0.001000,0.001000
1011.000000,0.030523,0.001000,0.001000,0.001000,0.001000,0.001000
1011.019231,0.031430,0.001000,0.001000,0.001000,0.001000,0.001000
1011.038462,0.032321,0.001000,0.001000,0.001000,0.001000,0.001000
1011.057692,0.033194,0.001000,0.001000,0.001000,0.001000,0.001000
1011.076923,0.034049,0.001000,0.001000,0.001000,0.001000,0.001000
1011.096154,0.034887,0.001000,0.001000,0.001000,0.001000,0.001000
1011.115385,0.035705,0.001000,0.001000,0.001000,0.001000,0.001000
1011.134615,0.036505,0.001000,0.001000,0.001000,0.001000,0.001000
1011.153846,0.037285,0.001000,0.001000,0.001000,0.001000,0.001000
1011.173077,0.038045,0.001000,0.001000,0.001000,0.001000,0.001000
1011.192308,0.038785,0.001000,0.001000,0.001000,0.001000,0.001000
1011.211538,0.039504,0.001000,0.001000,0.001000,0.001000,0.001000
1011.230769,0.040202,0.001000,0.001000,0.001000,0.001000,0.001000
1011.250000,0.040878,0.001000,0.001000,0.001000,0.001000,0.001000
1011.269231,0.041533,0.001000,0.001000,0.001000,0.001000,0.001000
1011.288462,0.042165,0.001000,0.001000,0.001000,0.001000,0.001000
1011.307692,0.042775,0.001000,0.001000,0.001000,0.001000,0.001000
1011.326923,0.043362,0.001000,0.001000,0.001000,0.001000,0.001000
1011.346154,0.043926,0.001000,0.001000,0.001000,0.001000,0.001000
1011.365385,0.044466,0.001000,0.001000,0.001000,0.001000,0.001000
1011.384615,0.044983,0.001000,0.001000,0.001000,0.001000,0.001000
1011.403846,0.045475,0.001000,0.001000,0.001000,0.001000,0.001000
1011.423077,0.045944,0.001000,0.001000,0.001000,0.001000,0.001000
1011.442308,0.046387,0.001000,0.001000,0.001000,0.001000,0.001000
1011.461538,0.046806,0.001000,0.001000,0.001000,0.001000,0.001000
1011.480769,0.047200,0.001000,0.001000,0.001000,0.001000,0.001000
1011.500000,0.047569,0.001000,0.001000,0.001000,0.001000,0.001000
1011.519231,0.047912,0.001000,0.001000,0.001000,0.001000,0.001000
1011.538462,0.048230,0.001000,0.001000,0.001000,0.001000,0.001000
1011.557692,0.048522,0.001000,0.001000,0.001000,0.001000,0.001000
1011.576923,0.048788,0.001000,0.001000,0.001000,0.001000,0.001000
1011.596154,0.049028,0.001000,0.001000,0.001000,0.001000,0.001000
1011.615385,0.049241,0.001000,0.001000,0.001000,0.001000,0.001000
1011.634615,0.049429,0.001000,0.001000,0.001000,0.001000,0.001000
1011.653846,0.049590,0.001000,0.001000,0.001000,0.001000,0.001000
1011.673077,0.049724,0.001000,0.001000,0.001000,0.001000,0.001000
1011.692308,0.049832,0.001000,0.001000,0.001000,0.001000,0.001000
1011.711538,0.049914,0.001000,0.001000,0.001000,0.001000,0.001000
1011.730769,0.049968,0.001000,0.001000,0.001000,0.001000,0.001000
1011.750000,0.049996,0.001000,0.001000,0.001000,0.001000,0.001000
1011.769231,0.049997,0.001000,0.001000,0.001000,0.001000,0.001000
1011.788462,0.049972,0.001000,0.001000,0.001000,0.001000,0.001000
1011.807692,0.049919,0.001000,0.001000,0.001000,0.001000,0.001000
1011.826923,0.049841,0.001000,0.001000,0.001000,0.001000,0.001000
1011.846154,0.049735,0.001000,0.001000,0.001000,0.001000,0.001000
1011.865385,0.049603,0.001000,0.001000,0.001000,0.001000,0.001000
1011.884615,0.049444,0.001000,0.001000,0.001000,0.001000,0.001000
1011.903846,0.049259,0.001000,0.001000,0.001000,0.001000,0.001000
1011.923077,0.049048,0.001000,0.001000,0.001000,0.001000,0.001000
1011.942308,0.048810,0.001000,0.001000,0.001000,0.001000,0.001000
1011.961538,0.048547,0.001000,0.001000,0.001000,0.001000,0.001000
1011.980769,0.048257,0.001000,0.001000,0.001000,0.001000,0.001000
1012.000000,0.047942,0.001000,0.001000,0.001000,0.001000,0.001000
1012.019231,0.047601,0.001000,0.001000,0.001000,0.001000,0.001000
1012.038462,0.047234,0.001000,0.001000,0.001000,0.001000,0.001000
1012.057692,0.046842,0.001000,0.001000,0.001000,0.001000,0.001000
1012.076923,0.046426,0.001000,0.001000,0.001000,0.001000,0.001000
1012.096154,0.045984,0.001000,0.001000,0.001000,0.001000,0.001000
1012.115385,0.045518,0.001000,0.001000,0.001000,0.001000,0.001000
1012.134615,0.045028,0.001000,0.001000,0.001000,0.001000,0.001000
1012.153846,0.044513,0.001000,0.001000,0.001000,0.001000,0.001000
1012.173077,0.043975,0.001000,0.001000,0.001000,0.001000,0.001000
1012.192308,0.043413,0.001000,0.001000,0.001000,0.001000,0.001000
1012.211538,0.042828,0.001000,0.001000,0.001000,0.001000,0.001000
1012.230769,0.042220,0.001000,0.001000,0.001000,0.001000,0.001000
1012.250000,0.041590,0.001000,0.001000,0.001000,0.001000,0.001000
1012.269231,0.040937,0.001000,0.001000,0.001000,0.001000,0.001000
1012.288462,0.040263,0.001000,0.001000,0.001000,0.001000,0.001000
1012.307692,0.039567,0.001000,0.001000,0.001000,0.001000,0.001000
1012.326923,0.038849,0.001000,0.001000,0.001000,0.001000,0.001000
1012.346154,0.038112,0.001000,0.001000,0.001000,0.001000,0.001000
1012.365385,0.037353,0.001000,0.001000,0.001000,0.001000,0.001000
1012.384615,0.036575,0.001000,0.001000,0.001000,0.001000,0.001000
1012.403846,0.035777,0.001000,0.001000,0.001000,0.001000,0.001000
1012.423077,0.034960,0.001000,0.001000,0.001000,0.001000,0.001000
1012.442308,0.034125,0.001000,0.001000,0.001000,0.001000,0.001000
1012.461538,0.033271,0.001000,0.001000,0.001000,0.001000,0.001000
1012.480769,0.032399,0.001000,0.001000,0.001000,0.001000,0.001000
1012.500000,0.031510,0.001000,0.001000,0.001000,0.001000,0.001000
1012.519231,0.030604,0.001000,0.001000,0.001000,0.001000,0.001000
1012.538462,0.029682,0.001000,0.001000,0.001000,0.001000,0.001000
1012.557692,0.028744,0.001000,0.001000,0.001000,0.001000,0.001000
1012.576923,0.027791,0.001000,0.001000,0.001000,0.001000,0.001000
1012.596154,0.026823,0.001000,0.001000,0.001000,0.001000,0.001000
1012.615385,0.025840,0.001000,0.001000,0.001000,0.001000,0.001000
1012.634615,0.024844,0.001000,0.001000,0.001000,0.001000,0.001000
1012.653846,0.023834,0.001000,0.001000,0.001000,0.001000,0.001000
1012.673077,0.022812,0.001000,0.001000,0.001000,0.001000,0.001000
1012.692308,0.021777,0.001000,0.001000,0.001000,0.001000,0.001000
1012.711538,0.020731,0.001000,0.001000,0.001000,0.001000,0.001000
1012.730769,0.019674,0.001000,0.001000,0.001000,0.001000,0.001000
1012.750000,0.018606,0.001000,0.001000,0.001000,0.001000,0.001000
1012.769231,0.017528,0.001000,0.001000,0.001000,0.001000,0.001000
1012.788462,0.016441,0.001000,0.001000,0.001000,0.001000,0.001000
1012.807692,0.015345,0.001000,0.001000,0.001000,0.001000,0.001000
1012.826923,0.014241,0.001000,0.001000,0.001000,0.001000,0.001000
1012.846154,0.013130,0.001000,0.001000,0.001000,0.001000,0.001000
1012.865385,0.012011,0.001000,0.001000,0.001000,0.001000,0.001000
1012.884615,0.010886,0.001000,0.001000,0.001000,0.001000,0.001000
1012.903846,0.009755,0.001000,0.001000,0.001000,0.001000,0.001000
1012.923077,0.008619,0.001000,0.001000,0.001000,0.001000,0.001000
1012.942308,0.007478,0.001000,0.001000,0.001000,0.001000,0.001000
1012.961538,0.006333,0.001000,0.001000,0.001000,0.001000,0.001000
1012.980769,0.005185,0.001000,0.001000,0.001000,0.001000,0.001000
1013.000000,0.004034,0.001000,0.001000,0.001000,0.001000,0.001000
1013.019231,0.002881,0.001000,0.001000,0.001000,0.001000,0.001000
1013.038462,0.001726,0.001000,0.001000,0.001000,0.001000,0.001000
1013.057692,0.000571,0.001000,0.001000,0.001000,0.001000,0.001000
1013.076923,-0.000585,0.001000,0.001000,0.001000,0.001000,0.001000
1013.096154,-0.001741,0.001000,0.001000,0.001000,0.001000,0.001000
1013.115385,-0.002895,0.001000,0.001000,0.001000,0.001000,0.001000
1013.134615,-0.004048,0.001000,0.001000,0.001000,0.001000,0.001000
1013.153846,-0.005199,0.001000,0.001000,0.001000,0.001000,0.001000
1013.173077,-0.006347,0.001000,0.001000,0.001000,0.001000,0.001000
1013.192308,-0.007492,0.001000,0.001000,0.001000,0.001000,0.001000
1013.211538,-0.008633,0.001000,0.001000,0.001000,0.001000,0.001000
1013.230769,-0.009769,0.001000,0.001000,0.001000,0.001000,0.001000
1013.250000,-0.010899,0.001000,0.001000,0.001000,0.001000,0.001000
1013.269231,-0.012025,0.001000,0.001000,0.001000,0.001000,0.001000
1013.288462,-0.013143,0.001000,0.001000,0.001000,0.001000,0.001000
1013.307692,-0.014255,0.001000,0.001000,0.001000,0.001000,0.001000
1013.326923,-0.015359,0.001000,0.001000,0.001000,0.001000,0.001000
1013.346154,-0.016455,0.001000,0.001000,0.001000,0.001000,0.001000
1013.365385,-0.017541,0.001000,0.001000,0.001000,0.001000,0.001000
1013.384615,-0.018619,0.001000,0.001000,0.001000,0.001000,0.001000
1013.403846,-0.019687,0.001000,0.001000,0.001000,0.001000,0.001000
1013.423077,-0.020744,0.001000,0.001000,0.001000,0.001000,0.001000
1013.442308,-0.021790,0.001000,0.001000,0.001000,0.001000,0.001000
1013.461538,-0.022824,0.001000,0.001000,0.001000,0.001000,0.001000
1013.480769,-0.023847,0.001000,0.001000,0.001000,0.001000,0.001000
1013.500000,-0.024856,0.001000,0.001000,0.001000,0.001000,0.001000
1013.519231,-0.025852,0.001000,0.001000,0.001000,0.001000,0.001000
1013.538462,-0.026835,0.001000,0.001000,0.001000,0.001000,0.001000
1013.557692,-0.027803,0.001000,0.001000,0.001000,0.001000,0.001000
1013.576923,-0.028756,0.001000,0.001000,0.001000,0.001000,0.001000
1013.596154,-0.029694,0.001000,0.001000,0.001000,0.001000,0.001000
1013.615385,-0.030616,0.001000,0.001000,0.001000,0.001000,0.001000
1013.634615,-0.031521,0.001000,0.001000,0.001000,0.001000,0.001000
1013.653846,-0.032410,0.001000,0.001000,0.001000,0.001000,0.001000
1013.673077,-0.033281,0.001000,0.001000,0.001000,0.001000,0.001000
1013.692308,-0.034135,0.001000,0.001000,0.001000,0.001000,0.001000
1013.711538,-0.034970,0.001000,0.001000,0.001000,0.001000,0.001000
1013.730769,-0.035787,0.001000,0.001000,0.001000,0.001000,0.001000
1013.750000,-0.036585,0.001000,0.001000,0.001000,0.001000,0.001000
1013.769231,-0.037363,0.001000,0.001000,0.001000,0.001000,0.001000
1013.788462,-0.038121,0.001000,0.001000,0.001000,0.001000,0.001000
1013.807692,-0.038858,0.001000,0.001000,0.001000,0.001000,0.001000
1013.826923,-0.039575,0.001000,0.001000,0.001000,0.001000,0.001000
1013.846154,-0.040271,0.001000,0.001000,0.001000,0.001000,0.001000
1013.865385,-0.040945,0.001000,0.001000,0.001000,0.001000,0.001000
1013.884615,-0.041598,0.001000,0.001000,0.001000,0.001000,0.001000
1013.903846,-0.042228,0.001000,0.001000,0.001000,0.001000,0.001000
1013.923077,-0.042835,0.001000,0.001000,0.001000,0.001000,0.001000
1013.942308,-0.043420,0.001000,0.001000,0.001000,0.001000,0.001000
1013.961538,-0.043982,0.001000,0.001000,0.001000,0.001000,0.001000
1013.980769,-0.044520,0.001000,0.001000,0.001000,0.001000,0.001000
1014.000000,-0.045034,0.001000,0.001000,0.001000,0.001000,0.001000
1014.019231,-0.045524,0.001000,0.001000,0.001000,0.001000,0.001000
1014.038462,-0.045990,0.001000,0.001000,0.001000,0.001000,0.001000
1014.057692,-0.046431,0.001000,0.001000,0.001000,0.001000,0.001000
1014.076923,-0.046847,0.001000,0.001000,0.001000,0.001000,0.001000
1014.096154,-0.047239,0.001000,0.001000,0.001000,0.001000,0.001000
1014.115385,-0.047605,0.001000,0.001000,0.001000,0.001000,0.001000
1014.134615,-0.047946,0.001000,0.001000,0.001000,0.001000,0.001000
1014.153846,-0.048261,0.001000,0.001000,0.001000,0.001000,0.001000
1014.173077,-0.048550,0.001000,0.001000,0.001000,0.001000,0.001000
1014.192308,-0.048813,0.001000,0.001000,0.001000,0.001000,0.001000
1014.211538,-0.049051,0.001000,0.001000,0.001000,0.001000,0.001000
1014.230769,-0.049262,0.001000,0.001000,0.001000,0.001000,0.001000
1014.250000,-0.049446,0.001000,0.001000,0.001000,0.001000,0.001000
1014.269231,-0.049605,0.001000,0.001000,0.001000,0.001000,0.001000
1014.288462,-0.049736,0.001000,0.001000,0.001000,0.001000,0.001000
1014.307692,-0.049842,0.001000,0.001000,0.001000,0.001000,0.001000
1014.326923,-0.049920,0.001000,0.001000,0.001000,0.001000,0.001000
1014.346154,-0.049972,0.001000,0.001000,0.001000,0.001000,0.001000
1014.365385,-0.049997,0.001000,0.001000,0.001000,0.001000,0.001000
1014.384615,-0.049996,0.001000,0.001000,0.001000,0.001000,0.001000
1014.403846,-0.049968,0.001000,0.001000,0.001000,0.001000,0.001000
1014.423077,-0.049913,0.001000,0.001000,0.001000,0.001000,0.001000
1014.442308,-0.049831,0.001000,0.001000,0.001000,0.001000,0.001000
1014.461538,-0.049723,0.001000,0.001000,0.001000,0.001000,0.001000
1014.480769,-0.049588,0.001000,0.001000,0.001000,0.001000,0.001000
1014.500000,-0.049427,0.001000,0.001000,0.001000,0.001000,0.001000
1014.519231,-0.049239,0.001000,0.001000,0.001000,0.001000,0.001000
1014.538462,-0.049025,0.001000,0.001000,0.001000,0.001000,0.001000
1014.557692,-0.048785,0.001000,0.001000,0.001000,0.001000,0.001000
1014.576923,-0.048518,0.001000,0.001000,0.001000,0.001000,0.001000
1014.596154,-0.048226,0.001000,0.001000,0.001000,0.001000,0.001000
1014.615385,-0.047908,0.001000,0.001000,0.001000,0.001000,0.001000
1014.634615,-0.047565,0.001000,0.001000,0.001000,0.001000,0.001000
1014.653846,-0.047196,0.001000,0.001000,0.001000,0.001000,0.001000
1014.673077,-0.046801,0.001000,0.001000,0.001000,0.001000,0.001000
1014.692308,-0.046382,0.001000,0.001000,0.001000,0.001000,0.001000
1014.711538,-0.045938,0.001000,0.001000,0.001000,0.001000,0.001000
1014.730769,-0.045470,0.001000,0.001000,0.001000,0.001000,0.001000
1014.750000,-0.044977,0.001000,0.001000,0.001000,0.001000,0.001000
1014.769231,-0.044460,0.001000,0.001000,0.001000,0.001000,0.001000
1014.788462,-0.043919,0.001000,0.001000,0.001000,0.001000,0.001000
1014.807692,-0.043355,0.001000,0.001000,0.001000,0.001000,0.001000
1014.826923,-0.042768,0.001000,0.001000,0.001000,0.001000,0.001000
1014.846154,-0.042157,0.001000,0.001000,0.001000,0.001000,0.001000
1014.865385,-0.041525,0.001000,0.001000,0.001000,0.001000,0.001000
1014.884615,-0.040870,0.001000,0.001000,0.001000,0.001000,0.001000
1014.903846,-0.040193,0.001000,0.001000,0.001000,0.001000,0.001000
1014.923077,-0.039495,0.001000,0.001000,0.001000,0.001000,0.001000
1014.942308,-0.038776,0.001000,0.001000,0.001000,0.001000,0.001000
1014.961538,-0.038036,0.001000,0.001000,0.001000,0.001000,0.001000
1014.980769,-0.037275,0.001000,0.001000,0.001000,0.001000,0.001000
1015.000000,-0.036495,0.001000,0.001000,0.001000,0.001000,0.001000
1015.019231,-0.035695,0.001000,0.001000,0.001000,0.001000,0.001000
1015.038462,-0.034876,0.001000,0.001000,0.001000,0.001000,0.001000
1015.057692,-0.034039,0.001000,0.001000,0.001000,0.001000,0.001000
1015.076923,-0.033183,0.001000,0.001000,0.001000,0.001000,0.001000
1015.096154,-0.032310,0.001000,0.001000,0.001000,0.001000,0.001000
1015.115385,-0.031419,0.001000,0.001000,0.001000,0.001000,0.001000
1015.134615,-0.030512,0.001000,0.001000,0.001000,0.001000,0.001000
1015.153846,-0.029588,0.001000,0.001000,0.001000,0.001000,0.001000
1015.173077,-0.028648,0.001000,0.001000,0.001000,0.001000,0.001000
1015.192308,-0.027694,0.001000,0.001000,0.001000,0.001000,0.001000
1015.211538,-0.026724,0.001000,0.001000,0.001000,0.001000,0.001000
1015.230769,-0.025740,0.001000,0.001000,0.001000,0.001000,0.001000
1015.250000,-0.024742,0.001000,0.001000,0.001000,0.001000,0.001000
1015.269231,-0.023731,0.001000,0.001000,0.001000,0.001000,0.001000
1015.288462,-0.022708,0.001000,0.001000,0.001000,0.001000,0.001000
1015.307692,-0.021672,0.001000,0.001000,0.001000,0.001000,0.001000
1015.326923,-0.020625,0.001000,0.001000,0.001000,0.001000,0.001000
1015.346154,-0.019566,0.001000,0.001000,0.001000,0.001000,0.001000
1015.365385,-0.018497,0.001000,0.001000,0.001000,0.001000,0.001000
1015.384615,-0.017419,0.001000,0.001000,0.001000,0.001000,0.001000
1015.403846,-0.016331,0.001000,0.001000,0.001000,0.001000,0.001000
1015.423077,-0.015234,0.001000,0.001000,0.001000,0.001000,0.001000
1015.442308,-0.014129,0.001000,0.001000,0.001000,0.001000,0.001000
1015.461538,-0.013017,0.001000,0.001000,0.001000,0.001000,0.001000
1015.480769,-0.011897,0.001000,0.001000,0.001000,0.001000,0.001000
1015.500000,-0.010771,0.001000,0.001000,0.001000,0.001000,0.001000
1015.519231,-0.009640,0.001000,0.001000,0.001000,0.001000,0.001000
1015.538462,-0.008503,0.001000,0.001000,0.001000,0.001000,0.001000
1015.557692,-0.007362,0.001000,0.001000,0.001000,0.001000,0.001000
1015.576923,-0.006217,0.001000,0.001000,0.001000,0.001000,0.001000
1015.596154,-0.005069,0.001000,0.001000,0.001000,0.001000,0.001000
1015.615385,-0.003917,0.001000,0.001000,0.001000,0.001000,0.001000
1015.634615,-0.002764,0.001000,0.001000,0.001000,0.001000,0.001000
1015.653846,-0.001609,0.001000,0.001000,0.001000,0.001000,0.001000
1015.673077,-0.000454,0.001000,0.001000,0.001000,0.001000,0.001000
1015.692308,0.000702,0.001000,0.001000,0.001000,0.001000,0.001000
1015.711538,0.001857,0.001000,0.001000,0.001000,0.001000,0.001000
1015.730769,0.003012,0.001000,0.001000,0.001000,0.001000,0.001000
1015.750000,0.004165,0.001000,0.001000,0.001000,0.001000,0.001000
1015.769231,0.005315,0.001000,0.001000,0.001000,0.001000,0.001000
1015.788462,0.006463,0.001000,0.001000,0.001000,0.001000,0.001000
1015.807692,0.007607,0.001000,0.001000,0.001000,0.001000,0.001000
1015.826923,0.008748,0.001000,0.001000,0.001000,0.001000,0.001000
1015.846154,0.009883,0.001000,0.001000,0.001000,0.001000,0.001000
1015.865385,0.011014,0.001000,0.001000,0.001000,0.001000,0.001000
1015.884615,0.012138,0.001000,0.001000,0.001000,0.001000,0.001000
1015.903846,0.013256,0.001000,0.001000,0.001000,0.001000,0.001000
1015.923077,0.014367,0.001000,0.001000,0.001000,0.001000,0.001000
1015.942308,0.015470,0.001000,0.001000,0.001000,0.001000,0.001000
1015.961538,0.016565,0.001000,0.001000,0.001000,0.001000,0.001000
1015.980769,0.017651,0.001000,0.001000,0.001000,0.001000,0.001000
1016.000000,0.018728,0.001000,0.001000,0.001000,0.001000,0.001000
1016.019231,0.019794,0.001000,0.001000,0.001000,0.001000,0.001000
1016.038462,0.020850,0.001000,0.001000,0.001000,0.001000,0.001000
1016.057692,0.021895,0.001000,0.001000,0.001000,0.001000,0.001000
1016.076923,0.022928,0.001000,0.001000,0.001000,0.001000,0.001000
1016.096154,0.023949,0.001000,0.001000,0.001000,0.001000,0.001000
1016.115385,0.024957,0.001000,0.001000,0.001000,0.001000,0.001000
1016.134615,0.025952,0.001000,0.001000,0.001000,0.001000,0.001000
1016.153846,0.026933,0.001000,0.001000,0.001000,0.001000,0.001000
1016.173077,0.027900,0.001000,0.001000,0.001000,0.001000,0.001000
1016.192308,0.028851,0.001000,0.001000,0.001000,0.001000,0.001000
1016.211538,0.029788,0.001000,0.001000,0.001000,0.001000,0.001000
1016.230769,0.030708,0.001000,0.001000,0.001000,0.001000,0.001000
1016.250000,0.031612,0.001000,0.001000,0.001000,0.001000,0.001000
1016.269231,0.032499,0.001000,0.001000,0.001000,0.001000,0.001000
1016.288462,0.033368,0.001000,0.001000,0.001000,0.001000,0.001000
1016.307692,0.034220,0.001000,0.001000,0.001000,0.001000,0.001000
1016.326923,0.035054,0.001000,0.001000,0.001000,0.001000,0.001000
1016.346154,0.035869,0.001000,0.001000,0.001000,0.001000,0.001000
1016.365385,0.036664,0.001000,0.001000,0.001000,0.001000,0.001000
1016.384615,0.037440,0.001000,0.001000,0.001000,0.001000,0.001000
1016.403846,0.038196,0.001000,0.001000,0.001000,0.001000,0.001000
1016.423077,0.038932,0.001000,0.001000,0.001000,0.001000,0.001000
1016.442308,0.039647,0.001000,0.001000,0.001000,0.001000,0.001000
1016.461538,0.040340,0.001000,0.001000,0.001000,0.001000,0.001000
1016.480769,0.041012,0.001000,0.001000,0.001000,0.001000,0.001000
1016.500000,0.041663,0.001000,0.001000,0.001000,0.001000,0.001000
1016.519231,0.042290,0.001000,0.001000,0.001000,0.001000,0.001000
1016.538462,0.042896,0.001000,0.001000,0.001000,0.001000,0.001000
1016.557692,0.043478,0.001000,0.001000,0.001000,0.001000,0.001000
1016.576923,0.044037,0.001000,0.001000,0.001000,0.001000,0.001000
1016.596154,0.044573,0.001000,0.001000,0.001000,0.001000,0.001000
1016.615385,0.045085,0.001000,0.001000,0.001000,0.001000,0.001000
1016.634615,0.045572,0.001000,0.001000,0.001000,0.001000,0.001000
1016.653846,0.046036,0.001000,0.001000,0.001000,0.001000,0.001000
1016.673077,0.046474,0.001000,0.001000,0.001000,0.001000,0.001000
1016.692308,0.046888,0.001000,0.001000,0.001000,0.001000,0.001000
1016.711538,0.047277,0.001000,0.001000,0.001000,0.001000,0.001000
1016.730769,0.047641,0.001000,0.001000,0.001000,0.001000,0.001000
1016.750000,0.047979,0.001000,0.001000,0.001000,0.001000,0.001000
1016.769231,0.048291,0.001000,0.001000,0.001000,0.001000,0.001000
1016.788462,0.048578,0.001000,0.001000,0.001000,0.001000,0.001000
1016.807692,0.048839,0.001000,0.001000,0.001000,0.001000,0.001000
1016.826923,0.049073,0.001000,0.001000,0.001000,0.001000,0.001000
1016.846154,0.049282,0.001000,0.001000,0.001000,0.001000,0.001000
1016.865385,0.049464,0.001000,0.001000,0.001000,0.001000,0.001000
1016.884615,0.049619,0.001000,0.001000,0.001000,0.001000,0.001000
1016.903846,0.049748,0.001000,0.001000,0.001000,0.001000,0.001000
1016.923077,0.049851,0.001000,0.001000,0.001000,0.001000,0.001000
1016.942308,0.049927,0.001000,0.001000,0.001000,0.001000,0.001000
1016.961538,0.049976,0.001000,0.001000,0.001000,0.001000,0.001000
1016.980769,0.049998,0.001000,0.001000,0.001000,0.001000,0.001000
1017.000000,0.049994,0.001000,0.001000,0.001000,0.001000,0.001000
1017.019231,0.049963,0.001000,0.001000,0.001000,0.001000,0.001000
1017.038462,0.049906,0.001000,0.001000,0.001000,0.001000,0.001000
1017.057692,0.049821,0.001000,0.001000,0.001000,0.001000,0.001000
1017.076923,0.049710,0.001000,0.001000,0.001000,0.001000,0.001000
1017.096154,0.049573,0.001000,0.001000,0.001000,0.001000,0.001000
1017.115385,0.049409,0.001000,0.001000,0.001000,0.001000,0.001000
1017.134615,0.049219,0.001000,0.001000,0.001000,0.001000,0.001000
1017.153846,0.049002,0.001000,0.001000,0.001000,0.001000,0.001000
1017.173077,0.048759,0.001000,0.001000,0.001000,0.001000,0.001000
1017.192308,0.048490,0.001000,0.001000,0.001000,0.001000,0.001000
1017.211538,0.048195,0.001000,0.001000,0.001000,0.001000,0.001000
1017.230769,0.047875,0.001000,0.001000,0.001000,0.001000,0.001000
1017.250000,0.047528,0.001000,0.001000,0.001000,0.001000,0.001000
1017.269231,0.047157,0.001000,0.001000,0.001000,0.001000,0.001000
1017.288462,0.046760,0.001000,0.001000,0.001000,0.001000,0.001000
1017.307692,0.046338,0.001000,0.001000,0.001000,0.001000,0.001000
1017.326923,0.045892,0.001000,0.001000,0.001000,0.001000,0.001000
1017.346154,0.045421,0.001000,0.001000,0.001000,0.001000,0.001000
1017.365385,0.044925,0.001000,0.001000,0.001000,0.001000,0.001000
1017.384615,0.044406,0.001000,0.001000,0.001000,0.001000,0.001000
1017.403846,0.043863,0.001000,0.001000,0.001000,0.001000,0.001000
1017.423077,0.043297,0.001000,0.001000,0.001000,0.001000,0.001000
1017.442308,0.042707,0.001000,0.001000,0.001000,0.001000,0.001000
1017.461538,0.042094,0.001000,0.001000,0.001000,0.001000,0.001000
1017.480769,0.041460,0.001000,0.001000,0.001000,0.001000,0.001000
1017.500000,0.040802,0.001000,0.001000,0.001000,0.001000,0.001000
1017.519231,0.040124,0.001000,0.001000,0.001000,0.001000,0.001000
1017.538462,0.039423,0.001000,0.001000,0.001000,0.001000,0.001000
1017.557692,0.038702,0.001000,0.001000,0.001000,0.001000,0.001000
1017.576923,0.037960,0.001000,0.001000,0.001000,0.001000,0.001000
1017.596154,0.037197,0.001000,0.001000,0.001000,0.001000,0.001000
1017.615385,0.036415,0.001000,0.001000,0.001000,0.001000,0.001000
1017.634615,0.035613,0.001000,0.001000,0.001000,0.001000,0.001000
1017.653846,0.034793,0.001000,0.001000,0.001000,0.001000,0.001000
1017.673077,0.033953,0.001000,0.001000,0.001000,0.001000,0.001000
1017.692308,0.033096,0.001000,0.001000,0.001000,0.001000,0.001000
1017.711538,0.032221,0.001000,0.001000,0.001000,0.001000,0.001000
1017.730769,0.031328,0.001000,0.001000,0.001000,0.001000,0.001000
1017.750000,0.030419,0.001000,0.001000,0.001000,0.001000,0.001000
1017.769231,0.029494,0.001000,0.001000,0.001000,0.001000,0.001000
1017.788462,0.028552,0.001000,0.001000,0.001000,0.001000,0.001000
1017.807692,0.027596,0.001000,0.001000,0.001000,0.001000,0.001000
1017.826923,0.026625,0.001000,0.001000,0.001000,0.001000,0.001000
1017.846154,0.025640,0.001000,0.001000,0.001000,0.001000,0.001000
1017.865385,0.024640,0.001000,0.001000,0.001000,0.001000,0.001000
1017.884615,0.023628,0.001000,0.001000,0.001000,0.001000,0.001000
1017.903846,0.022603,0.001000,0.001000,0.001000,0.001000,0.001000
1017.923077,0.021566,0.001000,0.001000,0.001000,0.001000,0.001000
1017.942308,0.020518,0.001000,0.001000,0.001000,0.001000,0.001000
1017.961538,0.019458,0.001000,0.001000,0.001000,0.001000,0.001000
1017.980769,0.018389,0.001000,0.001000,0.001000,0.001000,0.001000
1018.000000,0.017309,0.001000,0.001000,0.001000,0.001000,0.001000
1018.019231,0.016220,0.001000,0.001000,0.001000,0.001000,0.001000
1018.038462,0.015122,0.001000,0.001000,0.001000,0.001000,0.001000
1018.057692,0.014017,0.001000,0.001000,0.001000,0.001000,0.001000
1018.076923,0.012904,0.001000,0.001000,0.001000,0.001000,0.001000
1018.096154,0.011784,0.001000,0.001000,0.001000,0.001000,0.001000
1018.115385,0.010657,0.001000,0.001000,0.001000,0.001000,0.001000
1018.134615,0.009525,0.001000,0.001000,0.001000,0.001000,0.001000
1018.153846,0.008388,0.001000,0.001000,0.001000,0.001000,0.001000
1018.173077,0.007246,0.001000,0.001000,0.001000,0.001000,0.001000
1018.192308,0.006101,0.001000,0.001000,0.001000,0.001000,0.001000
1018.211538,0.004952,0.001000,0.001000,0.001000,0.001000,0.001000
1018.230769,0.003801,0.001000,0.001000,0.001000,0.001000,0.001000
1018.250000,0.002647,0.001000,0.001000,0.001000,0.001000,0.001000
1018.269231,0.001492,0.001000,0.001000,0.001000,0.001000,0.001000
1018.288462,0.000337,0.001000,0.001000,0.001000,0.001000,0.001000
1018.307692,-0.000819,0.001000,0.001000,0.001000,0.001000,0.001000
1018.326923,-0.001974,0.001000,0.001000,0.001000,0.001000,0.001000
1018.346154,-0.003129,0.001000,0.001000,0.001000,0.001000,0.001000
1018.365385,-0.004281,0.001000,0.001000,0.001000,0.001000,0.001000
1018.384615,-0.005432,0.001000,0.001000,0.001000,0.001000,0.001000
1018.403846,-0.006579,0.001000,0.001000,0.001000,0.001000,0.001000
1018.423077,-0.007723,0.001000,0.001000,0.001000,0.001000,0.001000
1018.442308,-0.008863,0.001000,0.001000,0.001000,0.001000,0.001000
1018.461538,-0.009998,0.001000,0.001000,0.001000,0.001000,0.001000
1018.480769,-0.011128,0.001000,0.001000,0.001000,0.001000,0.001000
1018.500000,-0.012252,0.001000,0.001000,0.001000,0.001000,0.001000
1018.519231,-0.013369,0.001000,0.001000,0.001000,0.001000,0.001000
1018.538462,-0.014479,0.001000,0.001000,0.001000,0.001000,0.001000
1018.557692,-0.015581,0.001000,0.001000,0.001000,0.001000,0.001000
1018.576923,-0.016675,0.001000,0.001000,0.001000,0.001000,0.001000
1018.596154,-0.017760,0.001000,0.001000,0.001000,0.001000,0.001000
1018.615385,-0.018836,0.001000,0.001000,0.001000,0.001000,0.001000
1018.634615,-0.019902,0.001000,0.001000,0.001000,0.001000,0.001000
1018.653846,-0.020957,0.001000,0.001000,0.001000,0.001000,0.001000
1018.673077,-0.022000,0.001000,0.001000,0.001000,0.001000,0.001000
1018.692308,-0.023032,0.001000,0.001000,0.001000,0.001000,0.001000
1018.711538,-0.024052,0.001000,0.001000,0.001000,0.001000,0.001000
1018.730769,-0.025059,0.001000,0.001000,0.001000,0.001000,0.001000
1018.750000,-0.026052,0.001000,0.001000,0.001000,0.001000,0.001000
1018.769231,-0.027032,0.001000,0.001000,0.001000,0.001000,0.001000
1018.788462,-0.027997,0.001000,0.001000,0.001000,0.001000,0.001000
1018.807692,-0.028947,0.001000,0.001000,0.001000,0.001000,0.001000
1018.826923,-0.029882,0.001000,0.001000,0.001000,0.001000,0.001000
1018.846154,-0.030800,0.001000,0.001000,0.001000,0.001000,0.001000
1018.865385,-0.031702,0.001000,0.001000,0.001000,0.001000,0.001000
1018.884615,-0.032588,0.001000,0.001000,0.001000,0.001000,0.001000
1018.903846,-0.033456,0.001000,0.001000,0.001000,0.001000,0.001000
1018.923077,-0.034306,0.001000,0.001000,0.001000,0.001000,0.001000
1018.942308,-0.035137,0.001000,0.001000,0.001000,0.001000,0.001000
1018.961538,-0.035950,0.001000,0.001000,0.001000,0.001000,0.001000
1018.980769,-0.036744,0.001000,0.001000,0.001000,0.001000,0.001000
1019.000000,-0.037518,0.001000,0.001000,0.001000,0.001000,0.001000
1019.019231,-0.038272,0.001000,0.001000,0.001000,0.001000,0.001000
1019.038462,-0.039005,0.001000,0.001000,0.001000,0.001000,0.001000
1019.057692,-0.039718,0.001000,0.001000,0.001000,0.001000,0.001000
1019.076923,-0.040409,0.001000,0.001000,0.001000,0.001000,0.001000
1019.096154,-0.041079,0.001000,0.001000,0.001000,0.001000,0.001000
1019.115385,-0.041727,0.001000,0.001000,0.001000,0.001000,0.001000
1019.134615,-0.042353,0.001000,0.001000,0.001000,0.001000,0.001000
1019.153846,-0.042956,0.001000,0.001000,0.001000,0.001000,0.001000
1019.173077,-0.043536,0.001000,0.001000,0.001000,0.001000,0.001000
1019.192308,-0.044092,0.001000,0.001000,0.001000,0.001000,0.001000
1019.211538,-0.044626,0.001000,0.001000,0.001000,0.001000,0.001000
1019.230769,-0.045135,0.001000,0.001000,0.001000,0.001000,0.001000
1019.250000,-0.045620,0.001000,0.001000,0.001000,0.001000,0.001000
1019.269231,-0.046081,0.001000,0.001000,0.001000,0.001000,0.001000
1019.288462,-0.046517,0.001000,0.001000,0.001000,0.001000,0.001000
1019.307692,-0.046929,0.001000,0.001000,0.001000,0.001000,0.001000
1019.326923,-0.047315,0.001000,0.001000,0.001000,0.001000,0.001000
1019.346154,-0.047676,0.001000,0.001000,0.001000,0.001000,0.001000
1019.365385,-0.048011,0.001000,0.001000,0.001000,0.001000,0.001000
1019.384615,-0.048321,0.001000,0.001000,0.001000,0.001000,0.001000
1019.403846,-0.048605,0.001000,0.001000,0.001000,0.001000,0.001000
1019.423077,-0.048863,0.001000,0.001000,0.001000,0.001000,0.001000
1019.442308,-0.049095,0.001000,0.001000,0.001000,0.001000,0.001000
1019.461538,-0.049301,0.001000,0.001000,0.001000,0.001000,0.001000
1019.480769,-0.049481,0.001000,0.001000,0.001000,0.001000,0.001000
1019.500000,-0.049633,0.001000,0.001000,0.001000,0.001000,0.001000
1019.519231,-0.049760,0.001000,0.001000,0.001000,0.001000,0.001000
1019.538462,-0.049860,0.001000,0.001000,0.001000,0.001000,0.001000
1019.557692,-0.049933,0.001000,0.001000,0.001000,0.001000,0.001000
1019.576923,-0.049979,0.001000,0.001000,0.001000,0.001000,0.001000
1019.596154,-0.049999,0.001000,0.001000,0.001000,0.001000,0.001000
1019.615385,-0.049992,0.001000,0.001000,0.001000,0.001000,0.001000
1019.634615,-0.049959,0.001000,0.001000,0.001000,0.001000,0.001000
1019.653846,-0.049898,0.001000,0.001000,0.001000,0.001000,0.001000
1019.673077,-0.049811,0.001000,0.001000,0.001000,0.001000,0.001000
1019.692308,-0.049698,0.001000,0.001000,0.001000,0.001000,0.001000
1019.711538,-0.049558,0.001000,0.001000,0.001000,0.001000,0.001000
1019.730769,-0.049391,0.001000,0.001000,0.001000,0.001000,0.001000
1019.750000,-0.049198,0.001000,0.001000,0.001000,0.001000,0.001000
1019.769231,-0.048978,0.001000,0.001000,0.001000,0.001000,0.001000
1019.788462,-0.048733,0.001000,0.001000,0.001000,0.001000,0.001000
1019.807692,-0.048461,0.001000,0.001000,0.001000,0.001000,0.001000
1019.826923,-0.048164,0.001000,0.001000,0.001000,0.001000,0.001000
1019.846154,-0.047841,0.001000,0.001000,0.001000,0.001000,0.001000
1019.865385,-0.047492,0.001000,0.001000,0.001000,0.001000,0.001000
1019.884615,-0.047118,0.001000,0.001000,0.001000,0.001000,0.001000
1019.903846,-0.046719,0.001000,0.001000,0.001000,0.001000,0.001000
1019.923077,-0.046294,0.001000,0.001000,0.001000,0.001000,0.001000
1019.942308,-0.045845,0.001000,0.001000,0.001000,0.001000,0.001000
1019.961538,-0.045372,0.001000,0.001000,0.001000,0.001000,0.001000
1019.980769,-0.044874,0.001000,0.001000,0.001000,0.001000,0.001000
1020.000000,-0.044352,0.001000,0.001000,0.001000,0.001000,0.001000
1020.019231,-0.043807,0.001000,0.001000,0.001000,0.001000,0.001000
1020.038462,-0.043238,0.001000,0.001000,0.001000,0.001000,0.001000
1020.057692,-0.042646,0.001000,0.001000,0.001000,0.001000,0.001000
1020.076923,-0.042031,0.001000,0.001000,0.001000,0.001000,0.001000
1020.096154,-0.041394,0.001000,0.001000,0.001000,0.001000,0.001000
1020.115385,-0.040735,0.001000,0.001000,0.001000,0.001000,0.001000
1020.134615,-0.040054,0.001000,0.001000,0.001000,0.001000,0.001000
1020.153846,-0.039351,0.001000,0.001000,0.001000,0.001000,0.001000
1020.173077,-0.038628,0.001000,0.001000,0.001000,0.001000,0.001000
1020.192308,-0.037883,0.001000,0.001000,0.001000,0.001000,0.001000
1020.211538,-0.037119,0.001000,0.001000,0.001000,0.001000,0.001000
1020.230769,-0.036335,0.001000,0.001000,0.001000,0.001000,0.001000
1020.250000,-0.035531,0.001000,0.001000,0.001000,0.001000,0.001000
1020.269231,-0.034708,0.001000,0.001000,0.001000,0.001000,0.001000
1020.288462,-0.033867,0.001000,0.001000,0.001000,0.001000,0.001000
1020.307692,-0.033008,0.001000,0.001000,0.001000,0.001000,0.001000
1020.326923,-0.032131,0.001000,0.001000,0.001000,0.001000,0.001000
1020.346154,-0.031237,0.001000,0.001000,0.001000,0.001000,0.001000
1020.365385,-0.030326,0.001000,0.001000,0.001000,0.001000,0.001000
1020.384615,-0.029399,0.001000,0.001000,0.001000,0.001000,0.001000
1020.403846,-0.028456,0.001000,0.001000,0.001000,0.001000,0.001000
1020.423077,-0.027498,0.001000,0.001000,0.001000,0.001000,0.001000
1020.442308,-0.026526,0.001000,0.001000,0.001000,0.001000,0.001000
1020.461538,-0.025539,0.001000,0.001000,0.001000,0.001000,0.001000
1020.480769,-0.024539,0.001000,0.001000,0.001000,0.001000,0.001000
1020.500000,-0.023525,0.001000,0.001000,0.001000,0.001000,0.001000
1020.519231,-0.022499,0.001000,0.001000,0.001000,0.001000,0.001000
1020.538462,-0.021461,0.001000,0.001000,0.001000,0.001000,0.001000
1020.557692,-0.020411,0.001000,0.001000,0.001000,0.001000,0.001000
1020.576923,-0.019351,0.001000,0.001000,0.001000,0.001000,0.001000
1020.596154,-0.018280,0.001000,0.001000,0.001000,0.001000,0.001000
1020.615385,-0.017199,0.001000,0.001000,0.001000,0.001000,0.001000
1020.634615,-0.016109,0.001000,0.001000,0.001000,0.001000,0.001000
1020.653846,-0.015011,0.001000,0.001000,0.001000,0.001000,0.001000
1020.673077,-0.013904,0.001000,0.001000,0.001000,0.001000,0.001000
1020.692308,-0.012791,0.001000,0.001000,0.001000,0.001000,0.001000
1020.711538,-0.011670,0.001000,0.001000,0.001000,0.001000,0.001000
1020.730769,-0.010543,0.001000,0.001000,0.001000,0.001000,0.001000
1020.750000,-0.009410,0.001000,0.001000,0.001000,0.001000,0.001000
1020.769231,-0.008273,0.001000,0.001000,0.001000,0.001000,0.001000
1020.788462,-0.007131,0.001000,0.001000,0.001000,0.001000,0.001000
1020.807692,-0.005985,0.001000,0.001000,0.001000,0.001000,0.001000
1020.826923,-0.004836,0.001000,0.001000,0.001000,0.001000,0.001000
1020.846154,-0.003684,0.001000,0.001000,0.001000,0.001000,0.001000
1020.865385,-0.002530,0.001000,0.001000,0.001000,0.001000,0.001000
1020.884615,-0.001376,0.001000,0.001000,0.001000,0.001000,0.001000
1020.903846,-0.000220,0.001000,0.001000,0.001000,0.001000,0.001000
1020.923077,0.000936,0.001000,0.001000,0.001000,0.001000,0.001000
1020.942308,0.002091,0.001000,0.001000,0.001000,0.001000,0.001000
1020.961538,0.003245,0.001000,0.001000,0.001000,0.001000,0.001000
1020.980769,0.004398,0.001000,0.001000,0.001000,0.001000,0.001000
1021.000000,0.005548,0.001000,0.001000,0.001000,0.001000,0.001000
1021.019231,0.006695,0.001000,0.001000,0.001000,0.001000,0.001000
1021.038462,0.007839,0.001000,0.001000,0.001000,0.001000,0.001000
1021.057692,0.008978,0.001000,0.001000,0.001000,0.001000,0.001000
1021.076923,0.010113,0.001000,0.001000,0.001000,0.001000,0.001000
1021.096154,0.011242,0.001000,0.001000,0.001000,0.001000,0.001000
1021.115385,0.012365,0.001000,0.001000,0.001000,0.001000,0.001000
1021.134615,0.013481,0.001000,0.001000,0.001000,0.001000,0.001000
1021.153846,0.014591,0.001000,0.001000,0.001000,0.001000,0.001000
1021.173077,0.015692,0.001000,0.001000,0.001000,0.001000,0.001000
1021.192308,0.016786,0.001000,0.001000,0.001000,0.001000,0.001000
1021.211538,0.017870,0.001000,0.001000,0.001000,0.001000,0.001000
1021.230769,0.018944,0.001000,0.001000,0.001000,0.001000,0.001000
1021.250000,0.020009,0.001000,0.001000,0.001000,0.001000,0.001000
1021.269231,0.021063,0.001000,0.001000,0.001000,0.001000,0.001000
1021.288462,0.022105,0.001000,0.001000,0.001000,0.001000,0.001000
1021.307692,0.023136,0.001000,0.001000,0.001000,0.001000,0.001000
1021.326923,0.024154,0.001000,0.001000,0.001000,0.001000,0.001000
1021.346154,0.025160,0.001000,0.001000,0.001000,0.001000,0.001000
1021.365385,0.026152,0.001000,0.001000,0.001000,0.001000,0.001000
1021.384615,0.027130,0.001000,0.001000,0.001000,0.001000,0.001000
1021.403846,0.028094,0.001000,0.001000,0.001000,0.001000,0.001000
1021.423077,0.029042,0.001000,0.001000,0.001000,0.001000,0.001000
1021.442308,0.029975,0.001000,0.001000,0.001000,0.001000,0.001000
1021.461538,0.030892,0.001000,0.001000,0.001000,0.001000,0.001000
1021.480769,0.031793,0.001000,0.001000,0.001000,0.001000,0.001000
1021.500000,0.032676,0.001000,0.001000,0.001000,0.001000,0.001000
1021.519231,0.033542,0.001000,0.001000,0.001000,0.001000,0.001000
1021.538462,0.034391,0.001000,0.001000,0.001000,0.001000,0.001000
1021.557692,0.035220,0.001000,0.001000,0.001000,0.001000,0.001000
1021.576923,0.036031,0.001000,0.001000,0.001000,0.001000,0.001000
1021.596154,0.036823,0.001000,0.001000,0.001000,0.001000,0.001000
1021.615385,0.037595,0.001000,0.001000,0.001000,0.001000,0.001000
1021.634615,0.038347,0.001000,0.001000,0.001000,0.001000,0.001000
1021.653846,0.039078,0.001000,0.001000,0.001000,0.001000,0.001000
1021.673077,0.039789,0.001000,0.001000,0.001000,0.001000,0.001000
1021.692308,0.040478,0.001000,0.001000,0.001000,0.001000,0.001000
1021.711538,0.041146,0.001000,0.001000,0.001000,0.001000,0.001000
1021.730769,0.041791,0.001000,0.001000,0.001000,0.001000,0.001000
1021.750000,0.042415,0.001000,0.001000,0.001000,0.001000,0.001000
1021.769231,0.043015,0.001000,0.001000,0.001000,0.001000,0.001000
1021.788462,0.043593,0.001000,0.001000,0.001000,0.001000,0.001000
1021.807692,0.044147,0.001000,0.001000,0.001000,0.001000,0.001000
1021.826923,0.044678,0.001000,0.001000,0.001000,0.001000,0.001000
1021.846154,0.045185,0.001000,0.001000,0.001000,0.001000,0.001000
1021.865385,0.045668,0.001000,0.001000,0.001000,0.001000,0.001000
1021.884615,0.046126,0.001000,0.001000,0.001000,0.001000,0.001000
1021.903846,0.046560,0.001000,0.001000,0.001000,0.001000,0.001000
1021.923077,0.046969,0.001000,0.001000,0.001000,0.001000,0.001000
1021.942308,0.047353,0.001000,0.001000,0.001000,0.001000,0.001000
1021.961538,0.047711,0.001000,0.001000,0.001000,0.001000,0.001000
1021.980769,0.048044,0.001000,0.001000,0.001000,0.001000,0.001000
1022.000000,0.048351,0.001000,0.001000,0.001000,0.001000,0.001000
1022.019231,0.048633,0.001000,0.001000,0.001000,0.001000,0.001000
1022.038462,0.048888,0.001000,0.001000,0.001000,0.001000,0.001000
1022.057692,0.049117,0.001000,0.001000,0.001000,0.001000,0.001000
1022.076923,0.049321,0.001000,0.001000,0.001000,0.001000,0.001000
1022.096154,0.049497,0.001000,0.001000,0.001000,0.001000,0.001000
1022.115385,0.049648,0.001000,0.001000,0.001000,0.001000,0.001000
1022.134615,0.049771,0.001000,0.001000,0.001000,0.001000,0.001000
1022.153846,0.049868,0.001000,0.001000,0.001000,0.001000,0.001000
1022.173077,0.049939,0.001000,0.001000,0.001000,0.001000,0.001000
1022.192308,0.049983,0.001000,0.001000,0.001000,0.001000,0.001000
1022.211538,0.050000,0.001000,0.001000,0.001000,0.001000,0.001000
1022.230769,0.049990,0.001000,0.001000,0.001000,0.001000,0.001000
1022.250000,0.049954,0.001000,0.001000,0.001000,0.001000,0.001000
1022.269231,0.049891,0.001000,0.001000,0.001000,0.001000,0.001000
1022.288462,0.049801,0.001000,0.001000,0.001000,0.001000,0.001000
1022.307692,0.049685,0.001000,0.001000,0.001000,0.001000,0.001000
1022.326923,0.049542,0.001000,0.001000,0.001000,0.001000,0.001000
1022.346154,0.049373,0.001000,0.001000,0.001000,0.001000,0.001000
1022.365385,0.049177,0.001000,0.001000,0.001000,0.001000,0.001000
1022.384615,0.048955,0.001000,0.001000,0.001000,0.001000,0.001000
1022.403846,0.048707,0.001000,0.001000,0.001000,0.001000,0.001000
1022.423077,0.048432,0.001000,0.001000,0.001000,0.001000,0.001000
1022.442308,0.048132,0.001000,0.001000,0.001000,0.001000,0.001000
1022.461538,0.047807,0.001000,0.001000,0.001000,0.001000,0.001000
1022.480769,0.047455,0.001000,0.001000,0.001000,0.001000,0.001000
1022.500000,0.047079,0.001000,0.001000,0.001000,0.001000,0.001000
1022.519231,0.046677,0.001000,0.001000,0.001000,0.001000,0.001000
1022.538462,0.046250,0.001000,0.001000,0.001000,0.001000,0.001000
1022.557692,0.045798,0.001000,0.001000,0.001000,0.001000,0.001000
1022.576923,0.045322,0.001000,0.001000,0.001000,0.001000,0.001000
1022.596154,0.044822,0.001000,0.001000,0.001000,0.001000,0.001000
1022.615385,0.044298,0.001000,0.001000,0.001000,0.001000,0.001000
1022.634615,0.043750,0.001000,0.001000,0.001000,0.001000,0.001000
1022.653846,0.043179,0.001000,0.001000,0.001000,0.001000,0.001000
1022.673077,0.042585,0.001000,0.001000,0.001000,0.001000,0.001000
1022.692308,0.041968,0.001000,0.001000,0.001000,0.001000,0.001000
1022.711538,0.041328,0.001000,0.001000,0.001000,0.001000,0.001000
1022.730769,0.040667,0.001000,0.001000,0.001000,0.001000,0.001000
1022.750000,0.039983,0.001000,0.001000,0.001000,0.001000,0.001000
1022.769231,0.039279,0.001000,0.001000,0.001000,0.001000,0.001000
1022.788462,0.038553,0.001000,0.001000,0.001000,0.001000,0.001000
1022.807692,0.037807,0.001000,0.001000,0.001000,0.001000,0.001000
1022.826923,0.037040,0.001000,0.001000,0.001000,0.001000,0.001000
1022.846154,0.036254,0.001000,0.001000,0.001000,0.001000,0.001000
1022.865385,0.035449,0.001000,0.001000,0.001000,0.001000,0.001000
1022.884615,0.034624,0.001000,0.001000,0.001000,0.001000,0.001000
1022.903846,0.033781,0.001000,0.001000,0.001000,0.001000,0.001000
1022.923077,0.032920,0.001000,0.001000,0.001000,0.001000,0.001000
1022.942308,0.032041,0.001000,0.001000,0.001000,0.001000,0.001000
1022.961538,0.031145,0.001000,0.001000,0.001000,0.001000,0.001000
1022.980769,0.030233,0.001000,0.001000,0.001000,0.001000,0.001000
1023.000000,0.029304,0.001000,0.001000,0.001000,0.001000,0.001000
1023.019231,0.028360,0.001000,0.001000,0.001000,0.001000,0.001000
1023.038462,0.027401,0.001000,0.001000,0.001000,0.001000,0.001000
1023.057692,0.026427,0.001000,0.001000,0.001000,0.001000,0.001000
1023.076923,0.025438,0.001000,0.001000,0.001000,0.001000,0.001000
1023.096154,0.024437,0.001000,0.001000,0.001000,0.001000,0.001000
1023.115385,0.023422,0.001000,0.001000,0.001000,0.001000,0.001000
1023.134615,0.022394,0.001000,0.001000,0.001000,0.001000,0.001000
1023.153846,0.021355,0.001000,0.001000,0.001000,0.001000,0.001000
1023.173077,0.020304,0.001000,0.001000,0.001000,0.001000,0.001000
1023.192308,0.019243,0.001000,0.001000,0.001000,0.001000,0.001000
1023.211538,0.018171,0.001000,0.001000,0.001000,0.001000,0.001000
1023.230769,0.017089,0.001000,0.001000,0.001000,0.001000,0.001000
1023.250000,0.015998,0.001000,0.001000,0.001000,0.001000,0.001000
1023.269231,0.014899,0.001000,0.001000,0.001000,0.001000,0.001000
1023.288462,0.013792,0.001000,0.001000,0.001000,0.001000,0.001000
1023.307692,0.012677,0.001000,0.001000,0.001000,0.001000,0.001000
1023.326923,0.011556,0.001000,0.001000,0.001000,0.001000,0.001000
1023.346154,0.010428,0.001000,0.001000,0.001000,0.001000,0.001000
1023.365385,0.009295,0.001000,0.001000,0.001000,0.001000,0.001000
1023.384615,0.008157,0.001000,0.001000,0.001000,0.001000,0.001000
1023.403846,0.007015,0.001000,0.001000,0.001000,0.001000,0.001000
1023.423077,0.005869,0.001000,0.001000,0.001000,0.001000,0.001000
1023.442308,0.004719,0.001000,0.001000,0.001000,0.001000,0.001000
1023.461538,0.003567,0.001000,0.001000,0.001000,0.001000,0.001000
1023.480769,0.002414,0.001000,0.001000,0.001000,0.001000,0.001000
1023.500000,0.001259,0.001000,0.001000,0.001000,0.001000,0.001000
1023.519231,0.000103,0.001000,0.001000,0.001000,0.001000,0.001000
1023.538462,-0.001053,0.001000,0.001000,0.001000,0.001000,0.001000
1023.557692,-0.002208,0.001000,0.001000,0.001000,0.001000,0.001000
1023.576923,-0.003362,0.001000,0.001000,0.001000,0.001000,0.001000
1023.596154,-0.004514,0.001000,0.001000,0.001000,0.001000,0.001000
1023.615385,-0.005664,0.001000,0.001000,0.001000,0.001000,0.001000
1023.634615,-0.006811,0.001000,0.001000,0.001000,0.001000,0.001000
1023.653846,-0.007954,0.001000,0.001000,0.001000,0.001000,0.001000
1023.673077,-0.009093,0.001000,0.001000,0.001000,0.001000,0.001000
1023.692308,-0.010227,0.001000,0.001000,0.001000,0.001000,0.001000
1023.711538,-0.011356,0.001000,0.001000,0.001000,0.001000,0.001000
1023.730769,-0.012478,0.001000,0.001000,0.001000,0.001000,0.001000
1023.750000,-0.013594,0.001000,0.001000,0.001000,0.001000,0.001000
1023.769231,-0.014703,0.001000,0.001000,0.001000,0.001000,0.001000
1023.788462,-0.015803,0.001000,0.001000,0.001000,0.001000,0.001000
1023.807692,-0.016896,0.001000,0.001000,0.001000,0.001000,0.001000
1023.826923,-0.017979,0.001000,0.001000,0.001000,0.001000,0.001000
1023.846154,-0.019053,0.001000,0.001000,0.001000,0.001000,0.001000
1023.865385,-0.020116,0.001000,0.001000,0.001000,0.001000,0.001000
1023.884615,-0.021169,0.001000,0.001000,0.001000,0.001000,0.001000
1023.903846,-0.022210,0.001000,0.001000,0.001000,0.001000,0.001000
1023.923077,-0.023240,0.001000,0.001000,0.001000,0.001000,0.001000
1023.942308,-0.024257,0.001000,0.001000,0.001000,0.001000,0.001000
1023.961538,-0.025261,0.001000,0.001000,0.001000,0.001000,0.001000
1023.980769,-0.026252,0.001000,0.001000,0.001000,0.001000,0.001000
1024.000000,-0.027228,0.001000,0.001000,0.001000,0.001000,0.001000
1024.019231,-0.028190,0.001000,0.001000,0.001000,0.001000,0.001000
1024.038462,-0.029137,0.001000,0.001000,0.001000,0.001000,0.001000
1024.057692,-0.030069,0.001000,0.001000,0.001000,0.001000,0.001000
1024.076923,-0.030984,0.001000,0.001000,0.001000,0.001000,0.001000
1024.096154,-0.031883,0.001000,0.001000,0.001000,0.001000,0.001000
1024.115385,-0.032765,0.001000,0.001000,0.001000,0.001000,0.001000
1024.134615,-0.033629,0.001000,0.001000,0.001000,0.001000,0.001000
1024.153846,-0.034475,0.001000,0.001000,0.001000,0.001000,0.001000
1024.173077,-0.035303,0.001000,0.001000,0.001000,0.001000,0.001000
1024.192308,-0.036112,0.001000,0.001000,0.001000,0.001000,0.001000
1024.211538,-0.036902,0.001000,0.001000,0.001000,0.001000,0.001000
1024.230769,-0.037672,0.001000,0.001000,0.001000,0.001000,0.001000
1024.250000,-0.038422,0.001000,0.001000,0.001000,0.001000,0.001000
1024.269231,-0.039151,0.001000,0.001000,0.001000,0.001000,0.001000
1024.288462,-0.039860,0.001000,0.001000,0.001000,0.001000,0.001000
1024.307692,-0.040547,0.001000,0.001000,0.001000,0.001000,0.001000
1024.326923,-0.041212,0.001000,0.001000,0.001000,0.001000,0.001000
1024.346154,-0.041856,0.001000,0.001000,0.001000,0.001000,0.001000
1024.365385,-0.042477,0.001000,0.001000,0.001000,0.001000,0.001000
1024.384615,-0.043075,0.001000,0.001000,0.001000,0.001000,0.001000
1024.403846,-0.043650,0.001000,0.001000,0.001000,0.001000,0.001000
1024.423077,-0.044202,0.001000,0.001000,0.001000,0.001000,0.001000
1024.442308,-0.044731,0.001000,0.001000,0.001000,0.001000,0.001000
1024.461538,-0.045235,0.001000,0.001000,0.001000,0.001000,0.001000
1024.480769,-0.045715,0.001000,0.001000,0.001000,0.001000,0.001000
1024.500000,-0.046171,0.001000,0.001000,0.001000,0.001000,0.001000
1024.519231,-0.046603,0.001000,0.001000,0.001000,0.001000,0.001000
1024.538462,-0.047009,0.001000,0.001000,0.001000,0.001000,0.001000
1024.557692,-0.047390,0.001000,0.001000,0.001000,0.001000,0.001000
1024.576923,-0.047746,0.001000,0.001000,0.001000,0.001000,0.001000
1024.596154,-0.048076,0.001000,0.001000,0.001000,0.001000,0.001000
1024.615385,-0.048381,0.001000,0.001000,0.001000,0.001000,0.001000
1024.634615,-0.048660,0.001000,0.001000,0.001000,0.001000,0.001000
1024.653846,-0.048913,0.001000,0.001000,0.001000,0.001000,0.001000
1024.673077,-0.049139,0.001000,0.001000,0.001000,0.001000,0.001000
1024.692308,-0.049340,0.001000,0.001000,0.001000,0.001000,0.001000
1024.711538,-0.049514,0.001000,0.001000,0.001000,0.001000,0.001000
1024.730769,-0.049661,0.001000,0.001000,0.001000,0.001000,0.001000
1024.750000,-0.049782,0.001000,0.001000,0.001000,0.001000,0.001000
1024.769231,-0.049877,0.001000,0.001000,0.001000,0.001000,0.001000
1024.788462,-0.049944,0.001000,0.001000,0.001000,0.001000,0.001000
1024.807692,-0.049986,0.001000,0.001000,0.001000,0.001000,0.001000
1024.826923,-0.050000,0.001000,0.001000,0.001000,0.001000,0.001000
1024.846154,-0.049988,0.001000,0.001000,0.001000,0.001000,0.001000
1024.865385,-0.049949,0.001000,0.001000,0.001000,0.001000,0.001000
1024.884615,-0.049883,0.001000,0.001000,0.001000,0.001000,0.001000
1024.903846,-0.049790,0.001000,0.001000,0.001000,0.001000,0.001000
1024.923077,-0.049671,0.001000,0.001000,0.001000,0.001000,0.001000
1024.942308,-0.049526,0.001000,0.001000,0.001000,0.001000,0.001000
1024.961538,-0.049354,0.001000,0.001000,0.001000,0.001000,0.001000
1024.980769,-0.049156,0.001000,0.001000,0.001000,0.001000,0.001000
1025.000000,-0.048931,0.001000,0.001000,0.001000,0.001000,0.001000
1025.019231,-0.048680,0.001000,0.001000,0.001000,0.001000,0.001000
1025.038462,-0.048403,0.001000,0.001000,0.001000,0.001000,0.001000
1025.057692,-0.048101,0.001000,0.001000,0.001000,0.001000,0.001000
1025.076923,-0.047772,0.001000,0.001000,0.001000,0.001000,0.001000
1025.096154,-0.047418,0.001000,0.001000,0.001000,0.001000,0.001000
1025.115385,-0.047039,0.001000,0.001000,0.001000,0.001000,0.001000
1025.134615,-0.046635,0.001000,0.001000,0.001000,0.001000,0.001000
1025.153846,-0.046205,0.001000,0.001000,0.001000,0.001000,0.001000
1025.173077,-0.045751,0.001000,0.001000,0.001000,0.001000,0.001000
1025.192308,-0.045273,0.001000,0.001000,0.001000,0.001000,0.001000
1025.211538,-0.044770,0.001000,0.001000,0.001000,0.001000,0.001000
1025.230769,-0.044244,0.001000,0.001000,0.001000,0.001000,0.001000
1025.250000,-0.043693,0.001000,0.001000,0.001000,0.001000,0.001000
1025.269231,-0.043120,0.001000,0.001000,0.001000,0.001000,0.001000
1025.288462,-0.042523,0.001000,0.001000,0.001000,0.001000,0.001000
1025.307692,-0.041904,0.001000,0.001000,0.001000,0.001000,0.001000
1025.326923,-0.041262,0.001000,0.001000,0.001000,0.001000,0.001000
1025.346154,-0.040599,0.001000,0.001000,0.001000,0.001000,0.001000
1025.365385,-0.039913,0.001000,0.001000,0.001000,0.001000,0.001000
1025.384615,-0.039206,0.001000,0.001000,0.001000,0.001000,0.001000
1025.403846,-0.038479,0.001000,0.001000,0.001000,0.001000,0.001000
1025.423077,-0.037730,0.001000,0.001000,0.001000,0.001000,0.001000
1025.442308,-0.036962,0.001000,0.001000,0.001000,0.001000,0.001000
1025.461538,-0.036174,0.001000,0.001000,0.001000,0.001000,0.001000
1025.480769,-0.035366,0.001000,0.001000,0.001000,0.001000,0.001000
1025.500000,-0.034540,0.001000,0.001000,0.001000,0.001000,0.001000
1025.519231,-0.033695,0.001000,0.001000,0.001000,0.001000,0.001000
1025.538462,-0.032832,0.001000,0.001000,0.001000,0.001000,0.001000
1025.557692,-0.031951,0.001000,0.001000,0.001000,0.001000,0.001000
1025.576923,-0.031054,0.001000,0.001000,0.001000,0.001000,0.001000
1025.596154,-0.030140,0.001000,0.001000,0.001000,0.001000,0.001000
1025.615385,-0.029209,0.001000,0.001000,0.001000,0.001000,0.001000
1025.634615,-0.028264,0.001000,0.001000,0.001000,0.001000,0.001000
1025.653846,-0.027303,0.001000,0.001000,0.001000,0.001000,0.001000
1025.673077,-0.026327,0.001000,0.001000,0.001000,0.001000,0.001000
1025.692308,-0.025338,0.001000,0.001000,0.001000,0.001000,0.001000
1025.711538,-0.024334,0.001000,0.001000,0.001000,0.001000,0.001000
1025.730769,-0.023318,0.001000,0.001000,0.001000,0.001000,0.001000
1025.750000,-0.022290,0.001000,0.001000,0.001000,0.001000,0.001000
1025.769231,-0.021249,0.001000,0.001000,0.001000,0.001000,0.001000
1025.788462,-0.020197,0.001000,0.001000,0.001000,0.001000,0.001000
1025.807692,-0.019135,0.001000,0.001000,0.001000,0.001000,0.001000
1025.826923,-0.018062,0.001000,0.001000,0.001000,0.001000,0.001000
1025.846154,-0.016979,0.001000,0.001000,0.001000,0.001000,0.001000
1025.865385,-0.015888,0.001000,0.001000,0.001000,0.001000,0.001000
1025.884615,-0.014787,0.001000,0.001000,0.001000,0.001000,0.001000
1025.903846,-0.013679,0.001000,0.001000,0.001000,0.001000,0.001000
1025.923077,-0.012564,0.001000,0.001000,0.001000,0.001000,0.001000
1025.942308,-0.011442,0.001000,0.001000,0.001000,0.001000,0.001000
1025.961538,-0.010314,0.001000,0.001000,0.001000,0.001000,0.001000
1025.980769,-0.009180,0.001000,0.001000,0.001000,0.001000,0.001000
1026.000000,-0.008042,0.001000,0.001000,0.001000,0.001000,0.001000
1026.019231,-0.006899,0.001000,0.001000,0.001000,0.001000,0.001000
1026.038462,-0.005752,0.001000,0.001000,0.001000,0.001000,0.001000
1026.057692,-0.004603,0.001000,0.001000,0.001000,0.001000,0.001000
1026.076923,-0.003451,0.001000,0.001000,0.001000,0.001000,0.001000
1026.096154,-0.002297,0.001000,0.001000,0.001000,0.001000,0.001000
1026.115385,-0.001142,0.001000,0.001000,0.001000,0.001000,0.001000
1026.134615,0.000014,0.001000,0.001000,0.001000,0.001000,0.001000
1026.153846,0.001170,0.001000,0.001000,0.001000,0.001000,0.001000
1026.173077,0.002325,0.001000,0.001000,0.001000,0.001000,0.001000
1026.192308,0.003479,0.001000,0.001000,0.001000,0.001000,0.001000
1026.211538,0.004631,0.001000,0.001000,0.001000,0.001000,0.001000
1026.230769,0.005780,0.001000,0.001000,0.001000,0.001000,0.001000
1026.250000,0.006927,0.001000,0.001000,0.001000,0.001000,0.001000
1026.269231,0.008070,0.001000,0.001000,0.001000,0.001000,0.001000
1026.288462,0.009208,0.001000,0.001000,0.001000,0.001000,0.001000
1026.307692,0.010342,0.001000,0.001000,0.001000,0.001000,0.001000
1026.326923,0.011470,0.001000,0.001000,0.001000,0.001000,0.001000
1026.346154,0.012592,0.001000,0.001000,0.001000,0.001000,0.001000
1026.365385,0.013707,0.001000,0.001000,0.001000,0.001000,0.001000
1026.384615,0.014814,0.001000,0.001000,0.001000,0.001000,0.001000
1026.403846,0.015914,0.001000,0.001000,0.001000,0.001000,0.001000
1026.423077,0.017006,0.001000,0.001000,0.001000,0.001000,0.001000
1026.442308,0.018088,0.001000,0.001000,0.001000,0.001000,0.001000
1026.461538,0.019161,0.001000,0.001000,0.001000,0.001000,0.001000
1026.480769,0.020223,0.001000,0.001000,0.001000,0.001000,0.001000
1026.500000,0.021275,0.001000,0.001000,0.001000,0.001000,0.001000
1026.519231,0.022315,0.001000,0.001000,0.001000,0.001000,0.001000
1026.538462,0.023343,0.001000,0.001000,0.001000,0.001000,0.001000
1026.557692,0.024359,0.001000,0.001000,0.001000,0.001000,0.001000
1026.576923,0.025362,0.001000,0.001000,0.001000,0.001000,0.001000
1026.596154,0.026351,0.001000,0.001000,0.001000,0.001000,0.001000
1026.615385,0.027326,0.001000,0.001000,0.001000,0.001000,0.001000
1026.634615,0.028287,0.001000,0.001000,0.001000,0.001000,0.001000
1026.653846,0.029232,0.001000,0.001000,0.001000,0.001000,0.001000
1026.673077,0.030162,0.001000,0.001000,0.001000,0.001000,0.001000
1026.692308,0.031076,0.001000,0.001000,0.001000,0.001000,0.001000
1026.711538,0.031973,0.001000,0.001000,0.001000,0.001000,0.001000
1026.730769,0.032853,0.001000,0.001000,0.001000,0.001000,0.001000
1026.750000,0.033716,0.001000,0.001000,0.001000,0.001000,0.001000
1026.769231,0.034560,0.001000,0.001000,0.001000,0.001000,0.001000
1026.788462,0.035386,0.001000,0.001000,0.001000,0.001000,0.001000
1026.807692,0.036193,0.001000,0.001000,0.001000,0.001000,0.001000
1026.826923,0.036981,0.001000,0.001000,0.001000,0.001000,0.001000
1026.846154,0.037749,0.001000,0.001000,0.001000,0.001000,0.001000
1026.865385,0.038497,0.001000,0.001000,0.001000,0.001000,0.001000
1026.884615,0.039224,0.001000,0.001000,0.001000,0.001000,0.001000
1026.903846,0.039930,0.001000,0.001000,0.001000,0.001000,0.001000
1026.923077,0.040615,0.001000,0.001000,0.001000,0.001000,0.001000
1026.942308,0.041278,0.001000,0.001000,0.001000,0.001000,0.001000
1026.961538,0.041919,0.001000,0.001000,0.001000,0.001000,0.001000
1026.980769,0.042538,0.001000,0.001000,0.001000,0.001000,0.001000
1027.000000,0.043134,0.001000,0.001000,0.001000,0.001000,0.001000
1027.019231,0.043707,0.001000,0.001000,0.001000,0.001000,0.001000
1027.038462,0.044257,0.001000,0.001000,0.001000,0.001000,0.001000
1027.057692,0.044783,0.001000,0.001000,0.001000,0.001000,0.001000
1027.076923,0.045285,0.001000,0.001000,0.001000,0.001000,0.001000
1027.096154,0.045763,0.001000,0.001000,0.001000,0.001000,0.001000
1027.115385,0.046216,0.001000,0.001000,0.001000,0.001000,0.001000
1027.134615,0.046645,0.001000,0.001000,0.001000,0.001000,0.001000
1027.153846,0.047049,0.001000,0.001000,0.001000,0.001000,0.001000
1027.173077,0.047427,0.001000,0.001000,0.001000,0.001000,0.001000
1027.192308,0.047781,0.001000,0.001000,0.001000,0.001000,0.001000
1027.211538,0.048108,0.001000,0.001000,0.001000,0.001000,0.001000
1027.230769,0.048410,0.001000,0.001000,0.001000,0.001000,0.001000
1027.250000,0.048687,0.001000,0.001000,0.001000,0.001000,0.001000
1027.269231,0.048937,0.001000,0.001000,0.001000,0.001000,0.001000
1027.288462,0.049161,0.001000,0.001000,0.001000,0.001000,0.001000
1027.307692,0.049358,0.001000,0.001000,0.001000,0.001000,0.001000
1027.326923,0.049530,0.001000,0.001000,0.001000,0.001000,0.001000
1027.346154,0.049675,0.001000,0.001000,0.001000,0.001000,0.001000
1027.365385,0.049793,0.001000,0.001000,0.001000,0.001000,0.001000
1027.384615,0.049885,0.001000,0.001000,0.001000,0.001000,0.001000
1027.403846,0.049950,0.001000,0.001000,0.001000,0.001000,0.001000
1027.423077,0.049988,0.001000,0.001000,0.001000,0.001000,0.001000
1027.442308,0.050000,0.001000,0.001000,0.001000,0.001000,0.001000
1027.461538,0.049985,0.001000,0.001000,0.001000,0.001000,0.001000
1027.480769,0.049943,0.001000,0.001000,0.001000,0.001000,0.001000
1027.500000,0.049875,0.001000,0.001000,0.001000,0.001000,0.001000
1027.519231,0.049780,0.001000,0.001000,0.001000,0.001000,0.001000
1027.538462,0.049658,0.001000,0.001000,0.001000,0.001000,0.001000
1027.557692,0.049510,0.001000,0.001000,0.001000,0.001000,0.001000
1027.576923,0.049335,0.001000,0.001000,0.001000,0.001000,0.001000
1027.596154,0.049134,0.001000,0.001000,0.001000,0.001000,0.001000
1027.615385,0.048907,0.001000,0.001000,0.001000,0.001000,0.001000
1027.634615,0.048653,0.001000,0.001000,0.001000,0.001000,0.001000
1027.653846,0.048374,0.001000,0.001000,0.001000,0.001000,0.001000
1027.673077,0.048069,0.001000,0.001000,0.001000,0.001000,0.001000
1027.692308,0.047738,0.001000,0.001000,0.001000,0.001000,0.001000
1027.711538,0.047381,0.001000,0.001000,0.001000,0.001000,0.001000
1027.730769,0.046999,0.001000,0.001000,0.001000,0.001000,0.001000
1027.750000,0.046592,0.001000,0.001000,0.001000,0.001000,0.001000
1027.769231,0.046161,0.001000,0.001000,0.001000,0.001000,0.001000
1027.788462,0.045704,0.001000,0.001000,0.001000,0.001000,0.001000
1027.807692,0.045223,0.001000,0.001000,0.001000,0.001000,0.001000
1027.826923,0.044718,0.001000,0.001000,0.001000,0.001000,0.001000
1027.846154,0.044189,0.001000,0.001000,0.001000,0.001000,0.001000
1027.865385,0.043636,0.001000,0.001000,0.001000,0.001000,0.001000
1027.884615,0.043061,0.001000,0.001000,0.001000,0.001000,0.001000
1027.903846,0.042462,0.001000,0.001000,0.001000,0.001000,0.001000
1027.923077,0.041840,0.001000,0.001000,0.001000,0.001000,0.001000
1027.942308,0.041196,0.001000,0.001000,0.001000,0.001000,0.001000
1027.961538,0.040530,0.001000,0.001000,0.001000,0.001000,0.001000
1027.980769,0.039842,0.001000,0.001000,0.001000,0.001000,0.001000
1028.000000,0.039134,0.001000,0.001000,0.001000,0.001000,0.001000
1028.019231,0.038404,0.001000,0.001000,0.001000,0.001000,0.001000
1028.038462,0.037653,0.001000,0.001000,0.001000,0.001000,0.001000
1028.057692,0.036883,0.001000,0.001000,0.001000,0.001000,0.001000
1028.076923,0.036093,0.001000,0.001000,0.001000,0.001000,0.001000
1028.096154,0.035283,0.001000,0.001000,0.001000,0.001000,0.001000
1028.115385,0.034455,0.001000,0.001000,0.001000,0.001000,0.001000
1028.134615,0.033608,0.001000,0.001000,0.001000,0.001000,0.001000
1028.153846,0.032743,0.001000,0.001000,0.001000,0.001000,0.001000
1028.173077,0.031861,0.001000,0.001000,0.001000,0.001000,0.001000
1028.192308,0.030962,0.001000,0.001000,0.001000,0.001000,0.001000
1028.211538,0.030046,0.001000,0.001000,0.001000,0.001000,0.001000
1028.230769,0.029114,0.001000,0.001000,0.001000,0.001000,0.001000
1028.250000,0.028167,0.001000,0.001000,0.001000,0.001000,0.001000
1028.269231,0.027205,0.001000,0.001000,0.001000,0.001000,0.001000
1028.288462,0.026228,0.001000,0.001000,0.001000,0.001000,0.001000
1028.307692,0.025237,0.001000,0.001000,0.001000,0.001000,0.001000
1028.326923,0.024232,0.001000,0.001000,0.001000,0.001000,0.001000
1028.346154,0.023215,0.001000,0.001000,0.001000,0.001000,0.001000
1028.365385,0.022185,0.001000,0.001000,0.001000,0.001000,0.001000
1028.384615,0.021143,0.001000,0.001000,0.001000,0.001000,0.001000
1028.403846,0.020090,0.001000,0.001000,0.001000,0.001000,0.001000
1028.423077,0.019026,0.001000,0.001000,0.001000,0.001000,0.001000
1028.442308,0.017953,0.001000,0.001000,0.001000,0.001000,0.001000
1028.461538,0.016869,0.001000,0.001000,0.001000,0.001000,0.001000
1028.480769,0.015777,0.001000,0.001000,0.001000,0.001000,0.001000
1028.500000,0.014676,0.001000,0.001000,0.001000,0.001000,0.001000
1028.519231,0.013567,0.001000,0.001000,0.001000,0.001000,0.001000
1028.538462,0.012451,0.001000,0.001000,0.001000,0.001000,0.001000
1028.557692,0.011328,0.001000,0.001000,0.001000,0.001000,0.001000
1028.576923,0.010199,0.001000,0.001000,0.001000,0.001000,0.001000
1028.596154,0.009065,0.001000,0.001000,0.001000,0.001000,0.001000
1028.615385,0.007926,0.001000,0.001000,0.001000,0.001000,0.001000
1028.634615,0.006783,0.001000,0.001000,0.001000,0.001000,0.001000
1028.653846,0.005636,0.001000,0.001000,0.001000,0.001000,0.001000
1028.673077,0.004486,0.001000,0.001000,0.001000,0.001000,0.001000
1028.692308,0.003334,0.001000,0.001000,0.001000,0.001000,0.001000
1028.711538,0.002180,0.001000,0.001000,0.001000,0.001000,0.001000
1028.730769,0.001025,0.001000,0.001000,0.001000,0.001000,0.001000
1028.750000,-0.000131,0.001000,0.001000,0.001000,0.001000,0.001000
1028.769231,-0.001287,0.001000,0.001000,0.001000,0.001000,0.001000
1028.788462,-0.002442,0.001000,0.001000,0.001000,0.001000,0.001000
1028.807692,-0.003596,0.001000,0.001000,0.001000,0.001000,0.001000
1028.826923,-0.004747,0.001000,0.001000,0.001000,0.001000,0.001000
1028.846154,-0.005897,0.001000,0.001000,0.001000,0.001000,0.001000
1028.865385,-0.007043,0.001000,0.001000,0.001000,0.001000,0.001000
1028.884615,-0.008185,0.001000,0.001000,0.001000,0.001000,0.001000
1028.903846,-0.009323,0.001000,0.001000,0.001000,0.001000,0.001000
1028.923077,-0.010456,0.001000,0.001000,0.001000,0.001000,0.001000
1028.942308,-0.011584,0.001000,0.001000,0.001000,0.001000,0.001000
1028.961538,-0.012705,0.001000,0.001000,0.001000,0.001000,0.001000
1028.980769,-0.013819,0.001000,0.001000,0.001000,0.001000,0.001000
1029.000000,-0.014926,0.001000,0.001000,0.001000,0.001000,0.001000
1029.019231,-0.016025,0.001000,0.001000,0.001000,0.001000,0.001000
1029.038462,-0.017116,0.001000,0.001000,0.001000,0.001000,0.001000
1029.057692,-0.018197,0.001000,0.001000,0.001000,0.001000,0.001000
1029.076923,-0.019269,0.001000,0.001000,0.001000,0.001000,0.001000
1029.096154,-0.020330,0.001000,0.001000,0.001000,0.001000,0.001000
1029.115385,-0.021381,0.001000,0.001000,0.001000,0.001000,0.001000
1029.134615,-0.022420,0.001000,0.001000,0.001000,0.001000,0.001000
1029.153846,-0.023447,0.001000,0.001000,0.001000,0.001000,0.001000
1029.173077,-0.024461,0.001000,0.001000,0.001000,0.001000,0.001000
1029.192308,-0.025463,0.001000,0.001000,0.001000,0.001000,0.001000
1029.211538,-0.026451,0.001000,0.001000,0.001000,0.001000,0.001000
1029.230769,-0.027424,0.001000,0.001000,0.001000,0.001000,0.001000
1029.250000,-0.028383,0.001000,0.001000,0.001000,0.001000,0.001000
1029.269231,-0.029327,0.001000,0.001000,0.001000,0.001000,0.001000
1029.288462,-0.030255,0.001000,0.001000,0.001000,0.001000,0.001000
1029.307692,-0.031168,0.001000,0.001000,0.001000,0.001000,0.001000
1029.326923,-0.032063,0.001000,0.001000,0.001000,0.001000,0.001000
1029.346154,-0.032941,0.001000,0.001000,0.001000,0.001000,0.001000
1029.365385,-0.033802,0.001000,0.001000,0.001000,0.001000,0.001000
1029.384615,-0.034644,0.001000,0.001000,0.001000,0.001000,0.001000
1029.403846,-0.035469,0.001000,0.001000,0.001000,0.001000,0.001000
1029.423077,-0.036274,0.001000,0.001000,0.001000,0.001000,0.001000
1029.442308,-0.037059,0.001000,0.001000,0.001000,0.001000,0.001000
1029.461538,-0.037825,0.001000,0.001000,0.001000,0.001000,0.001000
1029.480769,-0.038571,0.001000,0.001000,0.001000,0.001000,0.001000
1029.500000,-0.039296,0.001000,0.001000,0.001000,0.001000,0.001000
1029.519231,-0.040000,0.001000,0.001000,0.001000,0.001000,0.001000
1029.538462,-0.040683,0.001000,0.001000,0.001000,0.001000,0.001000
1029.557692,-0.041344,0.001000,0.001000,0.001000,0.001000,0.001000
1029.576923,-0.041983,0.001000,0.001000,0.001000,0.001000,0.001000
1029.596154,-0.042600,0.001000,0.001000,0.001000,0.001000,0.001000
1029.615385,-0.043193,0.001000,0.001000,0.001000,0.001000,0.001000
1029.634615,-0.043764,0.001000,0.001000,0.001000,0.001000,0.001000
1029.653846,-0.044311,0.001000,0.001000,0.001000,0.001000,0.001000
1029.673077,-0.044835,0.001000,0.001000,0.001000,0.001000,0.001000
1029.692308,-0.045334,0.001000,0.001000,0.001000,0.001000,0.001000
1029.711538,-0.045810,0.001000,0.001000,0.001000,0.001000,0.001000
1029.730769,-0.046261,0.001000,0.001000,0.001000,0.001000,0.001000
1029.750000,-0.046687,0.001000,0.001000,0.001000,0.001000,0.001000
1029.769231,-0.047088,0.001000,0.001000,0.001000,0.001000,0.001000
1029.788462,-0.047464,0.001000,0.001000,0.001000,0.001000,0.001000
1029.807692,-0.047815,0.001000,0.001000,0.001000,0.001000,0.001000
1029.826923,-0.048140,0.001000,0.001000,0.001000,0.001000,0.001000
1029.846154,-0.048439,0.001000,0.001000,0.001000,0.001000,0.001000
1029.865385,-0.048713,0.001000,0.001000,0.001000,0.001000,0.001000
1029.884615,-0.048961,0.001000,0.001000,0.001000,0.001000,0.001000
1029.903846,-0.049182,0.001000,0.001000,0.001000,0.001000,0.001000
1029.923077,-0.049377,0.001000,0.001000,0.001000,0.001000,0.001000
1029.942308,-0.049546,0.001000,0.001000,0.001000,0.001000,0.001000
1029.961538,-0.049688,0.001000,0.001000,0.001000,0.001000,0.001000
1029.980769,-0.049804,0.001000,0.001000,0.001000,0.001000,0.001000
1030.000000,0.000000,0.001000,0.001000,0.001000,0.001000,0.001000
1030.019231,0.001112,0.001000,0.001000,0.001000,0.001000,0.001000
1030.038462,0.002223,0.001000,0.001000,0.001000,0.001000,0.001000
1030.057692,0.003333,0.001000,0.001000,0.001000,0.001000,0.001000
1030.076923,0.004441,0.001000,0.001000,0.001000,0.001000,0.001000
1030.096154,0.005547,0.001000,0.001000,0.001000,0.001000,0.001000
1030.115385,0.006651,0.001000,0.001000,0.001000,0.001000,0.001000
1030.134615,0.007751,0.001000,0.001000,0.001000,0.001000,0.001000
1030.153846,0.008847,0.001000,0.001000,0.001000,0.001000,0.001000
1030.173077,0.009939,0.001000,0.001000,0.001000,0.001000,0.001000
1030.192308,0.011026,0.001000,0.001000,0.001000,0.001000,0.001000
1030.211538,0.012108,0.001000,0.001000,0.001000,0.001000,0.001000
1030.230769,0.013184,0.001000,0.001000,0.001000,0.001000,0.001000
1030.250000,0.014253,0.001000,0.001000,0.001000,0.001000,0.001000
1030.269231,0.015315,0.001000,0.001000,0.001000,0.001000,0.001000
1030.288462,0.016369,0.001000,0.001000,0.001000,0.001000,0.001000
1030.307692,0.017416,0.001000,0.001000,0.001000,0.001000,0.001000
1030.326923,0.018453,0.001000,0.001000,0.001000,0.001000,0.001000
1030.346154,0.019482,0.001000,0.001000,0.001000,0.001000,0.001000
1030.365385,0.020501,0.001000,0.001000,0.001000,0.001000,0.001000
1030.384615,0.021510,0.001000,0.001000,0.001000,0.001000,0.001000
1030.403846,0.022508,0.001000,0.001000,0.001000,0.001000,0.001000
1030.423077,0.023495,0.001000,0.001000,0.001000,0.001000,0.001000
1030.442308,0.024471,0.001000,0.001000,0.001000,0.001000,0.001000
1030.461538,0.025434,0.001000,0.001000,0.001000,0.001000,0.001000
1030.480769,0.026385,0.001000,0.001000,0.001000,0.001000,0.001000
1030.500000,0.027323,0.001000,0.001000,0.001000,0.001000,0.001000
1030.519231,0.028247,0.001000,0.001000,0.001000,0.001000,0.001000
1030.538462,0.029157,0.001000,0.001000,0.001000,0.001000,0.001000
1030.557692,0.030053,0.001000,0.001000,0.001000,0.001000,0.001000
1030.576923,0.030934,0.001000,0.001000,0.001000,0.001000,0.001000
1030.596154,0.031800,0.001000,0.001000,0.001000,0.001000,0.001000
1030.615385,0.032650,0.001000,0.001000,0.001000,0.001000,0.001000
1030.634615,0.033484,0.001000,0.001000,0.001000,0.001000,0.001000
1030.653846,0.034301,0.001000,0.001000,0.001000,0.001000,0.001000
1030.673077,0.035102,0.001000,0.001000,0.001000,0.001000,0.001000
1030.692308,0.035885,0.001000,0.001000,0.001000,0.001000,0.001000
1030.711538,0.036650,0.001000,0.001000,0.001000,0.001000,0.001000
1030.730769,0.037397,0.001000,0.001000,0.001000,0.001000,0.001000
1030.750000,0.038126,0.001000,0.001000,0.001000,0.001000,0.001000
1030.769231,0.038835,0.001000,0.001000,0.001000,0.001000,0.001000
1030.788462,0.039526,0.001000,0.001000,0.001000,0.001000,0.001000
1030.807692,0.040197,0.001000,0.001000,0.001000,0.001000,0.001000
1030.826923,0.040848,0.001000,0.001000,0.001000,0.001000,0.001000
1030.846154,0.041479,0.001000,0.001000,0.001000,0.001000,0.001000
1030.865385,0.042090,0.001000,0.001000,0.001000,0.001000,0.001000
1030.884615,0.042679,0.001000,0.001000,0.001000,0.001000,0.001000
1030.903846,0.043248,0.001000,0.001000,0.001000,0.001000,0.001000
1030.923077,0.043795,0.001000,0.001000,0.001000,0.001000,0.001000
1030.942308,0.044321,0.001000,0.001000,0.001000,0.001000,0.001000
1030.961538,0.044824,0.001000,0.001000,0.001000,0.001000,0.001000
1030.980769,0.045306,0.001000,0.001000,0.001000,0.001000,0.001000
1031.000000,0.045765,0.001000,0.001000,0.001000,0.001000,0.001000
1031.019231,0.046201,0.001000,0.001000,0.001000,0.001000,0.001000
1031.038462,0.046615,0.001000,0.001000,0.001000,0.001000,0.001000
1031.057692,0.047006,0.001000,0.001000,0.001000,0.001000,0.001000
1031.076923,0.047373,0.001000,0.001000,0.001000,0.001000,0.001000
1031.096154,0.047717,0.001000,0.001000,0.001000,0.001000,0.001000
1031.115385,0.048037,0.001000,0.001000,0.001000,0.001000,0.001000
1031.134615,0.048334,0.001000,0.001000,0.001000,0.001000,0.001000
1031.153846,0.048606,0.001000,0.001000,0.001000,0.001000,0.001000
1031.173077,0.048855,0.001000,0.001000,0.001000,0.001000,0.001000
1031.192308,0.049079,0.001000,0.001000,0.001000,0.001000,0.001000
1031.211538,0.049280,0.001000,0.001000,0.001000,0.001000,0.001000
1031.230769,0.049455,0.001000,0.001000,0.001000,0.001000,0.001000
1031.250000,0.049607,0.001000,0.001000,0.001000,0.001000,0.001000
1031.269231,0.049734,0.001000,0.001000,0.001000,0.001000,0.001000
1031.288462,0.049836,0.001000,0.001000,0.001000,0.001000,0.001000
1031.307692,0.049914,0.001000,0.001000,0.001000,0.001000,0.001000
1031.326923,0.049967,0.001000,0.001000,0.001000,0.001000,0.001000
1031.346154,0.049995,0.001000,0.001000,0.001000,0.001000,0.001000
1031.365385,0.049998,0.001000,0.001000,0.001000,0.001000,0.001000
1031.384615,0.049977,0.001000,0.001000,0.001000,0.001000,0.001000
1031.403846,0.049931,0.001000,0.001000,0.001000,0.001000,0.001000
1031.423077,0.049861,0.001000,0.001000,0.001000,0.001000,0.001000
1031.442308,0.049766,0.001000,0.001000,0.001000,0.001000,0.001000
1031.461538,0.049646,0.001000,0.001000,0.001000,0.001000,0.001000
1031.480769,0.049501,0.001000,0.001000,0.001000,0.001000,0.001000
1031.500000,0.049333,0.001000,0.001000,0.001000,0.001000,0.001000
1031.519231,0.049139,0.001000,0.001000,0.001000,0.001000,0.001000
1031.538462,0.048922,0.001000,0.001000,0.001000,0.001000,0.001000
1031.557692,0.048680,0.001000,0.001000,0.001000,0.001000,0.001000
1031.576923,0.048414,0.001000,0.001000,0.001000,0.001000,0.001000
1031.596154,0.048125,0.001000,0.001000,0.001000,0.001000,0.001000
1031.615385,0.047811,0.001000,0.001000,0.001000,0.001000,0.001000
1031.634615,0.047474,0.001000,0.001000,0.001000,0.001000,0.001000
1031.653846,0.047113,0.001000,0.001000,0.001000,0.001000,0.001000
1031.673077,0.046729,0.001000,0.001000,0.001000,0.001000,0.001000
1031.692308,0.046322,0.001000,0.001000,0.001000,0.001000,0.001000
1031.711538,0.045892,0.001000,0.001000,0.001000,0.001000,0.001000
1031.730769,0.045440,0.001000,0.001000,0.001000,0.001000,0.001000
1031.750000,0.044965,0.001000,0.001000,0.001000,0.001000,0.001000
1031.769231,0.044467,0.001000,0.001000,0.001000,0.001000,0.001000
1031.788462,0.043948,0.001000,0.001000,0.001000,0.001000,0.001000
1031.807692,0.043407,0.001000,0.001000,0.001000,0.001000,0.001000
1031.826923,0.042845,0.001000,0.001000,0.001000,0.001000,0.001000
1031.846154,0.042261,0.001000,0.001000,0.001000,0.001000,0.001000
1031.865385,0.041656,0.001000,0.001000,0.001000,0.001000,0.001000
1031.884615,0.041031,0.001000,0.001000,0.001000,0.001000,0.001000
1031.903846,0.040386,0.001000,0.001000,0.001000,0.001000,0.001000
1031.923077,0.039720,0.001000,0.001000,0.001000,0.001000,0.001000
1031.942308,0.039035,0.001000,0.001000,0.001000,0.001000,0.001000
1031.961538,0.038331,0.001000,0.001000,0.001000,0.001000,0.001000
1031.980769,0.037608,0.001000,0.001000,0.001000,0.001000,0.001000
1032.000000,0.036866,0.001000,0.001000,0.001000,0.001000,0.001000
1032.019231,0.036106,0.001000,0.001000,0.001000,0.001000,0.001000
1032.038462,0.035328,0.001000,0.001000,0.001000,0.001000,0.001000
1032.057692,0.034532,0.001000,0.001000,0.001000,0.001000,0.001000
1032.076923,0.033720,0.001000,0.001000,0.001000,0.001000,0.001000
1032.096154,0.032891,0.001000,0.001000,0.001000,0.001000,0.001000
1032.115385,0.032045,0.001000,0.001000,0.001000,0.001000,0.001000
1032.134615,0.031184,0.001000,0.001000,0.001000,0.001000,0.001000
1032.153846,0.030307,0.001000,0.001000,0.001000,0.001000,0.001000
1032.173077,0.029416,0.001000,0.001000,0.001000,0.001000,0.001000
1032.192308,0.028509,0.001000,0.001000,0.001000,0.001000,0.001000
1032.211538,0.027589,0.001000,0.001000,0.001000,0.001000,0.001000
1032.230769,0.026655,0.001000,0.001000,0.001000,0.001000,0.001000
1032.250000,0.025708,0.001000,0.001000,0.001000,0.001000,0.001000
1032.269231,0.024748,0.001000,0.001000,0.001000,0.001000,0.001000
1032.288462,0.023776,0.001000,0.001000,0.001000,0.001000,0.001000
1032.307692,0.022792,0.001000,0.001000,0.001000,0.001000,0.001000
1032.326923,0.021797,0.001000,0.001000,0.001000,0.001000,0.001000
1032.346154,0.020791,0.001000,0.001000,0.001000,0.001000,0.001000
1032.365385,0.019775,0.001000,0.001000,0.001000,0.001000,0.001000
1032.384615,0.018749,0.001000,0.001000,0.001000,0.001000,0.001000
1032.403846,0.017714,0.001000,0.001000,0.001000,0.001000,0.001000
1032.423077,0.016670,0.001000,0.001000,0.001000,0.001000,0.001000
1032.442308,0.015618,0.001000,0.001000,0.001000,0.001000,0.001000
1032.461538,0.014558,0.001000,0.001000,0.001000,0.001000,0.001000
1032.480769,0.013491,0.001000,0.001000,0.001000,0.001000,0.001000
1032.500000,0.012417,0.001000,0.001000,0.001000,0.001000,0.001000
1032.519231,0.011337,0.001000,0.001000,0.001000,0.001000,0.001000
1032.538462,0.010252,0.001000,0.001000,0.001000,0.001000,0.001000
1032.557692,0.009161,0.001000,0.001000,0.001000,0.001000,0.001000
1032.576923,0.008066,0.001000,0.001000,0.001000,0.001000,0.001000
1032.596154,0.006967,0.001000,0.001000,0.001000,0.001000,0.001000
1032.615385,0.005864,0.001000,0.001000,0.001000,0.001000,0.001000
1032.634615,0.004759,0.001000,0.001000,0.001000,0.001000,0.001000
1032.653846,0.003651,0.001000,0.001000,0.001000,0.001000,0.001000
1032.673077,0.002541,0.001000,0.001000,0.001000,0.001000,0.001000
1032.692308,0.001430,0.001000,0.001000,0.001000,0.001000,0.001000
1032.711538,0.000319,0.001000,0.001000,0.001000,0.001000,0.001000
1032.730769,-0.000793,0.001000,0.001000,0.001000,0.001000,0.001000
1032.750000,-0.001904,0.001000,0.001000,0.001000,0.001000,0.001000
1032.769231,-0.003015,0.001000,0.001000,0.001000,0.001000,0.001000
1032.788462,-0.004124,0.001000,0.001000,0.001000,0.001000,0.001000
1032.807692,-0.005231,0.001000,0.001000,0.001000,0.001000,0.001000
1032.826923,-0.006335,0.001000,0.001000,0.001000,0.001000,0.001000
1032.846154,-0.007436,0.001000,0.001000,0.001000,0.001000,0.001000
1032.865385,-0.008533,0.001000,0.001000,0.001000,0.001000,0.001000
1032.884615,-0.009627,0.001000,0.001000,0.001000,0.001000,0.001000
1032.903846,-0.010715,0.001000,0.001000,0.001000,0.001000,0.001000
1032.923077,-0.011798,0.001000,0.001000,0.001000,0.001000,0.001000
1032.942308,-0.012876,0.001000,0.001000,0.001000,0.001000,0.001000
1032.961538,-0.013947,0.001000,0.001000,0.001000,0.001000,0.001000
1032.980769,-0.015011,0.001000,0.001000,0.001000,0.001000,0.001000
1033.000000,-0.016068,0.001000,0.001000,0.001000,0.001000,0.001000
1033.019231,-0.017116,0.001000,0.001000,0.001000,0.001000,0.001000
1033.038462,-0.018157,0.001000,0.001000,0.001000,0.001000,0.001000
1033.057692,-0.019188,0.001000,0.001000,0.001000,0.001000,0.001000
1033.076923,-0.020210,0.001000,0.001000,0.001000,0.001000,0.001000
1033.096154,-0.021222,0.001000,0.001000,0.001000,0.001000,0.001000
1033.115385,-0.022223,0.001000,0.001000,0.001000,0.001000,0.001000
1033.134615,-0.023213,0.001000,0.001000,0.001000,0.001000,0.001000
1033.153846,-0.024192,0.001000,0.001000,0.001000,0.001000,0.001000
1033.173077,-0.025159,0.001000,0.001000,0.001000,0.001000,0.001000
1033.192308,-0.026114,0.001000,0.001000,0.001000,0.001000,0.001000
1033.211538,-0.027055,0.001000,0.001000,0.001000,0.001000,0.001000
1033.230769,-0.027983,0.001000,0.001000,0.001000,0.001000,0.001000
1033.250000,-0.028898,0.001000,0.001000,0.001000,0.001000,0.001000
1033.269231,-0.029798,0.001000,0.001000,0.001000,0.001000,0.001000
1033.288462,-0.030683,0.001000,0.001000,0.001000,0.001000,0.001000
1033.307692,-0.031553,0.001000,0.001000,0.001000,0.001000,0.001000
1033.326923,-0.032408,0.001000,0.001000,0.001000,0.001000,0.001000
1033.346154,-0.033246,0.001000,0.001000,0.001000,0.001000,0.001000
1033.365385,-0.034069,0.001000,0.001000,0.001000,0.001000,0.001000
1033.384615,-0.034874,0.001000,0.001000,0.001000,0.001000,0.001000
1033.403846,-0.035662,0.001000,0.001000,0.001000,0.001000,0.001000
1033.423077,-0.036432,0.001000,0.001000,0.001000,0.001000,0.001000
1033.442308,-0.037185,0.001000,0.001000,0.001000,0.001000,0.001000
1033.461538,-0.037919,0.001000,0.001000,0.001000,0.001000,0.001000
1033.480769,-0.038634,0.001000,0.001000,0.001000,0.001000,0.001000
1033.500000,-0.039330,0.001000,0.001000,0.001000,0.001000,0.001000
1033.519231,-0.040007,0.001000,0.001000,0.001000,0.001000,0.001000
1033.538462,-0.040664,0.001000,0.001000,0.001000,0.001000,0.001000
1033.557692,-0.041300,0.001000,0.001000,0.001000,0.001000,0.001000
1033.576923,-0.041917,0.001000,0.001000,0.001000,0.001000,0.001000
1033.596154,-0.042513,0.001000,0.001000,0.001000,0.001000,0.001000
1033.615385,-0.043087,0.001000,0.001000,0.001000,0.001000,0.001000
1033.634615,-0.043641,0.001000,0.001000,0.001000,0.001000,0.001000
1033.653846,-0.044172,0.001000,0.001000,0.001000,0.001000,0.001000
1033.673077,-0.044682,0.001000,0.001000,0.001000,0.001000,0.001000
1033.692308,-0.045170,0.001000,0.001000,0.001000,0.001000,0.001000
1033.711538,-0.045636,0.001000,0.001000,0.001000,0.001000,0.001000
1033.730769,-0.046079,0.001000,0.001000,0.001000,0.001000,0.001000
1033.750000,-0.046499,0.001000,0.001000,0.001000,0.001000,0.001000
1033.769231,-0.046896,0.001000,0.001000,0.001000,0.001000,0.001000
1033.788462,-0.047270,0.001000,0.001000,0.001000,0.001000,0.001000
1033.807692,-0.047621,0.001000,0.001000,0.001000,0.001000,0.001000
1033.826923,-0.047948,0.001000,0.001000,0.001000,0.001000,0.001000
1033.846154,-0.048251,0.001000,0.001000,0.001000,0.001000,0.001000
1033.865385,-0.048531,0.001000,0.001000,0.001000,0.001000,0.001000
1033.884615,-0.048786,0.001000,0.001000,0.001000,0.001000,0.001000
1033.903846,-0.049018,0.001000,0.001000,0.001000,0.001000,0.001000
1033.923077,-0.049225,0.001000,0.001000,0.001000,0.001000,0.001000
1033.942308,-0.049408,0.001000,0.001000,0.001000,0.001000,0.001000
1033.961538,-0.049566,0.001000,0.001000,0.001000,0.001000,0.001000
1033.980769,-0.049700,0.001000,0.001000,0.001000,0.001000,0.001000
1034.000000,-0.049809,0.001000,0.001000,0.001000,0.001000,0.001000
1034.019231,-0.049894,0.001000,0.001000,0.001000,0.001000,0.001000
1034.038462,-0.049954,0.001000,0.001000,0.001000,0.001000,0.001000
1034.057692,-0.049989,0.001000,0.001000,0.001000,0.001000,0.001000
1034.076923,-0.050000,0.001000,0.001000,0.001000,0.001000,0.001000
1034.096154,-0.049986,0.001000,0.001000,0.001000,0.001000,0.001000
1034.115385,-0.049947,0.001000,0.001000,0.001000,0.001000,0.001000
1034.134615,-0.049884,0.001000,0.001000,0.001000,0.001000,0.001000
1034.153846,-0.049795,0.001000,0.001000,0.001000,0.001000,0.001000
1034.173077,-0.049683,0.001000,0.001000,0.001000,0.001000,0.001000
1034.192308,-0.049545,0.001000,0.001000,0.001000,0.001000,0.001000
1034.211538,-0.049383,0.001000,0.001000,0.001000,0.001000,0.001000
1034.230769,-0.049197,0.001000,0.001000,0.001000,0.001000,0.001000
1034.250000,-0.048987,0.001000,0.001000,0.001000,0.001000,0.001000
1034.269231,-0.048752,0.001000,0.001000,0.001000,0.001000,0.001000
1034.288462,-0.048493,0.001000,0.001000,0.001000,0.001000,0.001000
1034.307692,-0.048210,0.001000,0.001000,0.001000,0.001000,0.001000
1034.326923,-0.047903,0.001000,0.001000,0.001000,0.001000,0.001000
1034.346154,-0.047573,0.001000,0.001000,0.001000,0.001000,0.001000
1034.365385,-0.047219,0.001000,0.001000,0.001000,0.001000,0.001000
1034.384615,-0.046842,0.001000,0.001000,0.001000,0.001000,0.001000
1034.403846,-0.046441,0.001000,0.001000,0.001000,0.001000,0.001000
1034.423077,-0.046018,0.001000,0.001000,0.001000,0.001000,0.001000
1034.442308,-0.045572,0.001000,0.001000,0.001000,0.001000,0.001000
1034.461538,-0.045103,0.001000,0.001000,0.001000,0.001000,0.001000
1034.480769,-0.044612,0.001000,0.001000,0.001000,0.001000,0.001000
1034.500000,-0.044099,0.001000,0.001000,0.001000,0.001000,0.001000
1034.519231,-0.043564,0.001000,0.001000,0.001000,0.001000,0.001000
1034.538462,-0.043008,0.001000,0.001000,0.001000,0.001000,0.001000
1034.557692,-0.042431,0.001000,0.001000,0.001000,0.001000,0.001000
1034.576923,-0.041832,0.001000,0.001000,0.001000,0.001000,0.001000
1034.596154,-0.041213,0.001000,0.001000,0.001000,0.001000,0.001000
1034.615385,-0.040573,0.001000,0.001000,0.001000,0.001000,0.001000
1034.634615,-0.039913,0.001000,0.001000,0.001000,0.001000,0.001000
1034.653846,-0.039234,0.001000,0.001000,0.001000,0.001000,0.001000
1034.673077,-0.038535,0.001000,0.001000,0.001000,0.001000,0.001000
