timestamp,ax,ay,az,gx,gy,gz
1000.000000,0.000000,0.001000,0.001000,0.001000,0.001000,0.001000
1000.019231,0.001463,0.001000,0.001000,0.001000,0.001000,0.001000
1000.038462,0.002925,0.001000,0.001000,0.001000,0.001000,0.001000
1000.057692,0.004385,0.001000,0.001000,0.001000,0.001000,0.001000
1000.076923,0.005840,0.001000,0.001000,0.001000,0.001000,0.001000
1000.096154,0.007291,0.001000,0.001000,0.001000,0.001000,0.001000
1000.115385,0.008735,0.001000,0.001000,0.001000,0.001000,0.001000
1000.134615,0.010172,0.001000,0.001000,0.001000,0.001000,0.001000
1000.153846,0.011601,0.001000,0.001000,0.001000,0.001000,0.001000
1000.173077,0.013019,0.001000,0.001000,0.001000,0.001000,0.001000
1000.192308,0.014426,0.001000,0.001000,0.001000,0.001000,0.001000
1000.211538,0.015821,0.001000,0.001000,0.001000,0.001000,0.001000
1000.230769,0.017202,0.001000,0.001000,0.001000,0.001000,0.001000
1000.250000,0.018569,0.001000,0.001000,0.001000,0.001000,0.001000
1000.269231,0.019919,0.001000,0.001000,0.001000,0.001000,0.001000
1000.288462,0.021253,0.001000,0.001000,0.001000,0.001000,0.001000
1000.307692,0.022568,0.001000,0.001000,0.001000,0.001000,0.001000
1000.326923,0.023864,0.001000,0.001000,0.001000,0.001000,0.001000
1000.346154,0.025140,0.001000,0.001000,0.001000,0.001000,0.001000
1000.365385,0.026394,0.001000,0.001000,0.001000,0.001000,0.001000
1000.384615,0.027625,0.001000,0.001000,0.001000,0.001000,0.001000
1000.403846,0.028833,0.001000,0.001000,0.001000,0.001000,0.001000
1000.423077,0.030016,0.001000,0.001000,0.001000,0.001000,0.001000
1000.442308,0.031174,0.001000,0.001000,0.001000,0.001000,0.001000
1000.461538,0.032304,0.001000,0.001000,0.001000,0.001000,0.001000
1000.480769,0.033407,0.001000,0.001000,0.001000,0.001000,0.001000
1000.500000,0.034482,0.001000,0.001000,0.001000,0.001000,0.001000
1000.519231,0.035526,0.001000,0.001000,0.001000,0.001000,0.001000
1000.538462,0.036541,0.001000,0.001000,0.001000,0.001000,0.001000
1000.557692,0.037524,0.001000,0.001000,0.001000,0.001000,0.001000
1000.576923,0.038475,0.001000,0.001000,0.001000,0.001000,0.001000
1000.596154,0.039393,0.001000,0.001000,0.001000,0.001000,0.001000
1000.615385,0.040277,0.001000,0.001000,0.001000,0.001000,0.001000
1000.634615,0.041127,0.001000,0.001000,0.001000,0.001000,0.001000
1000.653846,0.041941,0.001000,0.001000,0.001000,0.001000,0.001000
1000.673077,0.042720,0.001000,0.001000,0.001000,0.001000,0.001000
1000.692308,0.043462,0.001000,0.001000,0.001000,0.001000,0.001000
1000.711538,0.044167,0.001000,0.001000,0.001000,0.001000,0.001000
1000.730769,0.044834,0.001000,0.001000,0.001000,0.001000,0.001000
1000.750000,0.045462,0.001000,0.001000,0.001000,0.001000,0.001000
1000.769231,0.046052,0.001000,0.001000,0.001000,0.001000,0.001000
1000.788462,0.046602,0.001000,0.001000,0.001000,0.001000,0.001000
1000.807692,0.047112,0.001000,0.001000,0.001000,0.001000,0.001000
1000.826923,0.047582,0.001000,0.001000,0.001000,0.001000,0.001000
1000.846154,0.048011,0.001000,0.001000,0.001000,0.001000,0.001000
1000.865385,0.048399,0.001000,0.001000,0.001000,0.001000,0.001000
1000.884615,0.048746,0.001000,0.001000,0.001000,0.001000,0.001000
1000.903846,0.049051,0.001000,0.001000,0.001000,0.001000,0.001000
1000.923077,0.049313,0.001000,0.001000,0.001000,0.001000,0.001000
1000.942308,0.049534,0.001000,0.001000,0.001000,0.001000,0.001000
1000.961538,0.049712,0.001000,0.001000,0.001000,0.001000,0.001000
1000.980769,0.049848,0.001000,0.001000,0.001000,0.001000,0.001000
1001.000000,0.049940,0.001000,0.001000,0.001000,0.001000,0.001000
1001.019231,0.049990,0.001000,0.001000,0.001000,0.001000,0.001000
1001.038462,0.049998,0.001000,0.001000,0.001000,0.001000,0.001000
1001.057692,0.049962,0.001000,0.001000,0.001000,0.001000,0.001000
1001.076923,0.049884,0.001000,0.001000,0.001000,0.001000,0.001000
1001.096154,0.049763,0.001000,0.001000,0.001000,0.001000,0.001000
1001.115385,0.049599,0.001000,0.001000,0.001000,0.001000,0.001000
1001.134615,0.049393,0.001000,0.001000,0.001000,0.001000,0.001000
1001.153846,0.049144,0.001000,0.001000,0.001000,0.001000,0.001000
1001.173077,0.048853,0.001000,0.001000,0.001000,0.001000,0.001000
1001.192308,0.048521,0.001000,0.001000,0.001000,0.001000,0.001000
1001.211538,0.048147,0.001000,0.001000,0.001000,0.001000,0.001000
1001.230769,0.047731,0.001000,0.001000,0.001000,0.001000,0.001000
1001.250000,0.047275,0.001000,0.001000,0.001000,0.001000,0.001000
1001.269231,0.046779,0.001000,0.001000,0.001000,0.001000,0.001000
1001.288462,0.046242,0.001000,0.001000,0.001000,0.001000,0.001000
1001.307692,0.045666,0.001000,0.001000,0.001000,0.001000,0.001000
1001.326923,0.045050,0.001000,0.001000,0.001000,0.001000,0.001000
1001.346154,0.044396,0.001000,0.001000,0.001000,0.001000,0.001000
1001.365385,0.043704,0.001000,0.001000,0.001000,0.001000,0.001000
1001.384615,0.042974,0.001000,0.001000,0.001000,0.001000,0.001000
1001.403846,0.042208,0.001000,0.001000,0.001000,0.001000,0.001000
1001.423077,0.041406,0.001000,0.001000,0.001000,0.001000,0.001000
1001.442308,0.040568,0.001000,0.001000,0.001000,0.001000,0.001000
1001.461538,0.039695,0.001000,0.001000,0.001000,0.001000,0.001000
1001.480769,0.038788,0.001000,0.001000,0.001000,0.001000,0.001000
1001.500000,0.037848,0.001000,0.001000,0.001000,0.001000,0.001000
1001.519231,0.036876,0.001000,0.001000,0.001000,0.001000,0.001000
1001.538462,0.035872,0.001000,0.001000,0.001000,0.001000,0.001000
1001.557692,0.034837,0.001000,0.001000,0.001000,0.001000,0.001000
1001.576923,0.033773,0.001000,0.001000,0.001000,0.001000,0.001000
1001.596154,0.032679,0.001000,0.001000,0.001000,0.001000,0.001000
1001.615385,0.031558,0.001000,0.001000,0.001000,0.001000,0.001000
1001.634615,0.030409,0.001000,0.001000,0.001000,0.001000,0.001000
1001.653846,0.029235,0.001000,0.001000,0.001000,0.001000,0.001000
1001.673077,0.028035,0.001000,0.001000,0.001000,0.001000,0.001000
1001.692308,0.026812,0.001000,0.001000,0.001000,0.001000,0.001000
1001.711538,0.025565,0.001000,0.001000,0.001000,0.001000,0.001000
1001.730769,0.024297,0.001000,0.001000,0.001000,0.001000,0.001000
1001.750000,0.023008,0.001000,0.001000,0.001000,0.001000,0.001000
1001.769231,0.021699,0.001000,0.001000,0.001000,0.001000,0.001000
1001.788462,0.020371,0.001000,0.001000,0.001000,0.001000,0.001000
1001.807692,0.019026,0.001000,0.001000,0.001000,0.001000,0.001000
1001.826923,0.017665,0.001000,0.001000,0.001000,0.001000,0.001000
1001.846154,0.016288,0.001000,0.001000,0.001000,0.001000,0.001000
1001.865385,0.014898,0.001000,0.001000,0.001000,0.001000,0.001000
1001.884615,0.013495,0.001000,0.001000,0.001000,0.001000,0.001000
1001.903846,0.012080,0.001000,0.001000,0.001000,0.001000,0.001000
1001.923077,0.010655,0.001000,0.001000,0.001000,0.001000,0.001000
1001.942308,0.009221,0.001000,0.001000,0.001000,0.001000,0.001000
1001.961538,0.007779,0.001000,0.001000,0.001000,0.001000,0.001000
1001.980769,0.006330,0.001000,0.001000,0.001000,0.001000,0.001000
1002.000000,0.004876,0.001000,0.001000,0.001000,0.001000,0.001000
1002.019231,0.003418,0.001000,0.001000,0.001000,0.001000,0.001000
1002.038462,0.001957,0.001000,0.001000,0.001000,0.001000,0.001000
1002.057692,0.000494,0.001000,0.001000,0.001000,0.001000,0.001000
1002.076923,-0.000970,0.001000,0.001000,0.001000,0.001000,0.001000
1002.096154,-0.002432,0.001000,0.001000,0.001000,0.001000,0.001000
1002.115385,-0.003893,0.001000,0.001000,0.001000,0.001000,0.001000
1002.134615,-0.005350,0.001000,0.001000,0.001000,0.001000,0.001000
1002.153846,-0.006802,0.001000,0.001000,0.001000,0.001000,0.001000
1002.173077,-0.008249,0.001000,0.001000,0.001000,0.001000,0.001000
1002.192308,-0.009689,0.001000,0.001000,0.001000,0.001000,0.001000
1002.211538,-0.011120,0.001000,0.001000,0.001000,0.001000,0.001000
1002.230769,-0.012542,0.001000,0.001000,0.001000,0.001000,0.001000
1002.250000,-0.013953,0.001000,0.001000,0.001000,0.001000,0.001000
1002.269231,-0.015352,0.001000,0.001000,0.001000,0.001000,0.001000
1002.288462,-0.016738,0.001000,0.001000,0.001000,0.001000,0.001000
1002.307692,-0.018110,0.001000,0.001000,0.001000,0.001000,0.001000
1002.326923,-0.019466,0.001000,0.001000,0.001000,0.001000,0.001000
1002.346154,-0.020805,0.001000,0.001000,0.001000,0.001000,0.001000
1002.365385,-0.022127,0.001000,0.001000,0.001000,0.001000,0.001000
1002.384615,-0.023429,0.001000,0.001000,0.001000,0.001000,0.001000
1002.403846,-0.024712,0.001000,0.001000,0.001000,0.001000,0.001000
1002.423077,-0.025973,0.001000,0.001000,0.001000,0.001000,0.001000
1002.442308,-0.027213,0.001000,0.001000,0.001000,0.001000,0.001000
1002.461538,-0.028428,0.001000,0.001000,0.001000,0.001000,0.001000
1002.480769,-0.029620,0.001000,0.001000,0.001000,0.001000,0.001000
1002.500000,-0.030786,0.001000,0.001000,0.001000,0.001000,0.001000
1002.519231,-0.031926,0.001000,0.001000,0.001000,0.001000,0.001000
1002.538462,-0.033038,0.001000,0.001000,0.001000,0.001000,0.001000
1002.557692,-0.034122,0.001000,0.001000,0.001000,0.001000,0.001000
1002.576923,-0.035177,0.001000,0.001000,0.001000,0.001000,0.001000
1002.596154,-0.036202,0.001000,0.001000,0.001000,0.001000,0.001000
1002.615385,-0.037196,0.001000,0.001000,0.001000,0.001000,0.001000
1002.634615,-0.038158,0.001000,0.001000,0.001000,0.001000,0.001000
1002.653846,-0.039087,0.001000,0.001000,0.001000,0.001000,0.001000
1002.673077,-0.039983,0.001000,0.001000,0.001000,0.001000,0.001000
1002.692308,-0.040844,0.001000,0.001000,0.001000,0.001000,0.001000
1002.711538,-0.041671,0.001000,0.001000,0.001000,0.001000,0.001000
1002.730769,-0.042461,0.001000,0.001000,0.001000,0.001000,0.001000
1002.750000,-0.043216,0.001000,0.001000,0.001000,0.001000,0.001000
1002.769231,-0.043933,0.001000,0.001000,0.001000,0.001000,0.001000
1002.788462,-0.044613,0.001000,0.001000,0.001000,0.001000,0.001000
1002.807692,-0.045255,0.001000,0.001000,0.001000,0.001000,0.001000
1002.826923,-0.045857,0.001000,0.001000,0.001000,0.001000,0.001000
1002.846154,-0.046421,0.001000,0.001000,0.001000,0.001000,0.001000
1002.865385,-0.046945,0.001000,0.001000,0.001000,0.001000,0.001000
1002.884615,-0.047428,0.001000,0.001000,0.001000,0.001000,0.001000
1002.903846,-0.047871,0.001000,0.001000,0.001000,0.001000,0.001000
1002.923077,-0.048273,0.001000,0.001000,0.001000,0.001000,0.001000
1002.942308,-0.048634,0.001000,0.001000,0.001000,0.001000,0.001000
1002.961538,-0.048953,0.001000,0.001000,0.001000,0.001000,0.001000
1002.980769,-0.049229,0.001000,0.001000,0.001000,0.001000,0.001000
1003.000000,-0.049464,0.001000,0.001000,0.001000,0.001000,0.001000
1003.019231,-0.049657,0.001000,0.001000,0.001000,0.001000,0.001000
1003.038462,-0.049807,0.001000,0.001000,0.001000,0.001000,0.001000
1003.057692,-0.049914,0.001000,0.001000,0.001000,0.001000,0.001000
1003.076923,-0.049978,0.001000,0.001000,0.001000,0.001000,0.001000
1003.096154,-0.050000,0.001000,0.001000,0.001000,0.001000,0.001000
1003.115385,-0.049979,0.001000,0.001000,0.001000,0.001000,0.001000
1003.134615,-0.049915,0.001000,0.001000,0.001000,0.001000,0.001000
1003.153846,-0.049808,0.001000,0.001000,0.001000,0.001000,0.001000
1003.173077,-0.049659,0.001000,0.001000,0.001000,0.001000,0.001000
1003.192308,-0.049467,0.001000,0.001000,0.001000,0.001000,0.001000
1003.211538,-0.049233,0.001000,0.001000,0.001000,0.001000,0.001000
1003.230769,-0.048956,0.001000,0.001000,0.001000,0.001000,0.001000
1003.250000,-0.048638,0.001000,0.001000,0.001000,0.001000,0.001000
1003.269231,-0.048278,0.001000,0.001000,0.001000,0.001000,0.001000
1003.288462,-0.047876,0.001000,0.001000,0.001000,0.001000,0.001000
1003.307692,-0.047434,0.001000,0.001000,0.001000,0.001000,0.001000
1003.326923,-0.046951,0.001000,0.001000,0.001000,0.001000,0.001000
1003.346154,-0.046427,0.001000,0.001000,0.001000,0.001000,0.001000
1003.365385,-0.045864,0.001000,0.001000,0.001000,0.001000,0.001000
1003.384615,-0.045262,0.001000,0.001000,0.001000,0.001000,0.001000
1003.403846,-0.044621,0.001000,0.001000,0.001000,0.001000,0.001000
1003.423077,-0.043942,0.001000,0.001000,0.001000,0.001000,0.001000
1003.442308,-0.043225,0.001000,0.001000,0.001000,0.001000,0.001000
1003.461538,-0.042471,0.001000,0.001000,0.001000,0.001000,0.001000
1003.480769,-0.041680,0.001000,0.001000,0.001000,0.001000,0.001000
1003.500000,-0.040854,0.001000,0.001000,0.001000,0.001000,0.001000
1003.519231,-0.039993,0.001000,0.001000,0.001000,0.001000,0.001000
1003.538462,-0.039098,0.001000,0.001000,0.001000,0.001000,0.001000
1003.557692,-0.038169,0.001000,0.001000,0.001000,0.001000,0.001000
1003.576923,-0.037207,0.001000,0.001000,0.001000,0.001000,0.001000
1003.596154,-0.036214,0.001000,0.001000,0.001000,0.001000,0.001000
1003.615385,-0.035190,0.001000,0.001000,0.001000,0.001000,0.001000
1003.634615,-0.034135,0.001000,0.001000,0.001000,0.001000,0.001000
1003.653846,-0.033051,0.001000,0.001000,0.001000,0.001000,0.001000
1003.673077,-0.031939,0.001000,0.001000,0.001000,0.001000,0.001000
1003.692308,-0.030800,0.001000,0.001000,0.001000,0.001000,0.001000
1003.711538,-0.029634,0.001000,0.001000,0.001000,0.001000,0.001000
1003.730769,-0.028443,0.001000,0.001000,0.001000,0.001000,0.001000
1003.750000,-0.027227,0.001000,0.001000,0.001000,0.001000,0.001000
1003.769231,-0.025988,0.001000,0.001000,0.001000,0.001000,0.001000
1003.788462,-0.024727,0.001000,0.001000,0.001000,0.001000,0.001000
1003.807692,-0.023445,0.001000,0.001000,0.001000,0.001000,0.001000
1003.826923,-0.022142,0.001000,0.001000,0.001000,0.001000,0.001000
1003.846154,-0.020821,0.001000,0.001000,0.001000,0.001000,0.001000
1003.865385,-0.019482,0.001000,0.001000,0.001000,0.001000,0.001000
1003.884615,-0.018126,0.001000,0.001000,0.001000,0.001000,0.001000
1003.903846,-0.016754,0.001000,0.001000,0.001000,0.001000,0.001000
1003.923077,-0.015368,0.001000,0.001000,0.001000,0.001000,0.001000
1003.942308,-0.013970,0.001000,0.001000,0.001000,0.001000,0.001000
1003.961538,-0.012559,0.001000,0.001000,0.001000,0.001000,0.001000
1003.980769,-0.011137,0.001000,0.001000,0.001000,0.001000,0.001000
1004.000000,-0.009706,0.001000,0.001000,0.001000,0.001000,0.001000
1004.019231,-0.008266,0.001000,0.001000,0.001000,0.001000,0.001000
1004.038462,-0.006820,0.001000,0.001000,0.001000,0.001000,0.001000
1004.057692,-0.005367,0.001000,0.001000,0.001000,0.001000,0.001000
1004.076923,-0.003910,0.001000,0.001000,0.001000,0.001000,0.001000
1004.096154,-0.002450,0.001000,0.001000,0.001000,0.001000,0.001000
1004.115385,-0.000987,0.001000,0.001000,0.001000,0.001000,0.001000
1004.134615,0.000476,0.001000,0.001000,0.001000,0.001000,0.001000
1004.153846,0.001939,0.001000,0.001000,0.001000,0.001000,0.001000
1004.173077,0.003400,0.001000,0.001000,0.001000,0.001000,0.001000
1004.192308,0.004859,0.001000,0.001000,0.001000,0.001000,0.001000
1004.211538,0.006313,0.001000,0.001000,0.001000,0.001000,0.001000
1004.230769,0.007762,0.001000,0.001000,0.001000,0.001000,0.001000
1004.250000,0.009204,0.001000,0.001000,0.001000,0.001000,0.001000
1004.269231,0.010638,0.001000,0.001000,0.001000,0.001000,0.001000
1004.288462,0.012063,0.001000,0.001000,0.001000,0.001000,0.001000
1004.307692,0.013478,0.001000,0.001000,0.001000,0.001000,0.001000
1004.326923,0.014882,0.001000,0.001000,0.001000,0.001000,0.001000
1004.346154,0.016272,0.001000,0.001000,0.001000,0.001000,0.001000
1004.365385,0.017649,0.001000,0.001000,0.001000,0.001000,0.001000
1004.384615,0.019010,0.001000,0.001000,0.001000,0.001000,0.001000
1004.403846,0.020355,0.001000,0.001000,0.001000,0.001000,0.001000
1004.423077,0.021683,0.001000,0.001000,0.001000,0.001000,0.001000
1004.442308,0.022992,0.001000,0.001000,0.001000,0.001000,0.001000
1004.461538,0.024282,0.001000,0.001000,0.001000,0.001000,0.001000
1004.480769,0.025550,0.001000,0.001000,0.001000,0.001000,0.001000
1004.500000,0.026797,0.001000,0.001000,0.001000,0.001000,0.001000
1004.519231,0.028021,0.001000,0.001000,0.001000,0.001000,0.001000
1004.538462,0.029221,0.001000,0.001000,0.001000,0.001000,0.001000
1004.557692,0.030396,0.001000,0.001000,0.001000,0.001000,0.001000
1004.576923,0.031544,0.001000,0.001000,0.001000,0.001000,0.001000
1004.596154,0.032666,0.001000,0.001000,0.001000,0.001000,0.001000
1004.615385,0.033760,0.001000,0.001000,0.001000,0.001000,0.001000
1004.634615,0.034825,0.001000,0.001000,0.001000,0.001000,0.001000
1004.653846,0.035860,0.001000,0.001000,0.001000,0.001000,0.001000
1004.673077,0.036864,0.001000,0.001000,0.001000,0.001000,0.001000
1004.692308,0.037837,0.001000,0.001000,0.001000,0.001000,0.001000
1004.711538,0.038777,0.001000,0.001000,0.001000,0.001000,0.001000
1004.730769,0.039684,0.001000,0.001000,0.001000,0.001000,0.001000
1004.750000,0.040557,0.001000,0.001000,0.001000,0.001000,0.001000
1004.769231,0.041396,0.001000,0.001000,0.001000,0.001000,0.001000
1004.788462,0.042199,0.001000,0.001000,0.001000,0.001000,0.001000
1004.807692,0.042966,0.001000,0.001000,0.001000,0.001000,0.001000
1004.826923,0.043695,0.001000,0.001000,0.001000,0.001000,0.001000
1004.846154,0.044388,0.001000,0.001000,0.001000,0.001000,0.001000
1004.865385,0.045043,0.001000,0.001000,0.001000,0.001000,0.001000
1004.884615,0.045658,0.001000,0.001000,0.001000,0.001000,0.001000
1004.903846,0.046235,0.001000,0.001000,0.001000,0.001000,0.001000
1004.923077,0.046773,0.001000,0.001000,0.001000,0.001000,0.001000
1004.942308,0.047270,0.001000,0.001000,0.001000,0.001000,0.001000
1004.961538,0.047726,0.001000,0.001000,0.001000,0.001000,0.001000
1004.980769,0.048142,0.001000,0.001000,0.001000,0.001000,0.001000
1005.000000,0.048517,0.001000,0.001000,0.001000,0.001000,0.001000
1005.019231,0.048850,0.001000,0.001000,0.001000,0.001000,0.001000
1005.038462,0.049141,0.001000,0.001000,0.001000,0.001000,0.001000
1005.057692,0.049390,0.001000,0.001000,0.001000,0.001000,0.001000
1005.076923,0.049597,0.001000,0.001000,0.001000,0.001000,0.001000
1005.096154,0.049761,0.001000,0.001000,0.001000,0.001000,0.001000
1005.115385,0.049882,0.001000,0.001000,0.001000,0.001000,0.001000
1005.134615,0.049961,0.001000,0.001000,0.001000,0.001000,0.001000
1005.153846,0.049997,0.001000,0.001000,0.001000,0.001000,0.001000
1005.173077,0.049991,0.001000,0.001000,0.001000,0.001000,0.001000
1005.192308,0.049941,0.001000,0.001000,0.001000,0.001000,0.001000
1005.211538,0.049849,0.001000,0.001000,0.001000,0.001000,0.001000
1005.230769,0.049714,0.001000,0.001000,0.001000,0.001000,0.001000
1005.250000,0.049536,0.001000,0.001000,0.001000,0.001000,0.001000
1005.269231,0.049316,0.001000,0.001000,0.001000,0.001000,0.001000
1005.288462,0.049054,0.001000,0.001000,0.001000,0.001000,0.001000
1005.307692,0.048750,0.001000,0.001000,0.001000,0.001000,0.001000
1005.326923,0.048404,0.001000,0.001000,0.001000,0.001000,0.001000
1005.346154,0.048016,0.001000,0.001000,0.001000,0.001000,0.001000
1005.365385,0.047587,0.001000,0.001000,0.001000,0.001000,0.001000
1005.384615,0.047118,0.001000,0.001000,0.001000,0.001000,0.001000
1005.403846,0.046608,0.001000,0.001000,0.001000,0.001000,0.001000
1005.423077,0.046059,0.001000,0.001000,0.001000,0.001000,0.001000
1005.442308,0.045469,0.001000,0.001000,0.001000,0.001000,0.001000
1005.461538,0.044841,0.001000,0.001000,0.001000,0.001000,0.001000
1005.480769,0.044175,0.001000,0.001000,0.001000,0.001000,0.001000
1005.500000,0.043471,0.001000,0.001000,0.001000,0.001000,0.001000
1005.519231,0.042729,0.001000,0.001000,0.001000,0.001000,0.001000
1005.538462,0.041951,0.001000,0.001000,0.001000,0.001000,0.001000
1005.557692,0.041137,0.001000,0.001000,0.001000,0.001000,0.001000
1005.576923,0.040287,0.001000,0.001000,0.001000,0.001000,0.001000
1005.596154,0.039404,0.001000,0.001000,0.001000,0.001000,0.001000
1005.615385,0.038486,0.001000,0.001000,0.001000,0.001000,0.001000
1005.634615,0.037535,0.001000,0.001000,0.001000,0.001000,0.001000
1005.653846,0.036553,0.001000,0.001000,0.001000,0.001000,0.001000
1005.673077,0.035539,0.001000,0.001000,0.001000,0.001000,0.001000
1005.692308,0.034494,0.001000,0.001000,0.001000,0.001000,0.001000
1005.711538,0.033420,0.001000,0.001000,0.001000,0.001000,0.001000
1005.730769,0.032317,0.001000,0.001000,0.001000,0.001000,0.001000
1005.750000,0.031187,0.001000,0.001000,0.001000,0.001000,0.001000
1005.769231,0.030030,0.001000,0.001000,0.001000,0.001000,0.001000
1005.788462,0.028847,0.001000,0.001000,0.001000,0.001000,0.001000
1005.807692,0.027640,0.001000,0.001000,0.001000,0.001000,0.001000
1005.826923,0.026409,0.001000,0.001000,0.001000,0.001000,0.001000
1005.846154,0.025155,0.001000,0.001000,0.001000,0.001000,0.001000
1005.865385,0.023880,0.001000,0.001000,0.001000,0.001000,0.001000
1005.884615,0.022584,0.001000,0.001000,0.001000,0.001000,0.001000
1005.903846,0.021269,0.001000,0.001000,0.001000,0.001000,0.001000
1005.923077,0.019935,0.001000,0.001000,0.001000,0.001000,0.001000
1005.942308,0.018585,0.001000,0.001000,0.001000,0.001000,0.001000
1005.961538,0.017218,0.001000,0.001000,0.001000,0.001000,0.001000
1005.980769,0.015837,0.001000,0.001000,0.001000,0.001000,0.001000
1006.000000,0.014443,0.001000,0.001000,0.001000,0.001000,0.001000
1006.019231,0.013036,0.001000,0.001000,0.001000,0.001000,0.001000
1006.038462,0.011618,0.001000,0.001000,0.001000,0.001000,0.001000
1006.057692,0.010189,0.001000,0.001000,0.001000,0.001000,0.001000
1006.076923,0.008753,0.001000,0.001000,0.001000,0.001000,0.001000
1006.096154,0.007308,0.001000,0.001000,0.001000,0.001000,0.001000
1006.115385,0.005858,0.001000,0.001000,0.001000,0.001000,0.001000
1006.134615,0.004402,0.001000,0.001000,0.001000,0.001000,0.001000
1006.153846,0.002942,0.001000,0.001000,0.001000,0.001000,0.001000
1006.173077,0.001481,0.001000,0.001000,0.001000,0.001000,0.001000
1006.192308,0.000017,0.001000,0.001000,0.001000,0.001000,0.001000
1006.211538,-0.001446,0.001000,0.001000,0.001000,0.001000,0.001000
1006.230769,-0.002908,0.001000,0.001000,0.001000,0.001000,0.001000
1006.250000,-0.004367,0.001000,0.001000,0.001000,0.001000,0.001000
1006.269231,-0.005823,0.001000,0.001000,0.001000,0.001000,0.001000
1006.288462,-0.007274,0.001000,0.001000,0.001000,0.001000,0.001000
1006.307692,-0.008718,0.001000,0.001000,0.001000,0.001000,0.001000
1006.326923,-0.010155,0.001000,0.001000,0.001000,0.001000,0.001000
1006.346154,-0.011584,0.001000,0.001000,0.001000,0.001000,0.001000
1006.365385,-0.013002,0.001000,0.001000,0.001000,0.001000,0.001000
1006.384615,-0.014410,0.001000,0.001000,0.001000,0.001000,0.001000
1006.403846,-0.015805,0.001000,0.001000,0.001000,0.001000,0.001000
1006.423077,-0.017186,0.001000,0.001000,0.001000,0.001000,0.001000
1006.442308,-0.018553,0.001000,0.001000,0.001000,0.001000,0.001000
1006.461538,-0.019903,0.001000,0.001000,0.001000,0.001000,0.001000
1006.480769,-0.021237,0.001000,0.001000,0.001000,0.001000,0.001000
1006.500000,-0.022553,0.001000,0.001000,0.001000,0.001000,0.001000
1006.519231,-0.023849,0.001000,0.001000,0.001000,0.001000,0.001000
1006.538462,-0.025125,0.001000,0.001000,0.001000,0.001000,0.001000
1006.557692,-0.026379,0.001000,0.001000,0.001000,0.001000,0.001000
1006.576923,-0.027611,0.001000,0.001000,0.001000,0.001000,0.001000
1006.596154,-0.028819,0.001000,0.001000,0.001000,0.001000,0.001000
1006.615385,-0.030002,0.001000,0.001000,0.001000,0.001000,0.001000
1006.634615,-0.031160,0.001000,0.001000,0.001000,0.001000,0.001000
1006.653846,-0.032291,0.001000,0.001000,0.001000,0.001000,0.001000
1006.673077,-0.033394,0.001000,0.001000,0.001000,0.001000,0.001000
1006.692308,-0.034469,0.001000,0.001000,0.001000,0.001000,0.001000
1006.711538,-0.035514,0.001000,0.001000,0.001000,0.001000,0.001000
1006.730769,-0.036529,0.001000,0.001000,0.001000,0.001000,0.001000
1006.750000,-0.037512,0.001000,0.001000,0.001000,0.001000,0.001000
1006.769231,-0.038464,0.001000,0.001000,0.001000,0.001000,0.001000
1006.788462,-0.039382,0.001000,0.001000,0.001000,0.001000,0.001000
1006.807692,-0.040267,0.001000,0.001000,0.001000,0.001000,0.001000
1006.826923,-0.041117,0.001000,0.001000,0.001000,0.001000,0.001000
1006.846154,-0.041932,0.001000,0.001000,0.001000,0.001000,0.001000
1006.865385,-0.042711,0.001000,0.001000,0.001000,0.001000,0.001000
1006.884615,-0.043453,0.001000,0.001000,0.001000,0.001000,0.001000
1006.903846,-0.044159,0.001000,0.001000,0.001000,0.001000,0.001000
1006.923077,-0.044826,0.001000,0.001000,0.001000,0.001000,0.001000
1006.942308,-0.045455,0.001000,0.001000,0.001000,0.001000,0.001000
1006.961538,-0.046045,0.001000,0.001000,0.001000,0.001000,0.001000
1006.980769,-0.046596,0.001000,0.001000,0.001000,0.001000,0.001000
1007.000000,-0.047106,0.001000,0.001000,0.001000,0.001000,0.001000
1007.019231,-0.047577,0.001000,0.001000,0.001000,0.001000,0.001000
1007.038462,-0.048006,0.001000,0.001000,0.001000,0.001000,0.001000
1007.057692,-0.048395,0.001000,0.001000,0.001000,0.001000,0.001000
1007.076923,-0.048742,0.001000,0.001000,0.001000,0.001000,0.001000
1007.096154,-0.049047,0.001000,0.001000,0.001000,0.001000,0.001000
1007.115385,-0.049311,0.001000,0.001000,0.001000,0.001000,0.001000
1007.134615,-0.049532,0.001000,0.001000,0.001000,0.001000,0.001000
1007.153846,-0.049710,0.001000,0.001000,0.001000,0.001000,0.001000
1007.173077,-0.049846,0.001000,0.001000,0.001000,0.001000,0.001000
1007.192308,-0.049940,0.001000,0.001000,0.001000,0.001000,0.001000
1007.211538,-0.049990,0.001000,0.001000,0.001000,0.001000,0.001000
1007.230769,-0.049998,0.001000,0.001000,0.001000,0.001000,0.001000
1007.250000,-0.049963,0.001000,0.001000,0.001000,0.001000,0.001000
1007.269231,-0.049885,0.001000,0.001000,0.001000,0.001000,0.001000
1007.288462,-0.049764,0.001000,0.001000,0.001000,0.001000,0.001000
1007.307692,-0.049601,0.001000,0.001000,0.001000,0.001000,0.001000
1007.326923,-0.049395,0.001000,0.001000,0.001000,0.001000,0.001000
1007.346154,-0.049147,0.001000,0.001000,0.001000,0.001000,0.001000
1007.365385,-0.048857,0.001000,0.001000,0.001000,0.001000,0.001000
1007.384615,-0.048525,0.001000,0.001000,0.001000,0.001000,0.001000
1007.403846,-0.048151,0.001000,0.001000,0.001000,0.001000,0.001000
1007.423077,-0.047737,0.001000,0.001000,0.001000,0.001000,0.001000
1007.442308,-0.047281,0.001000,0.001000,0.001000,0.001000,0.001000
1007.461538,-0.046785,0.001000,0.001000,0.001000,0.001000,0.001000
1007.480769,-0.046248,0.001000,0.001000,0.001000,0.001000,0.001000
1007.500000,-0.045673,0.001000,0.001000,0.001000,0.001000,0.001000
1007.519231,-0.045058,0.001000,0.001000,0.001000,0.001000,0.001000
1007.538462,-0.044404,0.001000,0.001000,0.001000,0.001000,0.001000
1007.557692,-0.043712,0.001000,0.001000,0.001000,0.001000,0.001000
1007.576923,-0.042983,0.001000,0.001000,0.001000,0.001000,0.001000
1007.596154,-0.042217,0.001000,0.001000,0.001000,0.001000,0.001000
1007.615385,-0.041415,0.001000,0.001000,0.001000,0.001000,0.001000
1007.634615,-0.040578,0.001000,0.001000,0.001000,0.001000,0.001000
1007.653846,-0.039705,0.001000,0.001000,0.001000,0.001000,0.001000
1007.673077,-0.038799,0.001000,0.001000,0.001000,0.001000,0.001000
1007.692308,-0.037860,0.001000,0.001000,0.001000,0.001000,0.001000
1007.711538,-0.036888,0.001000,0.001000,0.001000,0.001000,0.001000
1007.730769,-0.035884,0.001000,0.001000,0.001000,0.001000,0.001000
1007.750000,-0.034850,0.001000,0.001000,0.001000,0.001000,0.001000
1007.769231,-0.033786,0.001000,0.001000,0.001000,0.001000,0.001000
1007.788462,-0.032692,0.001000,0.001000,0.001000,0.001000,0.001000
1007.807692,-0.031571,0.001000,0.001000,0.001000,0.001000,0.001000
1007.826923,-0.030423,0.001000,0.001000,0.001000,0.001000,0.001000
1007.846154,-0.029249,0.001000,0.001000,0.001000,0.001000,0.001000
1007.865385,-0.028050,0.001000,0.001000,0.001000,0.001000,0.001000
1007.884615,-0.026826,0.001000,0.001000,0.001000,0.001000,0.001000
1007.903846,-0.025580,0.001000,0.001000,0.001000,0.001000,0.001000
1007.923077,-0.024312,0.001000,0.001000,0.001000,0.001000,0.001000
1007.942308,-0.023023,0.001000,0.001000,0.001000,0.001000,0.001000
1007.961538,-0.021714,0.001000,0.001000,0.001000,0.001000,0.001000
1007.980769,-0.020387,0.001000,0.001000,0.001000,0.001000,0.001000
1008.000000,-0.019042,0.001000,0.001000,0.001000,0.001000,0.001000
1008.019231,-0.017681,0.001000,0.001000,0.001000,0.001000,0.001000
1008.038462,-0.016305,0.001000,0.001000,0.001000,0.001000,0.001000
1008.057692,-0.014915,0.001000,0.001000,0.001000,0.001000,0.001000
1008.076923,-0.013512,0.001000,0.001000,0.001000,0.001000,0.001000
1008.096154,-0.012097,0.001000,0.001000,0.001000,0.001000,0.001000
1008.115385,-0.010672,0.001000,0.001000,0.001000,0.001000,0.001000
1008.134615,-0.009238,0.001000,0.001000,0.001000,0.001000,0.001000
1008.153846,-0.007796,0.001000,0.001000,0.001000,0.001000,0.001000
1008.173077,-0.006347,0.001000,0.001000,0.001000,0.001000,0.001000
1008.192308,-0.004893,0.001000,0.001000,0.001000,0.001000,0.001000
1008.211538,-0.003435,0.001000,0.001000,0.001000,0.001000,0.001000
1008.230769,-0.001974,0.001000,0.001000,0.001000,0.001000,0.001000
1008.250000,-0.000511,0.001000,0.001000,0.001000,0.001000,0.001000
1008.269231,0.000952,0.001000,0.001000,0.001000,0.001000,0.001000
1008.288462,0.002415,0.001000,0.001000,0.001000,0.001000,0.001000
1008.307692,0.003875,0.001000,0.001000,0.001000,0.001000,0.001000
1008.326923,0.005333,0.001000,0.001000,0.001000,0.001000,0.001000
1008.346154,0.006785,0.001000,0.001000,0.001000,0.001000,0.001000
1008.365385,0.008232,0.001000,0.001000,0.001000,0.001000,0.001000
1008.384615,0.009672,0.001000,0.001000,0.001000,0.001000,0.001000
1008.403846,0.011103,0.001000,0.001000,0.001000,0.001000,0.001000
1008.423077,0.012525,0.001000,0.001000,0.001000,0.001000,0.001000
1008.442308,0.013936,0.001000,0.001000,0.001000,0.001000,0.001000
1008.461538,0.015335,0.001000,0.001000,0.001000,0.001000,0.001000
1008.480769,0.016722,0.001000,0.001000,0.001000,0.001000,0.001000
1008.500000,0.018093,0.001000,0.001000,0.001000,0.001000,0.001000
1008.519231,0.019450,0.001000,0.001000,0.001000,0.001000,0.001000
1008.538462,0.020789,0.001000,0.001000,0.001000,0.001000,0.001000
1008.557692,0.022111,0.001000,0.001000,0.001000,0.001000,0.001000
1008.576923,0.023414,0.001000,0.001000,0.001000,0.001000,0.001000
1008.596154,0.024697,0.001000,0.001000,0.001000,0.001000,0.001000
1008.615385,0.025959,0.001000,0.001000,0.001000,0.001000,0.001000
1008.634615,0.027198,0.001000,0.001000,0.001000,0.001000,0.001000
1008.653846,0.028414,0.001000,0.001000,0.001000,0.001000,0.001000
1008.673077,0.029606,0.001000,0.001000,0.001000,0.001000,0.001000
1008.692308,0.030772,0.001000,0.001000,0.001000,0.001000,0.001000
1008.711538,0.031913,0.001000,0.001000,0.001000,0.001000,0.001000
1008.730769,0.033025,0.001000,0.001000,0.001000,0.001000,0.001000
1008.750000,0.034110,0.001000,0.001000,0.001000,0.001000,0.001000
1008.769231,0.035165,0.001000,0.001000,0.001000,0.001000,0.001000
1008.788462,0.036190,0.001000,0.001000,0.001000,0.001000,0.001000
1008.807692,0.037184,0.001000,0.001000,0.001000,0.001000,0.001000
1008.826923,0.038147,0.001000,0.001000,0.001000,0.001000,0.001000
1008.846154,0.039076,0.001000,0.001000,0.001000,0.001000,0.001000
1008.865385,0.039972,0.001000,0.001000,0.001000,0.001000,0.001000
1008.884615,0.040834,0.001000,0.001000,0.001000,0.001000,0.001000
1008.903846,0.041661,0.001000,0.001000,0.001000,0.001000,0.001000
1008.923077,0.042452,0.001000,0.001000,0.001000,0.001000,0.001000
1008.942308,0.043207,0.001000,0.001000,0.001000,0.001000,0.001000
1008.961538,0.043925,0.001000,0.001000,0.001000,0.001000,0.001000
1008.980769,0.044605,0.001000,0.001000,0.001000,0.001000,0.001000
1009.000000,0.045247,0.001000,0.001000,0.001000,0.001000,0.001000
1009.019231,0.045851,0.001000,0.001000,0.001000,0.001000,0.001000
1009.038462,0.046414,0.001000,0.001000,0.001000,0.001000,0.001000
1009.057692,0.046939,0.001000,0.001000,0.001000,0.001000,0.001000
1009.076923,0.047423,0.001000,0.001000,0.001000,0.001000,0.001000
1009.096154,0.047866,0.001000,0.001000,0.001000,0.001000,0.001000
1009.115385,0.048269,0.001000,0.001000,0.001000,0.001000,0.001000
1009.134615,0.048630,0.001000,0.001000,0.001000,0.001000,0.001000
1009.153846,0.048949,0.001000,0.001000,0.001000,0.001000,0.001000
1009.173077,0.049226,0.001000,0.001000,0.001000,0.001000,0.001000
1009.192308,0.049462,0.001000,0.001000,0.001000,0.001000,0.001000
1009.211538,0.049655,0.001000,0.001000,0.001000,0.001000,0.001000
1009.230769,0.049805,0.001000,0.001000,0.001000,0.001000,0.001000
1009.250000,0.049913,0.001000,0.001000,0.001000,0.001000,0.001000
1009.269231,0.049978,0.001000,0.001000,0.001000,0.001000,0.001000
1009.288462,0.050000,0.001000,0.001000,0.001000,0.001000,0.001000
1009.307692,0.049979,0.001000,0.001000,0.001000,0.001000,0.001000
1009.326923,0.049916,0.001000,0.001000,0.001000,0.001000,0.001000
1009.346154,0.049810,0.001000,0.001000,0.001000,0.001000,0.001000
1009.365385,0.049661,0.001000,0.001000,0.001000,0.001000,0.001000
1009.384615,0.049469,0.001000,0.001000,0.001000,0.001000,0.001000
1009.403846,0.049236,0.001000,0.001000,0.001000,0.001000,0.001000
1009.423077,0.048960,0.001000,0.001000,0.001000,0.001000,0.001000
1009.442308,0.048642,0.001000,0.001000,0.001000,0.001000,0.001000
1009.461538,0.048282,0.001000,0.001000,0.001000,0.001000,0.001000
1009.480769,0.047881,0.001000,0.001000,0.001000,0.001000,0.001000
1009.500000,0.047439,0.001000,0.001000,0.001000,0.001000,0.001000
1009.519231,0.046957,0.001000,0.001000,0.001000,0.001000,0.001000
1009.538462,0.046434,0.001000,0.001000,0.001000,0.001000,0.001000
1009.557692,0.045871,0.001000,0.001000,0.001000,0.001000,0.001000
1009.576923,0.045269,0.001000,0.001000,0.001000,0.001000,0.001000
1009.596154,0.044629,0.001000,0.001000,0.001000,0.001000,0.001000
1009.615385,0.043950,0.001000,0.001000,0.001000,0.001000,0.001000
1009.634615,0.043233,0.001000,0.001000,0.001000,0.001000,0.001000
1009.653846,0.042480,0.001000,0.001000,0.001000,0.001000,0.001000
1009.673077,0.041690,0.001000,0.001000,0.001000,0.001000,0.001000
1009.692308,0.040864,0.001000,0.001000,0.001000,0.001000,0.001000
1009.711538,0.040003,0.001000,0.001000,0.001000,0.001000,0.001000
1009.730769,0.039109,0.001000,0.001000,0.001000,0.001000,0.001000
1009.750000,0.038180,0.001000,0.001000,0.001000,0.001000,0.001000
1009.769231,0.037219,0.001000,0.001000,0.001000,0.001000,0.001000
1009.788462,0.036226,0.001000,0.001000,0.001000,0.001000,0.001000
1009.807692,0.035202,0.001000,0.001000,0.001000,0.001000,0.001000
1009.826923,0.034148,0.001000,0.001000,0.001000,0.001000,0.001000
1009.846154,0.033064,0.001000,0.001000,0.001000,0.001000,0.001000
1009.865385,0.031953,0.001000,0.001000,0.001000,0.001000,0.001000
1009.884615,0.030813,0.001000,0.001000,0.001000,0.001000,0.001000
1009.903846,0.029648,0.001000,0.001000,0.001000,0.001000,0.001000
1009.923077,0.028457,0.001000,0.001000,0.001000,0.001000,0.001000
1009.942308,0.027242,0.001000,0.001000,0.001000,0.001000,0.001000
1009.961538,0.026003,0.001000,0.001000,0.001000,0.001000,0.001000
1009.980769,0.024742,0.001000,0.001000,0.001000,0.001000,0.001000
1010.000000,0.023460,0.001000,0.001000,0.001000,0.001000,0.001000
1010.019231,0.022158,0.001000,0.001000,0.001000,0.001000,0.001000
1010.038462,0.020837,0.001000,0.001000,0.001000,0.001000,0.001000
1010.057692,0.019498,0.001000,0.001000,0.001000,0.001000,0.001000
1010.076923,0.018142,0.001000,0.001000,0.001000,0.001000,0.001000
1010.096154,0.016771,0.001000,0.001000,0.001000,0.001000,0.001000
1010.115385,0.015385,0.001000,0.001000,0.001000,0.001000,0.001000
1010.134615,0.013986,0.001000,0.001000,0.001000,0.001000,0.001000
1010.153846,0.012575,0.001000,0.001000,0.001000,0.001000,0.001000
1010.173077,0.011154,0.001000,0.001000,0.001000,0.001000,0.001000
1010.192308,0.009723,0.001000,0.001000,0.001000,0.001000,0.001000
1010.211538,0.008283,0.001000,0.001000,0.001000,0.001000,0.001000
1010.230769,0.006837,0.001000,0.001000,0.001000,0.001000,0.001000
1010.250000,0.005384,0.001000,0.001000,0.001000,0.001000,0.001000
1010.269231,0.003927,0.001000,0.001000,0.001000,0.001000,0.001000
1010.288462,0.002467,0.001000,0.001000,0.001000,0.001000,0.001000
1010.307692,0.001004,0.001000,0.001000,0.001000,0.001000,0.001000
1010.326923,-0.000459,0.001000,0.001000,0.001000,0.001000,0.001000
1010.346154,-0.001922,0.001000,0.001000,0.001000,0.001000,0.001000
1010.365385,-0.003383,0.001000,0.001000,0.001000,0.001000,0.001000
1010.384615,-0.004842,0.001000,0.001000,0.001000,0.001000,0.001000
1010.403846,-0.006296,0.001000,0.001000,0.001000,0.001000,0.001000
1010.423077,-0.007745,0.001000,0.001000,0.001000,0.001000,0.001000
1010.442308,-0.009187,0.001000,0.001000,0.001000,0.001000,0.001000
1010.461538,-0.010621,0.001000,0.001000,0.001000,0.001000,0.001000
1010.480769,-0.012047,0.001000,0.001000,0.001000,0.001000,0.001000
1010.500000,-0.013462,0.001000,0.001000,0.001000,0.001000,0.001000
1010.519231,-0.014865,0.001000,0.001000,0.001000,0.001000,0.001000
1010.538462,-0.016256,0.001000,0.001000,0.001000,0.001000,0.001000
1010.557692,-0.017632,0.001000,0.001000,0.001000,0.001000,0.001000
1010.576923,-0.018994,0.001000,0.001000,0.001000,0.001000,0.001000
1010.596154,-0.020339,0.001000,0.001000,0.001000,0.001000,0.001000
1010.615385,-0.021667,0.001000,0.001000,0.001000,0.001000,0.001000
1010.634615,-0.022977,0.001000,0.001000,0.001000,0.001000,0.001000
1010.653846,-0.024267,0.001000,0.001000,0.001000,0.001000,0.001000
1010.673077,-0.025535,0.001000,0.001000,0.001000,0.001000,0.001000
1010.692308,-0.026783,0.001000,0.001000,0.001000,0.001000,0.001000
1010.711538,-0.028007,0.001000,0.001000,0.001000,0.001000,0.001000
1010.730769,-0.029207,0.001000,0.001000,0.001000,0.001000,0.001000
1010.750000,-0.030382,0.001000,0.001000,0.001000,0.001000,0.001000
1010.769231,-0.031531,0.001000,0.001000,0.001000,0.001000,0.001000
1010.788462,-0.032653,0.001000,0.001000,0.001000,0.001000,0.001000
1010.807692,-0.033747,0.001000,0.001000,0.001000,0.001000,0.001000
1010.826923,-0.034812,0.001000,0.001000,0.001000,0.001000,0.001000
1010.846154,-0.035848,0.001000,0.001000,0.001000,0.001000,0.001000
1010.865385,-0.036852,0.001000,0.001000,0.001000,0.001000,0.001000
1010.884615,-0.037826,0.001000,0.001000,0.001000,0.001000,0.001000
1010.903846,-0.038766,0.001000,0.001000,0.001000,0.001000,0.001000
1010.923077,-0.039674,0.001000,0.001000,0.001000,0.001000,0.001000
1010.942308,-0.040547,0.001000,0.001000,0.001000,0.001000,0.001000
1010.961538,-0.041386,0.001000,0.001000,0.001000,0.001000,0.001000
1010.980769,-0.042189,0.001000,0.001000,0.001000,0.001000,0.001000
1011.000000,-0.042957,0.001000,0.001000,0.001000,0.001000,0.001000
1011.019231,-0.043687,0.001000,0.001000,0.001000,0.001000,0.001000
1011.038462,-0.044380,0.001000,0.001000,0.001000,0.001000,0.001000
1011.057692,-0.045035,0.001000,0.001000,0.001000,0.001000,0.001000
1011.076923,-0.045651,0.001000,0.001000,0.001000,0.001000,0.001000
1011.096154,-0.046229,0.001000,0.001000,0.001000,0.001000,0.001000
1011.115385,-0.046766,0.001000,0.001000,0.001000,0.001000,0.001000
1011.134615,-0.047264,0.001000,0.001000,0.001000,0.001000,0.001000
1011.153846,-0.047721,0.001000,0.001000,0.001000,0.001000,0.001000
1011.173077,-0.048137,0.001000,0.001000,0.001000,0.001000,0.001000
1011.192308,-0.048512,0.001000,0.001000,0.001000,0.001000,0.001000
1011.211538,-0.048846,0.001000,0.001000,0.001000,0.001000,0.001000
1011.230769,-0.049138,0.001000,0.001000,0.001000,0.001000,0.001000
1011.250000,-0.049387,0.001000,0.001000,0.001000,0.001000,0.001000
1011.269231,-0.049594,0.001000,0.001000,0.001000,0.001000,0.001000
1011.288462,-0.049759,0.001000,0.001000,0.001000,0.001000,0.001000
1011.307692,-0.049881,0.001000,0.001000,0.001000,0.001000,0.001000
1011.326923,-0.049961,0.001000,0.001000,0.001000,0.001000,0.001000
1011.346154,-0.049997,0.001000,0.001000,0.001000,0.001000,0.001000
1011.365385,-0.049991,0.001000,0.001000,0.001000,0.001000,0.001000
1011.384615,-0.049942,0.001000,0.001000,0.001000,0.001000,0.001000
1011.403846,-0.049850,0.001000,0.001000,0.001000,0.001000,0.001000
1011.423077,-0.049716,0.001000,0.001000,0.001000,0.001000,0.001000
1011.442308,-0.049539,0.001000,0.001000,0.001000,0.001000,0.001000
1011.461538,-0.049319,0.001000,0.001000,0.001000,0.001000,0.001000
1011.480769,-0.049057,0.001000,0.001000,0.001000,0.001000,0.001000
1011.500000,-0.048754,0.001000,0.001000,0.001000,0.001000,0.001000
1011.519231,-0.048408,0.001000,0.001000,0.001000,0.001000,0.001000
1011.538462,-0.048021,0.001000,0.001000,0.001000,0.001000,0.001000
1011.557692,-0.047593,0.001000,0.001000,0.001000,0.001000,0.001000
1011.576923,-0.047124,0.001000,0.001000,0.001000,0.001000,0.001000
1011.596154,-0.046615,0.001000,0.001000,0.001000,0.001000,0.001000
1011.615385,-0.046065,0.001000,0.001000,0.001000,0.001000,0.001000
1011.634615,-0.045477,0.001000,0.001000,0.001000,0.001000,0.001000
1011.653846,-0.044849,0.001000,0.001000,0.001000,0.001000,0.001000
1011.673077,-0.044183,0.001000,0.001000,0.001000,0.001000,0.001000
1011.692308,-0.043479,0.001000,0.001000,0.001000,0.001000,0.001000
1011.711538,-0.042738,0.001000,0.001000,0.001000,0.001000,0.001000
1011.730769,-0.041960,0.001000,0.001000,0.001000,0.001000,0.001000
1011.750000,-0.041147,0.001000,0.001000,0.001000,0.001000,0.001000
1011.769231,-0.040298,0.001000,0.001000,0.001000,0.001000,0.001000
1011.788462,-0.039414,0.001000,0.001000,0.001000,0.001000,0.001000
1011.807692,-0.038497,0.001000,0.001000,0.001000,0.001000,0.001000
1011.826923,-0.037547,0.001000,0.001000,0.001000,0.001000,0.001000
1011.846154,-0.036564,0.001000,0.001000,0.001000,0.001000,0.001000
1011.865385,-0.035551,0.001000,0.001000,0.001000,0.001000,0.001000
1011.884615,-0.034507,0.001000,0.001000,0.001000,0.001000,0.001000
1011.903846,-0.033433,0.001000,0.001000,0.001000,0.001000,0.001000
1011.923077,-0.032331,0.001000,0.001000,0.001000,0.001000,0.001000
1011.942308,-0.031201,0.001000,0.001000,0.001000,0.001000,0.001000
1011.961538,-0.030044,0.001000,0.001000,0.001000,0.001000,0.001000
1011.980769,-0.028861,0.001000,0.001000,0.001000,0.001000,0.001000
1012.000000,-0.027654,0.001000,0.001000,0.001000,0.001000,0.001000
1012.019231,-0.026423,0.001000,0.001000,0.001000,0.001000,0.001000
1012.038462,-0.025170,0.001000,0.001000,0.001000,0.001000,0.001000
1012.057692,-0.023895,0.001000,0.001000,0.001000,0.001000,0.001000
1012.076923,-0.022599,0.001000,0.001000,0.001000,0.001000,0.001000
1012.096154,-0.021284,0.001000,0.001000,0.001000,0.001000,0.001000
1012.115385,-0.019951,0.001000,0.001000,0.001000,0.001000,0.001000
1012.134615,-0.018601,0.001000,0.001000,0.001000,0.001000,0.001000
1012.153846,-0.017235,0.001000,0.001000,0.001000,0.001000,0.001000
1012.173077,-0.015854,0.001000,0.001000,0.001000,0.001000,0.001000
1012.192308,-0.014459,0.001000,0.001000,0.001000,0.001000,0.001000
1012.211538,-0.013052,0.001000,0.001000,0.001000,0.001000,0.001000
1012.230769,-0.011634,0.001000,0.001000,0.001000,0.001000,0.001000
1012.250000,-0.010206,0.001000,0.001000,0.001000,0.001000,0.001000
1012.269231,-0.008770,0.001000,0.001000,0.001000,0.001000,0.001000
1012.288462,-0.007325,0.001000,0.001000,0.001000,0.001000,0.001000
1012.307692,-0.005875,0.001000,0.001000,0.001000,0.001000,0.001000
1012.326923,-0.004419,0.001000,0.001000,0.001000,0.001000,0.001000
1012.346154,-0.002960,0.001000,0.001000,0.001000,0.001000,0.001000
1012.365385,-0.001498,0.001000,0.001000,0.001000,0.001000,0.001000
1012.384615,-0.000035,0.001000,0.001000,0.001000,0.001000,0.001000
1012.403846,0.001429,0.001000,0.001000,0.001000,0.001000,0.001000
1012.423077,0.002891,0.001000,0.001000,0.001000,0.001000,0.001000
1012.442308,0.004350,0.001000,0.001000,0.001000,0.001000,0.001000
1012.461538,0.005806,0.001000,0.001000,0.001000,0.001000,0.001000
1012.480769,0.007257,0.001000,0.001000,0.001000,0.001000,0.001000
1012.500000,0.008701,0.001000,0.001000,0.001000,0.001000,0.001000
1012.519231,0.010138,0.001000,0.001000,0.001000,0.001000,0.001000
1012.538462,0.011567,0.001000,0.001000,0.001000,0.001000,0.001000
1012.557692,0.012986,0.001000,0.001000,0.001000,0.001000,0.001000
1012.576923,0.014393,0.001000,0.001000,0.001000,0.001000,0.001000
1012.596154,0.015788,0.001000,0.001000,0.001000,0.001000,0.001000
1012.615385,0.017170,0.001000,0.001000,0.001000,0.001000,0.001000
1012.634615,0.018537,0.001000,0.001000,0.001000,0.001000,0.001000
1012.653846,0.019888,0.001000,0.001000,0.001000,0.001000,0.001000
1012.673077,0.021222,0.001000,0.001000,0.001000,0.001000,0.001000
1012.692308,0.022537,0.001000,0.001000,0.001000,0.001000,0.001000
1012.711538,0.023834,0.001000,0.001000,0.001000,0.001000,0.001000
1012.730769,0.025110,0.001000,0.001000,0.001000,0.001000,0.001000
1012.750000,0.026364,0.001000,0.001000,0.001000,0.001000,0.001000
1012.769231,0.027596,0.001000,0.001000,0.001000,0.001000,0.001000
1012.788462,0.028805,0.001000,0.001000,0.001000,0.001000,0.001000
1012.807692,0.029988,0.001000,0.001000,0.001000,0.001000,0.001000
1012.826923,0.031146,0.001000,0.001000,0.001000,0.001000,0.001000
1012.846154,0.032278,0.001000,0.001000,0.001000,0.001000,0.001000
1012.865385,0.033381,0.001000,0.001000,0.001000,0.001000,0.001000
1012.884615,0.034456,0.001000,0.001000,0.001000,0.001000,0.001000
1012.903846,0.035502,0.001000,0.001000,0.001000,0.001000,0.001000
1012.923077,0.036517,0.001000,0.001000,0.001000,0.001000,0.001000
1012.942308,0.037501,0.001000,0.001000,0.001000,0.001000,0.001000
1012.961538,0.038453,0.001000,0.001000,0.001000,0.001000,0.001000
1012.980769,0.039371,0.001000,0.001000,0.001000,0.001000,0.001000
1013.000000,0.040257,0.001000,0.001000,0.001000,0.001000,0.001000
1013.019231,0.041107,0.001000,0.001000,0.001000,0.001000,0.001000
1013.038462,0.041923,0.001000,0.001000,0.001000,0.001000,0.001000
1013.057692,0.042702,0.001000,0.001000,0.001000,0.001000,0.001000
1013.076923,0.043445,0.001000,0.001000,0.001000,0.001000,0.001000
1013.096154,0.044151,0.001000,0.001000,0.001000,0.001000,0.001000
1013.115385,0.044818,0.001000,0.001000,0.001000,0.001000,0.001000
1013.134615,0.045448,0.001000,0.001000,0.001000,0.001000,0.001000
1013.153846,0.046038,0.001000,0.001000,0.001000,0.001000,0.001000
1013.173077,0.046589,0.001000,0.001000,0.001000,0.001000,0.001000
1013.192308,0.047101,0.001000,0.001000,0.001000,0.001000,0.001000
1013.211538,0.047572,0.001000,0.001000,0.001000,0.001000,0.001000
1013.230769,0.048002,0.001000,0.001000,0.001000,0.001000,0.001000
1013.250000,0.048391,0.001000,0.001000,0.001000,0.001000,0.001000
1013.269231,0.048738,0.001000,0.001000,0.001000,0.001000,0.001000
1013.288462,0.049044,0.001000,0.001000,0.001000,0.001000,0.001000
1013.307692,0.049308,0.001000,0.001000,0.001000,0.001000,0.001000
1013.326923,0.049529,0.001000,0.001000,0.001000,0.001000,0.001000
1013.346154,0.049708,0.001000,0.001000,0.001000,0.001000,0.001000
1013.365385,0.049845,0.001000,0.001000,0.001000,0.001000,0.001000
1013.384615,0.049939,0.001000,0.001000,0.001000,0.001000,0.001000
1013.403846,0.049990,0.001000,0.001000,0.001000,0.001000,0.001000
1013.423077,0.049998,0.001000,0.001000,0.001000,0.001000,0.001000
1013.442308,0.049963,0.001000,0.001000,0.001000,0.001000,0.001000
1013.461538,0.049886,0.001000,0.001000,0.001000,0.001000,0.001000
1013.480769,0.049766,0.001000,0.001000,0.001000,0.001000,0.001000
1013.500000,0.049603,0.001000,0.001000,0.001000,0.001000,0.001000
1013.519231,0.049398,0.001000,0.001000,0.001000,0.001000,0.001000
1013.538462,0.049150,0.001000,0.001000,0.001000,0.001000,0.001000
1013.557692,0.048861,0.001000,0.001000,0.001000,0.001000,0.001000
1013.576923,0.048529,0.001000,0.001000,0.001000,0.001000,0.001000
1013.596154,0.048156,0.001000,0.001000,0.001000,0.001000,0.001000
1013.615385,0.047742,0.001000,0.001000,0.001000,0.001000,0.001000
1013.634615,0.047287,0.001000,0.001000,0.001000,0.001000,0.001000
1013.653846,0.046791,0.001000,0.001000,0.001000,0.001000,0.001000
1013.673077,0.046255,0.001000,0.001000,0.001000,0.001000,0.001000
1013.692308,0.045680,0.001000,0.001000,0.001000,0.001000,0.001000
1013.711538,0.045065,0.001000,0.001000,0.001000,0.001000,0.001000
1013.730769,0.044412,0.001000,0.001000,0.001000,0.001000,0.001000
1013.750000,0.043721,0.001000,0.001000,0.001000,0.001000,0.001000
1013.769231,0.042992,0.001000,0.001000,0.001000,0.001000,0.001000
1013.788462,0.042227,0.001000,0.001000,0.001000,0.001000,0.001000
1013.807692,0.041425,0.001000,0.001000,0.001000,0.001000,0.001000
1013.826923,0.040588,0.001000,0.001000,0.001000,0.001000,0.001000
1013.846154,0.039716,0.001000,0.001000,0.001000,0.001000,0.001000
1013.865385,0.038810,0.001000,0.001000,0.001000,0.001000,0.001000
1013.884615,0.037871,0.001000,0.001000,0.001000,0.001000,0.001000
1013.903846,0.036899,0.001000,0.001000,0.001000,0.001000,0.001000
1013.923077,0.035896,0.001000,0.001000,0.001000,0.001000,0.001000
1013.942308,0.034862,0.001000,0.001000,0.001000,0.001000,0.001000
1013.961538,0.033798,0.001000,0.001000,0.001000,0.001000,0.001000
1013.980769,0.032706,0.001000,0.001000,0.001000,0.001000,0.001000
1014.000000,0.031585,0.001000,0.001000,0.001000,0.001000,0.001000
1014.019231,0.030437,0.001000,0.001000,0.001000,0.001000,0.001000
1014.038462,0.029263,0.001000,0.001000,0.001000,0.001000,0.001000
1014.057692,0.028064,0.001000,0.001000,0.001000,0.001000,0.001000
1014.076923,0.026841,0.001000,0.001000,0.001000,0.001000,0.001000
1014.096154,0.025595,0.001000,0.001000,0.001000,0.001000,0.001000
1014.115385,0.024327,0.001000,0.001000,0.001000,0.001000,0.001000
1014.134615,0.023038,0.001000,0.001000,0.001000,0.001000,0.001000
1014.153846,0.021730,0.001000,0.001000,0.001000,0.001000,0.001000
1014.173077,0.020403,0.001000,0.001000,0.001000,0.001000,0.001000
1014.192308,0.019058,0.001000,0.001000,0.001000,0.001000,0.001000
1014.211538,0.017697,0.001000,0.001000,0.001000,0.001000,0.001000
1014.230769,0.016321,0.001000,0.001000,0.001000,0.001000,0.001000
1014.250000,0.014931,0.001000,0.001000,0.001000,0.001000,0.001000
1014.269231,0.013528,0.001000,0.001000,0.001000,0.001000,0.001000
1014.288462,0.012114,0.001000,0.001000,0.001000,0.001000,0.001000
1014.307692,0.010689,0.001000,0.001000,0.001000,0.001000,0.001000
1014.326923,0.009255,0.001000,0.001000,0.001000,0.001000,0.001000
1014.346154,0.007813,0.001000,0.001000,0.001000,0.001000,0.001000
1014.365385,0.006365,0.001000,0.001000,0.001000,0.001000,0.001000
1014.384615,0.004911,0.001000,0.001000,0.001000,0.001000,0.001000
1014.403846,0.003452,0.001000,0.001000,0.001000,0.001000,0.001000
1014.423077,0.001991,0.001000,0.001000,0.001000,0.001000,0.001000
1014.442308,0.000528,0.001000,0.001000,0.001000,0.001000,0.001000
1014.461538,-0.000935,0.001000,0.001000,0.001000,0.001000,0.001000
1014.480769,-0.002398,0.001000,0.001000,0.001000,0.001000,0.001000
1014.500000,-0.003858,0.001000,0.001000,0.001000,0.001000,0.001000
1014.519231,-0.005315,0.001000,0.001000,0.001000,0.001000,0.001000
1014.538462,-0.006768,0.001000,0.001000,0.001000,0.001000,0.001000
1014.557692,-0.008215,0.001000,0.001000,0.001000,0.001000,0.001000
1014.576923,-0.009655,0.001000,0.001000,0.001000,0.001000,0.001000
1014.596154,-0.011086,0.001000,0.001000,0.001000,0.001000,0.001000
1014.615385,-0.012508,0.001000,0.001000,0.001000,0.001000,0.001000
1014.634615,-0.013920,0.001000,0.001000,0.001000,0.001000,0.001000
1014.653846,-0.015319,0.001000,0.001000,0.001000,0.001000,0.001000
1014.673077,-0.016705,0.001000,0.001000,0.001000,0.001000,0.001000
1014.692308,-0.018077,0.001000,0.001000,0.001000,0.001000,0.001000
1014.711538,-0.019434,0.001000,0.001000,0.001000,0.001000,0.001000
1014.730769,-0.020774,0.001000,0.001000,0.001000,0.001000,0.001000
1014.750000,-0.022096,0.001000,0.001000,0.001000,0.001000,0.001000
1014.769231,-0.023399,0.001000,0.001000,0.001000,0.001000,0.001000
1014.788462,-0.024682,0.001000,0.001000,0.001000,0.001000,0.001000
1014.807692,-0.025944,0.001000,0.001000,0.001000,0.001000,0.001000
1014.826923,-0.027183,0.001000,0.001000,0.001000,0.001000,0.001000
1014.846154,-0.028400,0.001000,0.001000,0.001000,0.001000,0.001000
1014.865385,-0.029592,0.001000,0.001000,0.001000,0.001000,0.001000
1014.884615,-0.030759,0.001000,0.001000,0.001000,0.001000,0.001000
1014.903846,-0.031899,0.001000,0.001000,0.001000,0.001000,0.001000
1014.923077,-0.033012,0.001000,0.001000,0.001000,0.001000,0.001000
1014.942308,-0.034097,0.001000,0.001000,0.001000,0.001000,0.001000
1014.961538,-0.035153,0.001000,0.001000,0.001000,0.001000,0.001000
1014.980769,-0.036178,0.001000,0.001000,0.001000,0.001000,0.001000
1015.000000,-0.037173,0.001000,0.001000,0.001000,0.001000,0.001000
1015.019231,-0.038135,0.001000,0.001000,0.001000,0.001000,0.001000
1015.038462,-0.039065,0.001000,0.001000,0.001000,0.001000,0.001000
1015.057692,-0.039962,0.001000,0.001000,0.001000,0.001000,0.001000
1015.076923,-0.040824,0.001000,0.001000,0.001000,0.001000,0.001000
1015.096154,-0.041651,0.001000,0.001000,0.001000,0.001000,0.001000
1015.115385,-0.042443,0.001000,0.001000,0.001000,0.001000,0.001000
1015.134615,-0.043198,0.001000,0.001000,0.001000,0.001000,0.001000
1015.153846,-0.043917,0.001000,0.001000,0.001000,0.001000,0.001000
1015.173077,-0.044597,0.001000,0.001000,0.001000,0.001000,0.001000
1015.192308,-0.045240,0.001000,0.001000,0.001000,0.001000,0.001000
1015.211538,-0.045844,0.001000,0.001000,0.001000,0.001000,0.001000
1015.230769,-0.046408,0.001000,0.001000,0.001000,0.001000,0.001000
1015.250000,-0.046933,0.001000,0.001000,0.001000,0.001000,0.001000
1015.269231,-0.047417,0.001000,0.001000,0.001000,0.001000,0.001000
1015.288462,-0.047861,0.001000,0.001000,0.001000,0.001000,0.001000
1015.307692,-0.048264,0.001000,0.001000,0.001000,0.001000,0.001000
1015.326923,-0.048626,0.001000,0.001000,0.001000,0.001000,0.001000
1015.346154,-0.048945,0.001000,0.001000,0.001000,0.001000,0.001000
1015.365385,-0.049223,0.001000,0.001000,0.001000,0.001000,0.001000
1015.384615,-0.049459,0.001000,0.001000,0.001000,0.001000,0.001000
1015.403846,-0.049653,0.001000,0.001000,0.001000,0.001000,0.001000
1015.423077,-0.049804,0.001000,0.001000,0.001000,0.001000,0.001000
1015.442308,-0.049912,0.001000,0.001000,0.001000,0.001000,0.001000
1015.461538,-0.049977,0.001000,0.001000,0.001000,0.001000,0.001000
1015.480769,-0.050000,0.001000,0.001000,0.001000,0.001000,0.001000
1015.500000,-0.049980,0.001000,0.001000,0.001000,0.001000,0.001000
1015.519231,-0.049917,0.001000,0.001000,0.001000,0.001000,0.001000
1015.538462,-0.049811,0.001000,0.001000,0.001000,0.001000,0.001000
1015.557692,-0.049663,0.001000,0.001000,0.001000,0.001000,0.001000
1015.576923,-0.049472,0.001000,0.001000,0.001000,0.001000,0.001000
1015.596154,-0.049239,0.001000,0.001000,0.001000,0.001000,0.001000
1015.615385,-0.048963,0.001000,0.001000,0.001000,0.001000,0.001000
1015.634615,-0.048646,0.001000,0.001000,0.001000,0.001000,0.001000
1015.653846,-0.048287,0.001000,0.001000,0.001000,0.001000,0.001000
1015.673077,-0.047886,0.001000,0.001000,0.001000,0.001000,0.001000
1015.692308,-0.047445,0.001000,0.001000,0.001000,0.001000,0.001000
1015.711538,-0.046963,0.001000,0.001000,0.001000,0.001000,0.001000
1015.730769,-0.046440,0.001000,0.001000,0.001000,0.001000,0.001000
1015.750000,-0.045878,0.001000,0.001000,0.001000,0.001000,0.001000
1015.769231,-0.045277,0.001000,0.001000,0.001000,0.001000,0.001000
1015.788462,-0.044637,0.001000,0.001000,0.001000,0.001000,0.001000
1015.807692,-0.043958,0.001000,0.001000,0.001000,0.001000,0.001000
1015.826923,-0.043242,0.001000,0.001000,0.001000,0.001000,0.001000
1015.846154,-0.042489,0.001000,0.001000,0.001000,0.001000,0.001000
1015.865385,-0.041699,0.001000,0.001000,0.001000,0.001000,0.001000
1015.884615,-0.040874,0.001000,0.001000,0.001000,0.001000,0.001000
1015.903846,-0.040014,0.001000,0.001000,0.001000,0.001000,0.001000
1015.923077,-0.039119,0.001000,0.001000,0.001000,0.001000,0.001000
1015.942308,-0.038191,0.001000,0.001000,0.001000,0.001000,0.001000
1015.961538,-0.037231,0.001000,0.001000,0.001000,0.001000,0.001000
1015.980769,-0.036238,0.001000,0.001000,0.001000,0.001000,0.001000
1016.000000,-0.035214,0.001000,0.001000,0.001000,0.001000,0.001000
1016.019231,-0.034160,0.001000,0.001000,0.001000,0.001000,0.001000
1016.038462,-0.033077,0.001000,0.001000,0.001000,0.001000,0.001000
1016.057692,-0.031966,0.001000,0.001000,0.001000,0.001000,0.001000
1016.076923,-0.030827,0.001000,0.001000,0.001000,0.001000,0.001000
1016.096154,-0.029662,0.001000,0.001000,0.001000,0.001000,0.001000
1016.115385,-0.028471,0.001000,0.001000,0.001000,0.001000,0.001000
1016.134615,-0.027256,0.001000,0.001000,0.001000,0.001000,0.001000
1016.153846,-0.026018,0.001000,0.001000,0.001000,0.001000,0.001000
1016.173077,-0.024757,0.001000,0.001000,0.001000,0.001000,0.001000
1016.192308,-0.023475,0.001000,0.001000,0.001000,0.001000,0.001000
1016.211538,-0.022173,0.001000,0.001000,0.001000,0.001000,0.001000
1016.230769,-0.020852,0.001000,0.001000,0.001000,0.001000,0.001000
1016.250000,-0.019514,0.001000,0.001000,0.001000,0.001000,0.001000
1016.269231,-0.018158,0.001000,0.001000,0.001000,0.001000,0.001000
1016.288462,-0.016787,0.001000,0.001000,0.001000,0.001000,0.001000
1016.307692,-0.015401,0.001000,0.001000,0.001000,0.001000,0.001000
1016.326923,-0.014003,0.001000,0.001000,0.001000,0.001000,0.001000
1016.346154,-0.012592,0.001000,0.001000,0.001000,0.001000,0.001000
1016.365385,-0.011171,0.001000,0.001000,0.001000,0.001000,0.001000
1016.384615,-0.009740,0.001000,0.001000,0.001000,0.001000,0.001000
1016.403846,-0.008300,0.001000,0.001000,0.001000,0.001000,0.001000
1016.423077,-0.006854,0.001000,0.001000,0.001000,0.001000,0.001000
1016.442308,-0.005402,0.001000,0.001000,0.001000,0.001000,0.001000
1016.461538,-0.003945,0.001000,0.001000,0.001000,0.001000,0.001000
1016.480769,-0.002484,0.001000,0.001000,0.001000,0.001000,0.001000
1016.500000,-0.001022,0.001000,0.001000,0.001000,0.001000,0.001000
1016.519231,0.000442,0.001000,0.001000,0.001000,0.001000,0.001000
1016.538462,0.001905,0.001000,0.001000,0.001000,0.001000,0.001000
1016.557692,0.003366,0.001000,0.001000,0.001000,0.001000,0.001000
1016.576923,0.004824,0.001000,0.001000,0.001000,0.001000,0.001000
1016.596154,0.006279,0.001000,0.001000,0.001000,0.001000,0.001000
1016.615385,0.007728,0.001000,0.001000,0.001000,0.001000,0.001000
1016.634615,0.009170,0.001000,0.001000,0.001000,0.001000,0.001000
1016.653846,0.010604,0.001000,0.001000,0.001000,0.001000,0.001000
1016.673077,0.012030,0.001000,0.001000,0.001000,0.001000,0.001000
1016.692308,0.013445,0.001000,0.001000,0.001000,0.001000,0.001000
1016.711538,0.014848,0.001000,0.001000,0.001000,0.001000,0.001000
1016.730769,0.016239,0.001000,0.001000,0.001000,0.001000,0.001000
1016.750000,0.017616,0.001000,0.001000,0.001000,0.001000,0.001000
1016.769231,0.018978,0.001000,0.001000,0.001000,0.001000,0.001000
1016.788462,0.020324,0.001000,0.001000,0.001000,0.001000,0.001000
1016.807692,0.021652,0.001000,0.001000,0.001000,0.001000,0.001000
1016.826923,0.022961,0.001000,0.001000,0.001000,0.001000,0.001000
1016.846154,0.024251,0.001000,0.001000,0.001000,0.001000,0.001000
1016.865385,0.025521,0.001000,0.001000,0.001000,0.001000,0.001000
1016.884615,0.026768,0.001000,0.001000,0.001000,0.001000,0.001000
1016.903846,0.027992,0.001000,0.001000,0.001000,0.001000,0.001000
1016.923077,0.029193,0.001000,0.001000,0.001000,0.001000,0.001000
1016.942308,0.030368,0.001000,0.001000,0.001000,0.001000,0.001000
1016.961538,0.031518,0.001000,0.001000,0.001000,0.001000,0.001000
1016.980769,0.032640,0.001000,0.001000,0.001000,0.001000,0.001000
1017.000000,0.033734,0.001000,0.001000,0.001000,0.001000,0.001000
1017.019231,0.034800,0.001000,0.001000,0.001000,0.001000,0.001000
1017.038462,0.035836,0.001000,0.001000,0.001000,0.001000,0.001000
1017.057692,0.036841,0.001000,0.001000,0.001000,0.001000,0.001000
1017.076923,0.037814,0.001000,0.001000,0.001000,0.001000,0.001000
1017.096154,0.038755,0.001000,0.001000,0.001000,0.001000,0.001000
1017.115385,0.039663,0.001000,0.001000,0.001000,0.001000,0.001000
1017.134615,0.040537,0.001000,0.001000,0.001000,0.001000,0.001000
1017.153846,0.041376,0.001000,0.001000,0.001000,0.001000,0.001000
1017.173077,0.042180,0.001000,0.001000,0.001000,0.001000,0.001000
1017.192308,0.042948,0.001000,0.001000,0.001000,0.001000,0.001000
1017.211538,0.043679,0.001000,0.001000,0.001000,0.001000,0.001000
1017.230769,0.044372,0.001000,0.001000,0.001000,0.001000,0.001000
1017.250000,0.045027,0.001000,0.001000,0.001000,0.001000,0.001000
1017.269231,0.045644,0.001000,0.001000,0.001000,0.001000,0.001000
1017.288462,0.046222,0.001000,0.001000,0.001000,0.001000,0.001000
1017.307692,0.046760,0.001000,0.001000,0.001000,0.001000,0.001000
1017.326923,0.047258,0.001000,0.001000,0.001000,0.001000,0.001000
1017.346154,0.047716,0.001000,0.001000,0.001000,0.001000,0.001000
1017.365385,0.048133,0.001000,0.001000,0.001000,0.001000,0.001000
1017.384615,0.048508,0.001000,0.001000,0.001000,0.001000,0.001000
1017.403846,0.048842,0.001000,0.001000,0.001000,0.001000,0.001000
1017.423077,0.049134,0.001000,0.001000,0.001000,0.001000,0.001000
1017.442308,0.049384,0.001000,0.001000,0.001000,0.001000,0.001000
1017.461538,0.049592,0.001000,0.001000,0.001000,0.001000,0.001000
1017.480769,0.049757,0.001000,0.001000,0.001000,0.001000,0.001000
1017.500000,0.049880,0.001000,0.001000,0.001000,0.001000,0.001000
1017.519231,0.049960,0.001000,0.001000,0.001000,0.001000,0.001000
1017.538462,0.049997,0.001000,0.001000,0.001000,0.001000,0.001000
1017.557692,0.049991,0.001000,0.001000,0.001000,0.001000,0.001000
1017.576923,0.049943,0.001000,0.001000,0.001000,0.001000,0.001000
1017.596154,0.049852,0.001000,0.001000,0.001000,0.001000,0.001000
1017.615385,0.049718,0.001000,0.001000,0.001000,0.001000,0.001000
1017.634615,0.049541,0.001000,0.001000,0.001000,0.001000,0.001000
1017.653846,0.049322,0.001000,0.001000,0.001000,0.001000,0.001000
1017.673077,0.049061,0.001000,0.001000,0.001000,0.001000,0.001000
1017.692308,0.048757,0.001000,0.001000,0.001000,0.001000,0.001000
1017.711538,0.048412,0.001000,0.001000,0.001000,0.001000,0.001000
1017.730769,0.048026,0.001000,0.001000,0.001000,0.001000,0.001000
1017.750000,0.047598,0.001000,0.001000,0.001000,0.001000,0.001000
1017.769231,0.047130,0.001000,0.001000,0.001000,0.001000,0.001000
1017.788462,0.046621,0.001000,0.001000,0.001000,0.001000,0.001000
1017.807692,0.046072,0.001000,0.001000,0.001000,0.001000,0.001000
1017.826923,0.045484,0.001000,0.001000,0.001000,0.001000,0.001000
1017.846154,0.044857,0.001000,0.001000,0.001000,0.001000,0.001000
1017.865385,0.044191,0.001000,0.001000,0.001000,0.001000,0.001000
1017.884615,0.043488,0.001000,0.001000,0.001000,0.001000,0.001000
1017.903846,0.042747,0.001000,0.001000,0.001000,0.001000,0.001000
1017.923077,0.041970,0.001000,0.001000,0.001000,0.001000,0.001000
1017.942308,0.041156,0.001000,0.001000,0.001000,0.001000,0.001000
1017.961538,0.040308,0.001000,0.001000,0.001000,0.001000,0.001000
1017.980769,0.039425,0.001000,0.001000,0.001000,0.001000,0.001000
1018.000000,0.038508,0.001000,0.001000,0.001000,0.001000,0.001000
1018.019231,0.037558,0.001000,0.001000,0.001000,0.001000,0.001000
1018.038462,0.036576,0.001000,0.001000,0.001000,0.001000,0.001000
1018.057692,0.035563,0.001000,0.001000,0.001000,0.001000,0.001000
1018.076923,0.034519,0.001000,0.001000,0.001000,0.001000,0.001000
1018.096154,0.033446,0.001000,0.001000,0.001000,0.001000,0.001000
1018.115385,0.032344,0.001000,0.001000,0.001000,0.001000,0.001000
1018.134615,0.031214,0.001000,0.001000,0.001000,0.001000,0.001000
1018.153846,0.030058,0.001000,0.001000,0.001000,0.001000,0.001000
1018.173077,0.028876,0.001000,0.001000,0.001000,0.001000,0.001000
1018.192308,0.027669,0.001000,0.001000,0.001000,0.001000,0.001000
1018.211538,0.026438,0.001000,0.001000,0.001000,0.001000,0.001000
1018.230769,0.025185,0.001000,0.001000,0.001000,0.001000,0.001000
1018.250000,0.023910,0.001000,0.001000,0.001000,0.001000,0.001000
1018.269231,0.022615,0.001000,0.001000,0.001000,0.001000,0.001000
1018.288462,0.021300,0.001000,0.001000,0.001000,0.001000,0.001000
1018.307692,0.019967,0.001000,0.001000,0.001000,0.001000,0.001000
1018.326923,0.018617,0.001000,0.001000,0.001000,0.001000,0.001000
1018.346154,0.017251,0.001000,0.001000,0.001000,0.001000,0.001000
1018.365385,0.015870,0.001000,0.001000,0.001000,0.001000,0.001000
1018.384615,0.014476,0.001000,0.001000,0.001000,0.001000,0.001000
1018.403846,0.013069,0.001000,0.001000,0.001000,0.001000,0.001000
1018.423077,0.011651,0.001000,0.001000,0.001000,0.001000,0.001000
1018.442308,0.010223,0.001000,0.001000,0.001000,0.001000,0.001000
1018.461538,0.008787,0.001000,0.001000,0.001000,0.001000,0.001000
1018.480769,0.007342,0.001000,0.001000,0.001000,0.001000,0.001000
1018.500000,0.005892,0.001000,0.001000,0.001000,0.001000,0.001000
1018.519231,0.004436,0.001000,0.001000,0.001000,0.001000,0.001000
1018.538462,0.002977,0.001000,0.001000,0.001000,0.001000,0.001000
1018.557692,0.001515,0.001000,0.001000,0.001000,0.001000,0.001000
1018.576923,0.000052,0.001000,0.001000,0.001000,0.001000,0.001000
1018.596154,-0.001411,0.001000,0.001000,0.001000,0.001000,0.001000
1018.615385,-0.002873,0.001000,0.001000,0.001000,0.001000,0.001000
1018.634615,-0.004333,0.001000,0.001000,0.001000,0.001000,0.001000
1018.653846,-0.005789,0.001000,0.001000,0.001000,0.001000,0.001000
1018.673077,-0.007240,0.001000,0.001000,0.001000,0.001000,0.001000
1018.692308,-0.008684,0.001000,0.001000,0.001000,0.001000,0.001000
1018.711538,-0.010122,0.001000,0.001000,0.001000,0.001000,0.001000
1018.730769,-0.011550,0.001000,0.001000,0.001000,0.001000,0.001000
1018.750000,-0.012969,0.001000,0.001000,0.001000,0.001000,0.001000
1018.769231,-0.014376,0.001000,0.001000,0.001000,0.001000,0.001000
1018.788462,-0.015772,0.001000,0.001000,0.001000,0.001000,0.001000
1018.807692,-0.017153,0.001000,0.001000,0.001000,0.001000,0.001000
1018.826923,-0.018520,0.001000,0.001000,0.001000,0.001000,0.001000
1018.846154,-0.019872,0.001000,0.001000,0.001000,0.001000,0.001000
1018.865385,-0.021206,0.001000,0.001000,0.001000,0.001000,0.001000
1018.884615,-0.022522,0.001000,0.001000,0.001000,0.001000,0.001000
1018.903846,-0.023819,0.001000,0.001000,0.001000,0.001000,0.001000
1018.923077,-0.025095,0.001000,0.001000,0.001000,0.001000,0.001000
1018.942308,-0.026350,0.001000,0.001000,0.001000,0.001000,0.001000
1018.961538,-0.027582,0.001000,0.001000,0.001000,0.001000,0.001000
1018.980769,-0.028791,0.001000,0.001000,0.001000,0.001000,0.001000
1019.000000,-0.029975,0.001000,0.001000,0.001000,0.001000,0.001000
1019.019231,-0.031133,0.001000,0.001000,0.001000,0.001000,0.001000
1019.038462,-0.032264,0.001000,0.001000,0.001000,0.001000,0.001000
1019.057692,-0.033368,0.001000,0.001000,0.001000,0.001000,0.001000
1019.076923,-0.034444,0.001000,0.001000,0.001000,0.001000,0.001000
1019.096154,-0.035490,0.001000,0.001000,0.001000,0.001000,0.001000
1019.115385,-0.036505,0.001000,0.001000,0.001000,0.001000,0.001000
1019.134615,-0.037489,0.001000,0.001000,0.001000,0.001000,0.001000
1019.153846,-0.038442,0.001000,0.001000,0.001000,0.001000,0.001000
1019.173077,-0.039361,0.001000,0.001000,0.001000,0.001000,0.001000
1019.192308,-0.040246,0.001000,0.001000,0.001000,0.001000,0.001000
1019.211538,-0.041097,0.001000,0.001000,0.001000,0.001000,0.001000
1019.230769,-0.041913,0.001000,0.001000,0.001000,0.001000,0.001000
1019.250000,-0.042693,0.001000,0.001000,0.001000,0.001000,0.001000
1019.269231,-0.043436,0.001000,0.001000,0.001000,0.001000,0.001000
1019.288462,-0.044142,0.001000,0.001000,0.001000,0.001000,0.001000
1019.307692,-0.044811,0.001000,0.001000,0.001000,0.001000,0.001000
1019.326923,-0.045441,0.001000,0.001000,0.001000,0.001000,0.001000
1019.346154,-0.046032,0.001000,0.001000,0.001000,0.001000,0.001000
1019.365385,-0.046583,0.001000,0.001000,0.001000,0.001000,0.001000
1019.384615,-0.047095,0.001000,0.001000,0.001000,0.001000,0.001000
1019.403846,-0.047566,0.001000,0.001000,0.001000,0.001000,0.001000
1019.423077,-0.047997,0.001000,0.001000,0.001000,0.001000,0.001000
1019.442308,-0.048386,0.001000,0.001000,0.001000,0.001000,0.001000
1019.461538,-0.048734,0.001000,0.001000,0.001000,0.001000,0.001000
1019.480769,-0.049041,0.001000,0.001000,0.001000,0.001000,0.001000
1019.500000,-0.049305,0.001000,0.001000,0.001000,0.001000,0.001000
1019.519231,-0.049527,0.001000,0.001000,0.001000,0.001000,0.001000
1019.538462,-0.049706,0.001000,0.001000,0.001000,0.001000,0.001000
1019.557692,-0.049843,0.001000,0.001000,0.001000,0.001000,0.001000
1019.576923,-0.049938,0.001000,0.001000,0.001000,0.001000,0.001000
1019.596154,-0.049989,0.001000,0.001000,0.001000,0.001000,0.001000
1019.615385,-0.049998,0.001000,0.001000,0.001000,0.001000,0.001000
1019.634615,-0.049964,0.001000,0.001000,0.001000,0.001000,0.001000
1019.653846,-0.049887,0.001000,0.001000,0.001000,0.001000,0.001000
1019.673077,-0.049768,0.001000,0.001000,0.001000,0.001000,0.001000
1019.692308,-0.049605,0.001000,0.001000,0.001000,0.001000,0.001000
1019.711538,-0.049401,0.001000,0.001000,0.001000,0.001000,0.001000
1019.730769,-0.049154,0.001000,0.001000,0.001000,0.001000,0.001000
1019.750000,-0.048864,0.001000,0.001000,0.001000,0.001000,0.001000
1019.769231,-0.048533,0.001000,0.001000,0.001000,0.001000,0.001000
1019.788462,-0.048161,0.001000,0.001000,0.001000,0.001000,0.001000
1019.807692,-0.047747,0.001000,0.001000,0.001000,0.001000,0.001000
1019.826923,-0.047292,0.001000,0.001000,0.001000,0.001000,0.001000
1019.846154,-0.046797,0.001000,0.001000,0.001000,0.001000,0.001000
1019.865385,-0.046262,0.001000,0.001000,0.001000,0.001000,0.001000
1019.884615,-0.045687,0.001000,0.001000,0.001000,0.001000,0.001000
1019.903846,-0.045073,0.001000,0.001000,0.001000,0.001000,0.001000
1019.923077,-0.044420,0.001000,0.001000,0.001000,0.001000,0.001000
1019.942308,-0.043729,0.001000,0.001000,0.001000,0.001000,0.001000
1019.961538,-0.043001,0.001000,0.001000,0.001000,0.001000,0.001000
1019.980769,-0.042236,0.001000,0.001000,0.001000,0.001000,0.001000
1020.000000,-0.041435,0.001000,0.001000,0.001000,0.001000,0.001000
1020.019231,-0.040598,0.001000,0.001000,0.001000,0.001000,0.001000
1020.038462,-0.039726,0.001000,0.001000,0.001000,0.001000,0.001000
1020.057692,-0.038821,0.001000,0.001000,0.001000,0.001000,0.001000
1020.076923,-0.037882,0.001000,0.001000,0.001000,0.001000,0.001000
1020.096154,-0.036911,0.001000,0.001000,0.001000,0.001000,0.001000
1020.115385,-0.035908,0.001000,0.001000,0.001000,0.001000,0.001000
1020.134615,-0.034875,0.001000,0.001000,0.001000,0.001000,0.001000
1020.153846,-0.033811,0.001000,0.001000,0.001000,0.001000,0.001000
1020.173077,-0.032719,0.001000,0.001000,0.001000,0.001000,0.001000
1020.192308,-0.031598,0.001000,0.001000,0.001000,0.001000,0.001000
1020.211538,-0.030451,0.001000,0.001000,0.001000,0.001000,0.001000
1020.230769,-0.029277,0.001000,0.001000,0.001000,0.001000,0.001000
1020.250000,-0.028078,0.001000,0.001000,0.001000,0.001000,0.001000
1020.269231,-0.026856,0.001000,0.001000,0.001000,0.001000,0.001000
1020.288462,-0.025610,0.001000,0.001000,0.001000,0.001000,0.001000
1020.307692,-0.024342,0.001000,0.001000,0.001000,0.001000,0.001000
1020.326923,-0.023054,0.001000,0.001000,0.001000,0.001000,0.001000
1020.346154,-0.021745,0.001000,0.001000,0.001000,0.001000,0.001000
1020.365385,-0.020419,0.001000,0.001000,0.001000,0.001000,0.001000
1020.384615,-0.019074,0.001000,0.001000,0.001000,0.001000,0.001000
1020.403846,-0.017713,0.001000,0.001000,0.001000,0.001000,0.001000
1020.423077,-0.016338,0.001000,0.001000,0.001000,0.001000,0.001000
1020.442308,-0.014948,0.001000,0.001000,0.001000,0.001000,0.001000
1020.461538,-0.013545,0.001000,0.001000,0.001000,0.001000,0.001000
1020.480769,-0.012131,0.001000,0.001000,0.001000,0.001000,0.001000
1020.500000,-0.010706,0.001000,0.001000,0.001000,0.001000,0.001000
1020.519231,-0.009272,0.001000,0.001000,0.001000,0.001000,0.001000
1020.538462,-0.007830,0.001000,0.001000,0.001000,0.001000,0.001000
1020.557692,-0.006382,0.001000,0.001000,0.001000,0.001000,0.001000
1020.576923,-0.004928,0.001000,0.001000,0.001000,0.001000,0.001000
1020.596154,-0.003470,0.001000,0.001000,0.001000,0.001000,0.001000
1020.615385,-0.002008,0.001000,0.001000,0.001000,0.001000,0.001000
1020.634615,-0.000546,0.001000,0.001000,0.001000,0.001000,0.001000
1020.653846,0.000918,0.001000,0.001000,0.001000,0.001000,0.001000
1020.673077,0.002380,0.001000,0.001000,0.001000,0.001000,0.001000
1020.692308,0.003841,0.001000,0.001000,0.001000,0.001000,0.001000
1020.711538,0.005298,0.001000,0.001000,0.001000,0.001000,0.001000
1020.730769,0.006751,0.001000,0.001000,0.001000,0.001000,0.001000
1020.750000,0.008198,0.001000,0.001000,0.001000,0.001000,0.001000
1020.769231,0.009638,0.001000,0.001000,0.001000,0.001000,0.001000
1020.788462,0.011069,0.001000,0.001000,0.001000,0.001000,0.001000
1020.807692,0.012491,0.001000,0.001000,0.001000,0.001000,0.001000
1020.826923,0.013903,0.001000,0.001000,0.001000,0.001000,0.001000
1020.846154,0.015303,0.001000,0.001000,0.001000,0.001000,0.001000
1020.865385,0.016689,0.001000,0.001000,0.001000,0.001000,0.001000
1020.884615,0.018061,0.001000,0.001000,0.001000,0.001000,0.001000
1020.903846,0.019418,0.001000,0.001000,0.001000,0.001000,0.001000
1020.923077,0.020758,0.001000,0.001000,0.001000,0.001000,0.001000
1020.942308,0.022080,0.001000,0.001000,0.001000,0.001000,0.001000
1020.961538,0.023383,0.001000,0.001000,0.001000,0.001000,0.001000
1020.980769,0.024667,0.001000,0.001000,0.001000,0.001000,0.001000
1021.000000,0.025929,0.001000,0.001000,0.001000,0.001000,0.001000
1021.019231,0.027169,0.001000,0.001000,0.001000,0.001000,0.001000
1021.038462,0.028386,0.001000,0.001000,0.001000,0.001000,0.001000
1021.057692,0.029578,0.001000,0.001000,0.001000,0.001000,0.001000
1021.076923,0.030745,0.001000,0.001000,0.001000,0.001000,0.001000
1021.096154,0.031886,0.001000,0.001000,0.001000,0.001000,0.001000
1021.115385,0.032999,0.001000,0.001000,0.001000,0.001000,0.001000
1021.134615,0.034084,0.001000,0.001000,0.001000,0.001000,0.001000
1021.153846,0.035140,0.001000,0.001000,0.001000,0.001000,0.001000
1021.173077,0.036166,0.001000,0.001000,0.001000,0.001000,0.001000
1021.192308,0.037161,0.001000,0.001000,0.001000,0.001000,0.001000
1021.211538,0.038124,0.001000,0.001000,0.001000,0.001000,0.001000
1021.230769,0.039055,0.001000,0.001000,0.001000,0.001000,0.001000
1021.250000,0.039951,0.001000,0.001000,0.001000,0.001000,0.001000
1021.269231,0.040814,0.001000,0.001000,0.001000,0.001000,0.001000
1021.288462,0.041642,0.001000,0.001000,0.001000,0.001000,0.001000
1021.307692,0.042434,0.001000,0.001000,0.001000,0.001000,0.001000
1021.326923,0.043190,0.001000,0.001000,0.001000,0.001000,0.001000
1021.346154,0.043908,0.001000,0.001000,0.001000,0.001000,0.001000
1021.365385,0.044590,0.001000,0.001000,0.001000,0.001000,0.001000
1021.384615,0.045232,0.001000,0.001000,0.001000,0.001000,0.001000
1021.403846,0.045837,0.001000,0.001000,0.001000,0.001000,0.001000
1021.423077,0.046402,0.001000,0.001000,0.001000,0.001000,0.001000
1021.442308,0.046927,0.001000,0.001000,0.001000,0.001000,0.001000
1021.461538,0.047412,0.001000,0.001000,0.001000,0.001000,0.001000
1021.480769,0.047856,0.001000,0.001000,0.001000,0.001000,0.001000
1021.500000,0.048259,0.001000,0.001000,0.001000,0.001000,0.001000
1021.519231,0.048622,0.001000,0.001000,0.001000,0.001000,0.001000
1021.538462,0.048942,0.001000,0.001000,0.001000,0.001000,0.001000
1021.557692,0.049220,0.001000,0.001000,0.001000,0.001000,0.001000
1021.576923,0.049457,0.001000,0.001000,0.001000,0.001000,0.001000
1021.596154,0.049651,0.001000,0.001000,0.001000,0.001000,0.001000
1021.615385,0.049802,0.001000,0.001000,0.001000,0.001000,0.001000
1021.634615,0.049911,0.001000,0.001000,0.001000,0.001000,0.001000
1021.653846,0.049977,0.001000,0.001000,0.001000,0.001000,0.001000
1021.673077,0.050000,0.001000,0.001000,0.001000,0.001000,0.001000
1021.692308,0.049980,0.001000,0.001000,0.001000,0.001000,0.001000
1021.711538,0.049918,0.001000,0.001000,0.001000,0.001000,0.001000
1021.730769,0.049813,0.001000,0.001000,0.001000,0.001000,0.001000
1021.750000,0.049665,0.001000,0.001000,0.001000,0.001000,0.001000
1021.769231,0.049474,0.001000,0.001000,0.001000,0.001000,0.001000
1021.788462,0.049242,0.001000,0.001000,0.001000,0.001000,0.001000
1021.807692,0.048967,0.001000,0.001000,0.001000,0.001000,0.001000
1021.826923,0.048650,0.001000,0.001000,0.001000,0.001000,0.001000
1021.846154,0.048291,0.001000,0.001000,0.001000,0.001000,0.001000
1021.865385,0.047891,0.001000,0.001000,0.001000,0.001000,0.001000
1021.884615,0.047450,0.001000,0.001000,0.001000,0.001000,0.001000
1021.903846,0.046968,0.001000,0.001000,0.001000,0.001000,0.001000
1021.923077,0.046447,0.001000,0.001000,0.001000,0.001000,0.001000
1021.942308,0.045885,0.001000,0.001000,0.001000,0.001000,0.001000
1021.961538,0.045284,0.001000,0.001000,0.001000,0.001000,0.001000
1021.980769,0.044644,0.001000,0.001000,0.001000,0.001000,0.001000
1022.000000,0.043966,0.001000,0.001000,0.001000,0.001000,0.001000
1022.019231,0.043251,0.001000,0.001000,0.001000,0.001000,0.001000
1022.038462,0.042498,0.001000,0.001000,0.001000,0.001000,0.001000
1022.057692,0.041709,0.001000,0.001000,0.001000,0.001000,0.001000
1022.076923,0.040884,0.001000,0.001000,0.001000,0.001000,0.001000
1022.096154,0.040024,0.001000,0.001000,0.001000,0.001000,0.001000
1022.115385,0.039130,0.001000,0.001000,0.001000,0.001000,0.001000
1022.134615,0.038202,0.001000,0.001000,0.001000,0.001000,0.001000
1022.153846,0.037242,0.001000,0.001000,0.001000,0.001000,0.001000
1022.173077,0.036250,0.001000,0.001000,0.001000,0.001000,0.001000
1022.192308,0.035227,0.001000,0.001000,0.001000,0.001000,0.001000
1022.211538,0.034173,0.001000,0.001000,0.001000,0.001000,0.001000
1022.230769,0.033090,0.001000,0.001000,0.001000,0.001000,0.001000
1022.250000,0.031979,0.001000,0.001000,0.001000,0.001000,0.001000
1022.269231,0.030841,0.001000,0.001000,0.001000,0.001000,0.001000
1022.288462,0.029676,0.001000,0.001000,0.001000,0.001000,0.001000
1022.307692,0.028485,0.001000,0.001000,0.001000,0.001000,0.001000
1022.326923,0.027271,0.001000,0.001000,0.001000,0.001000,0.001000
1022.346154,0.026033,0.001000,0.001000,0.001000,0.001000,0.001000
1022.365385,0.024772,0.001000,0.001000,0.001000,0.001000,0.001000
1022.384615,0.023491,0.001000,0.001000,0.001000,0.001000,0.001000
1022.403846,0.022189,0.001000,0.001000,0.001000,0.001000,0.001000
1022.423077,0.020868,0.001000,0.001000,0.001000,0.001000,0.001000
1022.442308,0.019530,0.001000,0.001000,0.001000,0.001000,0.001000
1022.461538,0.018174,0.001000,0.001000,0.001000,0.001000,0.001000
1022.480769,0.016803,0.001000,0.001000,0.001000,0.001000,0.001000
1022.500000,0.015418,0.001000,0.001000,0.001000,0.001000,0.001000
1022.519231,0.014019,0.001000,0.001000,0.001000,0.001000,0.001000
1022.538462,0.012609,0.001000,0.001000,0.001000,0.001000,0.001000
1022.557692,0.011188,0.001000,0.001000,0.001000,0.001000,0.001000
1022.576923,0.009757,0.001000,0.001000,0.001000,0.001000,0.001000
1022.596154,0.008317,0.001000,0.001000,0.001000,0.001000,0.001000
1022.615385,0.006871,0.001000,0.001000,0.001000,0.001000,0.001000
1022.634615,0.005419,0.001000,0.001000,0.001000,0.001000,0.001000
1022.653846,0.003962,0.001000,0.001000,0.001000,0.001000,0.001000
1022.673077,0.002502,0.001000,0.001000,0.001000,0.001000,0.001000
1022.692308,0.001039,0.001000,0.001000,0.001000,0.001000,0.001000
1022.711538,-0.000424,0.001000,0.001000,0.001000,0.001000,0.001000
1022.730769,-0.001887,0.001000,0.001000,0.001000,0.001000,0.001000
1022.750000,-0.003349,0.001000,0.001000,0.001000,0.001000,0.001000
1022.769231,-0.004807,0.001000,0.001000,0.001000,0.001000,0.001000
1022.788462,-0.006261,0.001000,0.001000,0.001000,0.001000,0.001000
1022.807692,-0.007710,0.001000,0.001000,0.001000,0.001000,0.001000
1022.826923,-0.009153,0.001000,0.001000,0.001000,0.001000,0.001000
1022.846154,-0.010587,0.001000,0.001000,0.001000,0.001000,0.001000
1022.865385,-0.012013,0.001000,0.001000,0.001000,0.001000,0.001000
1022.884615,-0.013428,0.001000,0.001000,0.001000,0.001000,0.001000
1022.903846,-0.014832,0.001000,0.001000,0.001000,0.001000,0.001000
1022.923077,-0.016223,0.001000,0.001000,0.001000,0.001000,0.001000
1022.942308,-0.017600,0.001000,0.001000,0.001000,0.001000,0.001000
1022.961538,-0.018962,0.001000,0.001000,0.001000,0.001000,0.001000
1022.980769,-0.020308,0.001000,0.001000,0.001000,0.001000,0.001000
1023.000000,-0.021636,0.001000,0.001000,0.001000,0.001000,0.001000
1023.019231,-0.022946,0.001000,0.001000,0.001000,0.001000,0.001000
1023.038462,-0.024236,0.001000,0.001000,0.001000,0.001000,0.001000
1023.057692,-0.025506,0.001000,0.001000,0.001000,0.001000,0.001000
1023.076923,-0.026753,0.001000,0.001000,0.001000,0.001000,0.001000
1023.096154,-0.027978,0.001000,0.001000,0.001000,0.001000,0.001000
1023.115385,-0.029179,0.001000,0.001000,0.001000,0.001000,0.001000
1023.134615,-0.030354,0.001000,0.001000,0.001000,0.001000,0.001000
1023.153846,-0.031504,0.001000,0.001000,0.001000,0.001000,0.001000
1023.173077,-0.032627,0.001000,0.001000,0.001000,0.001000,0.001000
1023.192308,-0.033722,0.001000,0.001000,0.001000,0.001000,0.001000
1023.211538,-0.034788,0.001000,0.001000,0.001000,0.001000,0.001000
1023.230769,-0.035824,0.001000,0.001000,0.001000,0.001000,0.001000
1023.250000,-0.036829,0.001000,0.001000,0.001000,0.001000,0.001000
1023.269231,-0.037803,0.001000,0.001000,0.001000,0.001000,0.001000
1023.288462,-0.038744,0.001000,0.001000,0.001000,0.001000,0.001000
1023.307692,-0.039653,0.001000,0.001000,0.001000,0.001000,0.001000
1023.326923,-0.040527,0.001000,0.001000,0.001000,0.001000,0.001000
1023.346154,-0.041367,0.001000,0.001000,0.001000,0.001000,0.001000
1023.365385,-0.042171,0.001000,0.001000,0.001000,0.001000,0.001000
1023.384615,-0.042939,0.001000,0.001000,0.001000,0.001000,0.001000
1023.403846,-0.043670,0.001000,0.001000,0.001000,0.001000,0.001000
1023.423077,-0.044364,0.001000,0.001000,0.001000,0.001000,0.001000
1023.442308,-0.045020,0.001000,0.001000,0.001000,0.001000,0.001000
1023.461538,-0.045637,0.001000,0.001000,0.001000,0.001000,0.001000
1023.480769,-0.046215,0.001000,0.001000,0.001000,0.001000,0.001000
1023.500000,-0.046754,0.001000,0.001000,0.001000,0.001000,0.001000
1023.519231,-0.047253,0.001000,0.001000,0.001000,0.001000,0.001000
1023.538462,-0.047711,0.001000,0.001000,0.001000,0.001000,0.001000
1023.557692,-0.048128,0.001000,0.001000,0.001000,0.001000,0.001000
1023.576923,-0.048504,0.001000,0.001000,0.001000,0.001000,0.001000
1023.596154,-0.048839,0.001000,0.001000,0.001000,0.001000,0.001000
1023.615385,-0.049131,0.001000,0.001000,0.001000,0.001000,0.001000
1023.634615,-0.049382,0.001000,0.001000,0.001000,0.001000,0.001000
1023.653846,-0.049590,0.001000,0.001000,0.001000,0.001000,0.001000
1023.673077,-0.049756,0.001000,0.001000,0.001000,0.001000,0.001000
1023.692308,-0.049879,0.001000,0.001000,0.001000,0.001000,0.001000
1023.711538,-0.049959,0.001000,0.001000,0.001000,0.001000,0.001000
1023.730769,-0.049997,0.001000,0.001000,0.001000,0.001000,0.001000
1023.750000,-0.049992,0.001000,0.001000,0.001000,0.001000,0.001000
1023.769231,-0.049944,0.001000,0.001000,0.001000,0.001000,0.001000
1023.788462,-0.049853,0.001000,0.001000,0.001000,0.001000,0.001000
1023.807692,-0.049719,0.001000,0.001000,0.001000,0.001000,0.001000
1023.826923,-0.049543,0.001000,0.001000,0.001000,0.001000,0.001000
1023.846154,-0.049325,0.001000,0.001000,0.001000,0.001000,0.001000
1023.865385,-0.049064,0.001000,0.001000,0.001000,0.001000,0.001000
1023.884615,-0.048761,0.001000,0.001000,0.001000,0.001000,0.001000
1023.903846,-0.048417,0.001000,0.001000,0.001000,0.001000,0.001000
1023.923077,-0.048031,0.001000,0.001000,0.001000,0.001000,0.001000
1023.942308,-0.047603,0.001000,0.001000,0.001000,0.001000,0.001000
1023.961538,-0.047135,0.001000,0.001000,0.001000,0.001000,0.001000
1023.980769,-0.046627,0.001000,0.001000,0.001000,0.001000,0.001000
1024.000000,-0.046079,0.001000,0.001000,0.001000,0.001000,0.001000
1024.019231,-0.045491,0.001000,0.001000,0.001000,0.001000,0.001000
1024.038462,-0.044864,0.001000,0.001000,0.001000,0.001000,0.001000
1024.057692,-0.044199,0.001000,0.001000,0.001000,0.001000,0.001000
1024.076923,-0.043496,0.001000,0.001000,0.001000,0.001000,0.001000
1024.096154,-0.042756,0.001000,0.001000,0.001000,0.001000,0.001000
1024.115385,-0.041979,0.001000,0.001000,0.001000,0.001000,0.001000
1024.134615,-0.041166,0.001000,0.001000,0.001000,0.001000,0.001000
1024.153846,-0.040318,0.001000,0.001000,0.001000,0.001000,0.001000
1024.173077,-0.039435,0.001000,0.001000,0.001000,0.001000,0.001000
1024.192308,-0.038519,0.001000,0.001000,0.001000,0.001000,0.001000
1024.211538,-0.037570,0.001000,0.001000,0.001000,0.001000,0.001000
1024.230769,-0.036588,0.001000,0.001000,0.001000,0.001000,0.001000
1024.250000,-0.035575,0.001000,0.001000,0.001000,0.001000,0.001000
1024.269231,-0.034532,0.001000,0.001000,0.001000,0.001000,0.001000
1024.288462,-0.033459,0.001000,0.001000,0.001000,0.001000,0.001000
1024.307692,-0.032357,0.001000,0.001000,0.001000,0.001000,0.001000
1024.326923,-0.031228,0.001000,0.001000,0.001000,0.001000,0.001000
1024.346154,-0.030072,0.001000,0.001000,0.001000,0.001000,0.001000
1024.365385,-0.028890,0.001000,0.001000,0.001000,0.001000,0.001000
1024.384615,-0.027683,0.001000,0.001000,0.001000,0.001000,0.001000
1024.403846,-0.026453,0.001000,0.001000,0.001000,0.001000,0.001000
1024.423077,-0.025200,0.001000,0.001000,0.001000,0.001000,0.001000
1024.442308,-0.023925,0.001000,0.001000,0.001000,0.001000,0.001000
1024.461538,-0.022630,0.001000,0.001000,0.001000,0.001000,0.001000
1024.480769,-0.021316,0.001000,0.001000,0.001000,0.001000,0.001000
1024.500000,-0.019983,0.001000,0.001000,0.001000,0.001000,0.001000
1024.519231,-0.018633,0.001000,0.001000,0.001000,0.001000,0.001000
1024.538462,-0.017267,0.001000,0.001000,0.001000,0.001000,0.001000
1024.557692,-0.015887,0.001000,0.001000,0.001000,0.001000,0.001000
1024.576923,-0.014493,0.001000,0.001000,0.001000,0.001000,0.001000
1024.596154,-0.013086,0.001000,0.001000,0.001000,0.001000,0.001000
1024.615385,-0.011668,0.001000,0.001000,0.001000,0.001000,0.001000
1024.634615,-0.010240,0.001000,0.001000,0.001000,0.001000,0.001000
1024.653846,-0.008804,0.001000,0.001000,0.001000,0.001000,0.001000
1024.673077,-0.007360,0.001000,0.001000,0.001000,0.001000,0.001000
1024.692308,-0.005909,0.001000,0.001000,0.001000,0.001000,0.001000
1024.711538,-0.004454,0.001000,0.001000,0.001000,0.001000,0.001000
1024.730769,-0.002994,0.001000,0.001000,0.001000,0.001000,0.001000
1024.750000,-0.001533,0.001000,0.001000,0.001000,0.001000,0.001000
1024.769231,-0.000069,0.001000,0.001000,0.001000,0.001000,0.001000
1024.788462,0.001394,0.001000,0.001000,0.001000,0.001000,0.001000
1024.807692,0.002856,0.001000,0.001000,0.001000,0.001000,0.001000
1024.826923,0.004316,0.001000,0.001000,0.001000,0.001000,0.001000
1024.846154,0.005771,0.001000,0.001000,0.001000,0.001000,0.001000
1024.865385,0.007222,0.001000,0.001000,0.001000,0.001000,0.001000
1024.884615,0.008667,0.001000,0.001000,0.001000,0.001000,0.001000
1024.903846,0.010105,0.001000,0.001000,0.001000,0.001000,0.001000
1024.923077,0.011533,0.001000,0.001000,0.001000,0.001000,0.001000
1024.942308,0.012952,0.001000,0.001000,0.001000,0.001000,0.001000
1024.961538,0.014360,0.001000,0.001000,0.001000,0.001000,0.001000
1024.980769,0.015755,0.001000,0.001000,0.001000,0.001000,0.001000
1025.000000,0.017137,0.001000,0.001000,0.001000,0.001000,0.001000
1025.019231,0.018504,0.001000,0.001000,0.001000,0.001000,0.001000
1025.038462,0.019856,0.001000,0.001000,0.001000,0.001000,0.001000
1025.057692,0.021190,0.001000,0.001000,0.001000,0.001000,0.001000
1025.076923,0.022506,0.001000,0.001000,0.001000,0.001000,0.001000
1025.096154,0.023803,0.001000,0.001000,0.001000,0.001000,0.001000
1025.115385,0.025080,0.001000,0.001000,0.001000,0.001000,0.001000
1025.134615,0.026335,0.001000,0.001000,0.001000,0.001000,0.001000
1025.153846,0.027568,0.001000,0.001000,0.001000,0.001000,0.001000
1025.173077,0.028776,0.001000,0.001000,0.001000,0.001000,0.001000
1025.192308,0.029961,0.001000,0.001000,0.001000,0.001000,0.001000
1025.211538,0.031119,0.001000,0.001000,0.001000,0.001000,0.001000
1025.230769,0.032251,0.001000,0.001000,0.001000,0.001000,0.001000
1025.250000,0.033356,0.001000,0.001000,0.001000,0.001000,0.001000
1025.269231,0.034431,0.001000,0.001000,0.001000,0.001000,0.001000
1025.288462,0.035478,0.001000,0.001000,0.001000,0.001000,0.001000
1025.307692,0.036493,0.001000,0.001000,0.001000,0.001000,0.001000
1025.326923,0.037478,0.001000,0.001000,0.001000,0.001000,0.001000
1025.346154,0.038431,0.001000,0.001000,0.001000,0.001000,0.001000
1025.365385,0.039350,0.001000,0.001000,0.001000,0.001000,0.001000
1025.384615,0.040236,0.001000,0.001000,0.001000,0.001000,0.001000
1025.403846,0.041087,0.001000,0.001000,0.001000,0.001000,0.001000
1025.423077,0.041904,0.001000,0.001000,0.001000,0.001000,0.001000
1025.442308,0.042684,0.001000,0.001000,0.001000,0.001000,0.001000
1025.461538,0.043428,0.001000,0.001000,0.001000,0.001000,0.001000
1025.480769,0.044134,0.001000,0.001000,0.001000,0.001000,0.001000
1025.500000,0.044803,0.001000,0.001000,0.001000,0.001000,0.001000
1025.519231,0.045433,0.001000,0.001000,0.001000,0.001000,0.001000
1025.538462,0.046025,0.001000,0.001000,0.001000,0.001000,0.001000
1025.557692,0.046577,0.001000,0.001000,0.001000,0.001000,0.001000
1025.576923,0.047089,0.001000,0.001000,0.001000,0.001000,0.001000
1025.596154,0.047561,0.001000,0.001000,0.001000,0.001000,0.001000
1025.615385,0.047992,0.001000,0.001000,0.001000,0.001000,0.001000
1025.634615,0.048382,0.001000,0.001000,0.001000,0.001000,0.001000
1025.653846,0.048730,0.001000,0.001000,0.001000,0.001000,0.001000
1025.673077,0.049037,0.001000,0.001000,0.001000,0.001000,0.001000
1025.692308,0.049302,0.001000,0.001000,0.001000,0.001000,0.001000
1025.711538,0.049524,0.001000,0.001000,0.001000,0.001000,0.001000
1025.730769,0.049705,0.001000,0.001000,0.001000,0.001000,0.001000
1025.750000,0.049842,0.001000,0.001000,0.001000,0.001000,0.001000
1025.769231,0.049937,0.001000,0.001000,0.001000,0.001000,0.001000
1025.788462,0.049989,0.001000,0.001000,0.001000,0.001000,0.001000
1025.807692,0.049998,0.001000,0.001000,0.001000,0.001000,0.001000
1025.826923,0.049965,0.001000,0.001000,0.001000,0.001000,0.001000
1025.846154,0.049888,0.001000,0.001000,0.001000,0.001000,0.001000
1025.865385,0.049769,0.001000,0.001000,0.001000,0.001000,0.001000
1025.884615,0.049607,0.001000,0.001000,0.001000,0.001000,0.001000
1025.903846,0.049403,0.001000,0.001000,0.001000,0.001000,0.001000
1025.923077,0.049157,0.001000,0.001000,0.001000,0.001000,0.001000
1025.942308,0.048868,0.001000,0.001000,0.001000,0.001000,0.001000
1025.961538,0.048538,0.001000,0.001000,0.001000,0.001000,0.001000
1025.980769,0.048165,0.001000,0.001000,0.001000,0.001000,0.001000
1026.000000,0.047752,0.001000,0.001000,0.001000,0.001000,0.001000
1026.019231,0.047298,0.001000,0.001000,0.001000,0.001000,0.001000
1026.038462,0.046803,0.001000,0.001000,0.001000,0.001000,0.001000
1026.057692,0.046268,0.001000,0.001000,0.001000,0.001000,0.001000
1026.076923,0.045694,0.001000,0.001000,0.001000,0.001000,0.001000
1026.096154,0.045080,0.001000,0.001000,0.001000,0.001000,0.001000
1026.115385,0.044428,0.001000,0.001000,0.001000,0.001000,0.001000
1026.134615,0.043738,0.001000,0.001000,0.001000,0.001000,0.001000
1026.153846,0.043010,0.001000,0.001000,0.001000,0.001000,0.001000
1026.173077,0.042245,0.001000,0.001000,0.001000,0.001000,0.001000
1026.192308,0.041444,0.001000,0.001000,0.001000,0.001000,0.001000
1026.211538,0.040608,0.001000,0.001000,0.001000,0.001000,0.001000
1026.230769,0.039737,0.001000,0.001000,0.001000,0.001000,0.001000
1026.250000,0.038832,0.001000,0.001000,0.001000,0.001000,0.001000
1026.269231,0.037894,0.001000,0.001000,0.001000,0.001000,0.001000
1026.288462,0.036923,0.001000,0.001000,0.001000,0.001000,0.001000
1026.307692,0.035920,0.001000,0.001000,0.001000,0.001000,0.001000
1026.326923,0.034887,0.001000,0.001000,0.001000,0.001000,0.001000
1026.346154,0.033824,0.001000,0.001000,0.001000,0.001000,0.001000
1026.365385,0.032732,0.001000,0.001000,0.001000,0.001000,0.001000
1026.384615,0.031612,0.001000,0.001000,0.001000,0.001000,0.001000
1026.403846,0.030464,0.001000,0.001000,0.001000,0.001000,0.001000
1026.423077,0.029291,0.001000,0.001000,0.001000,0.001000,0.001000
1026.442308,0.028093,0.001000,0.001000,0.001000,0.001000,0.001000
1026.461538,0.026870,0.001000,0.001000,0.001000,0.001000,0.001000
1026.480769,0.025625,0.001000,0.001000,0.001000,0.001000,0.001000
1026.500000,0.024357,0.001000,0.001000,0.001000,0.001000,0.001000
1026.519231,0.023069,0.001000,0.001000,0.001000,0.001000,0.001000
1026.538462,0.021761,0.001000,0.001000,0.001000,0.001000,0.001000
1026.557692,0.020434,0.001000,0.001000,0.001000,0.001000,0.001000
1026.576923,0.019090,0.001000,0.001000,0.001000,0.001000,0.001000
1026.596154,0.017730,0.001000,0.001000,0.001000,0.001000,0.001000
1026.615385,0.016354,0.001000,0.001000,0.001000,0.001000,0.001000
1026.634615,0.014964,0.001000,0.001000,0.001000,0.001000,0.001000
1026.653846,0.013562,0.001000,0.001000,0.001000,0.001000,0.001000
1026.673077,0.012147,0.001000,0.001000,0.001000,0.001000,0.001000
1026.692308,0.010723,0.001000,0.001000,0.001000,0.001000,0.001000
1026.711538,0.009289,0.001000,0.001000,0.001000,0.001000,0.001000
1026.730769,0.007847,0.001000,0.001000,0.001000,0.001000,0.001000
1026.750000,0.006399,0.001000,0.001000,0.001000,0.001000,0.001000
1026.769231,0.004945,0.001000,0.001000,0.001000,0.001000,0.001000
1026.788462,0.003487,0.001000,0.001000,0.001000,0.001000,0.001000
1026.807692,0.002026,0.001000,0.001000,0.001000,0.001000,0.001000
1026.826923,0.000563,0.001000,0.001000,0.001000,0.001000,0.001000
1026.846154,-0.000900,0.001000,0.001000,0.001000,0.001000,0.001000
1026.865385,-0.002363,0.001000,0.001000,0.001000,0.001000,0.001000
1026.884615,-0.003824,0.001000,0.001000,0.001000,0.001000,0.001000
1026.903846,-0.005281,0.001000,0.001000,0.001000,0.001000,0.001000
1026.923077,-0.006734,0.001000,0.001000,0.001000,0.001000,0.001000
1026.942308,-0.008181,0.001000,0.001000,0.001000,0.001000,0.001000
1026.961538,-0.009621,0.001000,0.001000,0.001000,0.001000,0.001000
1026.980769,-0.011052,0.001000,0.001000,0.001000,0.001000,0.001000
1027.000000,-0.012475,0.001000,0.001000,0.001000,0.001000,0.001000
1027.019231,-0.013886,0.001000,0.001000,0.001000,0.001000,0.001000
1027.038462,-0.015286,0.001000,0.001000,0.001000,0.001000,0.001000
1027.057692,-0.016673,0.001000,0.001000,0.001000,0.001000,0.001000
1027.076923,-0.018045,0.001000,0.001000,0.001000,0.001000,0.001000
1027.096154,-0.019402,0.001000,0.001000,0.001000,0.001000,0.001000
1027.115385,-0.020742,0.001000,0.001000,0.001000,0.001000,0.001000
1027.134615,-0.022065,0.001000,0.001000,0.001000,0.001000,0.001000
1027.153846,-0.023368,0.001000,0.001000,0.001000,0.001000,0.001000
1027.173077,-0.024652,0.001000,0.001000,0.001000,0.001000,0.001000
1027.192308,-0.025914,0.001000,0.001000,0.001000,0.001000,0.001000
1027.211538,-0.027154,0.001000,0.001000,0.001000,0.001000,0.001000
1027.230769,-0.028371,0.001000,0.001000,0.001000,0.001000,0.001000
1027.250000,-0.029564,0.001000,0.001000,0.001000,0.001000,0.001000
1027.269231,-0.030731,0.001000,0.001000,0.001000,0.001000,0.001000
1027.288462,-0.031872,0.001000,0.001000,0.001000,0.001000,0.001000
1027.307692,-0.032986,0.001000,0.001000,0.001000,0.001000,0.001000
1027.326923,-0.034072,0.001000,0.001000,0.001000,0.001000,0.001000
1027.346154,-0.035128,0.001000,0.001000,0.001000,0.001000,0.001000
1027.365385,-0.036154,0.001000,0.001000,0.001000,0.001000,0.001000
1027.384615,-0.037149,0.001000,0.001000,0.001000,0.001000,0.001000
1027.403846,-0.038113,0.001000,0.001000,0.001000,0.001000,0.001000
1027.423077,-0.039044,0.001000,0.001000,0.001000,0.001000,0.001000
1027.442308,-0.039941,0.001000,0.001000,0.001000,0.001000,0.001000
1027.461538,-0.040804,0.001000,0.001000,0.001000,0.001000,0.001000
1027.480769,-0.041632,0.001000,0.001000,0.001000,0.001000,0.001000
1027.500000,-0.042425,0.001000,0.001000,0.001000,0.001000,0.001000
1027.519231,-0.043181,0.001000,0.001000,0.001000,0.001000,0.001000
1027.538462,-0.043900,0.001000,0.001000,0.001000,0.001000,0.001000
1027.557692,-0.044582,0.001000,0.001000,0.001000,0.001000,0.001000
1027.576923,-0.045225,0.001000,0.001000,0.001000,0.001000,0.001000
1027.596154,-0.045830,0.001000,0.001000,0.001000,0.001000,0.001000
1027.615385,-0.046395,0.001000,0.001000,0.001000,0.001000,0.001000
1027.634615,-0.046921,0.001000,0.001000,0.001000,0.001000,0.001000
1027.653846,-0.047406,0.001000,0.001000,0.001000,0.001000,0.001000
1027.673077,-0.047851,0.001000,0.001000,0.001000,0.001000,0.001000
1027.692308,-0.048255,0.001000,0.001000,0.001000,0.001000,0.001000
1027.711538,-0.048617,0.001000,0.001000,0.001000,0.001000,0.001000
1027.730769,-0.048938,0.001000,0.001000,0.001000,0.001000,0.001000
1027.750000,-0.049217,0.001000,0.001000,0.001000,0.001000,0.001000
1027.769231,-0.049454,0.001000,0.001000,0.001000,0.001000,0.001000
1027.788462,-0.049649,0.001000,0.001000,0.001000,0.001000,0.001000
1027.807692,-0.049800,0.001000,0.001000,0.001000,0.001000,0.001000
1027.826923,-0.049910,0.001000,0.001000,0.001000,0.001000,0.001000
1027.846154,-0.049976,0.001000,0.001000,0.001000,0.001000,0.001000
1027.865385,-0.050000,0.001000,0.001000,0.001000,0.001000,0.001000
1027.884615,-0.049981,0.001000,0.001000,0.001000,0.001000,0.001000
1027.903846,-0.049919,0.001000,0.001000,0.001000,0.001000,0.001000
1027.923077,-0.049814,0.001000,0.001000,0.001000,0.001000,0.001000
1027.942308,-0.049667,0.001000,0.001000,0.001000,0.001000,0.001000
1027.961538,-0.049477,0.001000,0.001000,0.001000,0.001000,0.001000
1027.980769,-0.049245,0.001000,0.001000,0.001000,0.001000,0.001000
1028.000000,-0.048970,0.001000,0.001000,0.001000,0.001000,0.001000
1028.019231,-0.048654,0.001000,0.001000,0.001000,0.001000,0.001000
1028.038462,-0.048296,0.001000,0.001000,0.001000,0.001000,0.001000
1028.057692,-0.047896,0.001000,0.001000,0.001000,0.001000,0.001000
1028.076923,-0.047456,0.001000,0.001000,0.001000,0.001000,0.001000
1028.096154,-0.046974,0.001000,0.001000,0.001000,0.001000,0.001000
1028.115385,-0.046453,0.001000,0.001000,0.001000,0.001000,0.001000
1028.134615,-0.045892,0.001000,0.001000,0.001000,0.001000,0.001000
1028.153846,-0.045291,0.001000,0.001000,0.001000,0.001000,0.001000
1028.173077,-0.044652,0.001000,0.001000,0.001000,0.001000,0.001000
1028.192308,-0.043975,0.001000,0.001000,0.001000,0.001000,0.001000
1028.211538,-0.043259,0.001000,0.001000,0.001000,0.001000,0.001000
1028.230769,-0.042507,0.001000,0.001000,0.001000,0.001000,0.001000
1028.250000,-0.041718,0.001000,0.001000,0.001000,0.001000,0.001000
1028.269231,-0.040894,0.001000,0.001000,0.001000,0.001000,0.001000
1028.288462,-0.040035,0.001000,0.001000,0.001000,0.001000,0.001000
1028.307692,-0.039141,0.001000,0.001000,0.001000,0.001000,0.001000
1028.326923,-0.038214,0.001000,0.001000,0.001000,0.001000,0.001000
1028.346154,-0.037254,0.001000,0.001000,0.001000,0.001000,0.001000
1028.365385,-0.036262,0.001000,0.001000,0.001000,0.001000,0.001000
1028.384615,-0.035239,0.001000,0.001000,0.001000,0.001000,0.001000
1028.403846,-0.034186,0.001000,0.001000,0.001000,0.001000,0.001000
1028.423077,-0.033103,0.001000,0.001000,0.001000,0.001000,0.001000
1028.442308,-0.031993,0.001000,0.001000,0.001000,0.001000,0.001000
1028.461538,-0.030854,0.001000,0.001000,0.001000,0.001000,0.001000
1028.480769,-0.029690,0.001000,0.001000,0.001000,0.001000,0.001000
1028.500000,-0.028500,0.001000,0.001000,0.001000,0.001000,0.001000
1028.519231,-0.027285,0.001000,0.001000,0.001000,0.001000,0.001000
1028.538462,-0.026047,0.001000,0.001000,0.001000,0.001000,0.001000
1028.557692,-0.024787,0.001000,0.001000,0.001000,0.001000,0.001000
1028.576923,-0.023506,0.001000,0.001000,0.001000,0.001000,0.001000
1028.596154,-0.022204,0.001000,0.001000,0.001000,0.001000,0.001000
1028.615385,-0.020884,0.001000,0.001000,0.001000,0.001000,0.001000
1028.634615,-0.019545,0.001000,0.001000,0.001000,0.001000,0.001000
1028.653846,-0.018190,0.001000,0.001000,0.001000,0.001000,0.001000
1028.673077,-0.016820,0.001000,0.001000,0.001000,0.001000,0.001000
1028.692308,-0.015434,0.001000,0.001000,0.001000,0.001000,0.001000
1028.711538,-0.014036,0.001000,0.001000,0.001000,0.001000,0.001000
1028.730769,-0.012626,0.001000,0.001000,0.001000,0.001000,0.001000
1028.750000,-0.011204,0.001000,0.001000,0.001000,0.001000,0.001000
1028.769231,-0.009774,0.001000,0.001000,0.001000,0.001000,0.001000
1028.788462,-0.008335,0.001000,0.001000,0.001000,0.001000,0.001000
1028.807692,-0.006888,0.001000,0.001000,0.001000,0.001000,0.001000
1028.826923,-0.005436,0.001000,0.001000,0.001000,0.001000,0.001000
1028.846154,-0.003979,0.001000,0.001000,0.001000,0.001000,0.001000
1028.865385,-0.002519,0.001000,0.001000,0.001000,0.001000,0.001000
1028.884615,-0.001056,0.001000,0.001000,0.001000,0.001000,0.001000
1028.903846,0.000407,0.001000,0.001000,0.001000,0.001000,0.001000
1028.923077,0.001870,0.001000,0.001000,0.001000,0.001000,0.001000
1028.942308,0.003331,0.001000,0.001000,0.001000,0.001000,0.001000
1028.961538,0.004790,0.001000,0.001000,0.001000,0.001000,0.001000
1028.980769,0.006244,0.001000,0.001000,0.001000,0.001000,0.001000
1029.000000,0.007693,0.001000,0.001000,0.001000,0.001000,0.001000
1029.019231,0.009136,0.001000,0.001000,0.001000,0.001000,0.001000
1029.038462,0.010571,0.001000,0.001000,0.001000,0.001000,0.001000
1029.057692,0.011996,0.001000,0.001000,0.001000,0.001000,0.001000
1029.076923,0.013411,0.001000,0.001000,0.001000,0.001000,0.001000
1029.096154,0.014815,0.001000,0.001000,0.001000,0.001000,0.001000
1029.115385,0.016206,0.001000,0.001000,0.001000,0.001000,0.001000
1029.134615,0.017584,0.001000,0.001000,0.001000,0.001000,0.001000
1029.153846,0.018946,0.001000,0.001000,0.001000,0.001000,0.001000
1029.173077,0.020292,0.001000,0.001000,0.001000,0.001000,0.001000
1029.192308,0.021621,0.001000,0.001000,0.001000,0.001000,0.001000
1029.211538,0.022931,0.001000,0.001000,0.001000,0.001000,0.001000
1029.230769,0.024221,0.001000,0.001000,0.001000,0.001000,0.001000
1029.250000,0.025491,0.001000,0.001000,0.001000,0.001000,0.001000
1029.269231,0.026739,0.001000,0.001000,0.001000,0.001000,0.001000
1029.288462,0.027964,0.001000,0.001000,0.001000,0.001000,0.001000
1029.307692,0.029165,0.001000,0.001000,0.001000,0.001000,0.001000
1029.326923,0.030341,0.001000,0.001000,0.001000,0.001000,0.001000
1029.346154,0.031491,0.001000,0.001000,0.001000,0.001000,0.001000
1029.365385,0.032614,0.001000,0.001000,0.001000,0.001000,0.001000
1029.384615,0.033709,0.001000,0.001000,0.001000,0.001000,0.001000
1029.403846,0.034775,0.001000,0.001000,0.001000,0.001000,0.001000
1029.423077,0.035812,0.001000,0.001000,0.001000,0.001000,0.001000
1029.442308,0.036817,0.001000,0.001000,0.001000,0.001000,0.001000
1029.461538,0.037792,0.001000,0.001000,0.001000,0.001000,0.001000
1029.480769,0.038733,0.001000,0.001000,0.001000,0.001000,0.001000
1029.500000,0.039642,0.001000,0.001000,0.001000,0.001000,0.001000
1029.519231,0.040517,0.001000,0.001000,0.001000,0.001000,0.001000
1029.538462,0.041357,0.001000,0.001000,0.001000,0.001000,0.001000
1029.557692,0.042162,0.001000,0.001000,0.001000,0.001000,0.001000
1029.576923,0.042930,0.001000,0.001000,0.001000,0.001000,0.001000
1029.596154,0.043662,0.001000,0.001000,0.001000,0.001000,0.001000
1029.615385,0.044356,0.001000,0.001000,0.001000,0.001000,0.001000
1029.634615,0.045012,0.001000,0.001000,0.001000,0.001000,0.001000
1029.653846,0.045630,0.001000,0.001000,0.001000,0.001000,0.001000
1029.673077,0.046209,0.001000,0.001000,0.001000,0.001000,0.001000
1029.692308,0.046748,0.001000,0.001000,0.001000,0.001000,0.001000
1029.711538,0.047247,0.001000,0.001000,0.001000,0.001000,0.001000
1029.730769,0.047706,0.001000,0.001000,0.001000,0.001000,0.001000
1029.750000,0.048123,0.001000,0.001000,0.001000,0.001000,0.001000
1029.769231,0.048500,0.001000,0.001000,0.001000,0.001000,0.001000
1029.788462,0.048835,0.001000,0.001000,0.001000,0.001000,0.001000
1029.807692,0.049128,0.001000,0.001000,0.001000,0.001000,0.001000
1029.826923,0.049379,0.001000,0.001000,0.001000,0.001000,0.001000
1029.846154,0.049588,0.001000,0.001000,0.001000,0.001000,0.001000
1029.865385,0.049754,0.001000,0.001000,0.001000,0.001000,0.001000
1029.884615,0.049878,0.001000,0.001000,0.001000,0.001000,0.001000
1029.903846,0.049959,0.001000,0.001000,0.001000,0.001000,0.001000
1029.923077,0.049997,0.001000,0.001000,0.001000,0.001000,0.001000
1029.942308,0.049992,0.001000,0.001000,0.001000,0.001000,0.001000
1029.961538,0.049945,0.001000,0.001000,0.001000,0.001000,0.001000
1029.980769,0.049854,0.001000,0.001000,0.001000,0.001000,0.001000
1030.000000,0.000000,0.001000,0.001000,0.001000,0.001000,0.001000
1030.019231,0.001486,0.001000,0.001000,0.001000,0.001000,0.001000
1030.038462,0.002971,0.001000,0.001000,0.001000,0.001000,0.001000
1030.057692,0.004453,0.001000,0.001000,0.001000,0.001000,0.001000
1030.076923,0.005931,0.001000,0.001000,0.001000,0.001000,0.001000
1030.096154,0.007404,0.001000,0.001000,0.001000,0.001000,0.001000
1030.115385,0.008871,0.001000,0.001000,0.001000,0.001000,0.001000
1030.134615,0.010330,0.001000,0.001000,0.001000,0.001000,0.001000
1030.153846,0.011779,0.001000,0.001000,0.001000,0.001000,0.001000
1030.173077,0.013218,0.001000,0.001000,0.001000,0.001000,0.001000
1030.192308,0.014646,0.001000,0.001000,0.001000,0.001000,0.001000
1030.211538,0.016060,0.001000,0.001000,0.001000,0.001000,0.001000
1030.230769,0.017460,0.001000,0.001000,0.001000,0.001000,0.001000
1030.250000,0.018845,0.001000,0.001000,0.001000,0.001000,0.001000
1030.269231,0.020214,0.001000,0.001000,0.001000,0.001000,0.001000
1030.288462,0.021564,0.001000,0.001000,0.001000,0.001000,0.001000
1030.307692,0.022895,0.001000,0.001000,0.001000,0.001000,0.001000
1030.326923,0.024206,0.001000,0.001000,0.001000,0.001000,0.001000
1030.346154,0.025496,0.001000,0.001000,0.001000,0.001000,0.001000
1030.365385,0.026763,0.001000,0.001000,0.001000,0.001000,0.001000
1030.384615,0.028007,0.001000,0.001000,0.001000,0.001000,0.001000
1030.403846,0.029225,0.001000,0.001000,0.001000,0.001000,0.001000
1030.423077,0.030418,0.001000,0.001000,0.001000,0.001000,0.001000
1030.442308,0.031584,0.001000,0.001000,0.001000,0.001000,0.001000
1030.461538,0.032722,0.001000,0.001000,0.001000,0.001000,0.001000
1030.480769,0.033832,0.001000,0.001000,0.001000,0.001000,0.001000
1030.500000,0.034911,0.001000,0.001000,0.001000,0.001000,0.001000
1030.519231,0.035959,0.001000,0.001000,0.001000,0.001000,0.001000
1030.538462,0.036976,0.001000,0.001000,0.001000,0.001000,0.001000
1030.557692,0.037960,0.001000,0.001000,0.001000,0.001000,0.001000
1030.576923,0.038911,0.001000,0.001000,0.001000,0.001000,0.001000
1030.596154,0.039827,0.001000,0.001000,0.001000,0.001000,0.001000
1030.615385,0.040708,0.001000,0.001000,0.001000,0.001000,0.001000
1030.634615,0.041553,0.001000,0.001000,0.001000,0.001000,0.001000
1030.653846,0.042361,0.001000,0.001000,0.001000,0.001000,0.001000
1030.673077,0.043132,0.001000,0.001000,0.001000,0.001000,0.001000
1030.692308,0.043864,0.001000,0.001000,0.001000,0.001000,0.001000
1030.711538,0.044558,0.001000,0.001000,0.001000,0.001000,0.001000
1030.730769,0.045213,0.001000,0.001000,0.001000,0.001000,0.001000
1030.750000,0.045827,0.001000,0.001000,0.001000,0.001000,0.001000
1030.769231,0.046401,0.001000,0.001000,0.001000,0.001000,0.001000
1030.788462,0.046935,0.001000,0.001000,0.001000,0.001000,0.001000
1030.807692,0.047426,0.001000,0.001000,0.001000,0.001000,0.001000
1030.826923,0.047876,0.001000,0.001000,0.001000,0.001000,0.001000
1030.846154,0.048283,0.001000,0.001000,0.001000,0.001000,0.001000
1030.865385,0.048648,0.001000,0.001000,0.001000,0.001000,0.001000
1030.884615,0.048970,0.001000,0.001000,0.001000,0.001000,0.001000
1030.903846,0.049248,0.001000,0.001000,0.001000,0.001000,0.001000
1030.923077,0.049483,0.001000,0.001000,0.001000,0.001000,0.001000
1030.942308,0.049675,0.001000,0.001000,0.001000,0.001000,0.001000
1030.961538,0.049822,0.001000,0.001000,0.001000,0.001000,0.001000
1030.980769,0.049925,0.001000,0.001000,0.001000,0.001000,0.001000
1031.000000,0.049984,0.001000,0.001000,0.001000,0.001000,0.001000
1031.019231,0.049999,0.001000,0.001000,0.001000,0.001000,0.001000
1031.038462,0.049970,0.001000,0.001000,0.001000,0.001000,0.001000
1031.057692,0.049897,0.001000,0.001000,0.001000,0.001000,0.001000
1031.076923,0.049780,0.001000,0.001000,0.001000,0.001000,0.001000
1031.096154,0.049618,0.001000,0.001000,0.001000,0.001000,0.001000
1031.115385,0.049413,0.001000,0.001000,0.001000,0.001000,0.001000
1031.134615,0.049164,0.001000,0.001000,0.001000,0.001000,0.001000
1031.153846,0.048872,0.001000,0.001000,0.001000,0.001000,0.001000
1031.173077,0.048536,0.001000,0.001000,0.001000,0.001000,0.001000
1031.192308,0.048158,0.001000,0.001000,0.001000,0.001000,0.001000
1031.211538,0.047737,0.001000,0.001000,0.001000,0.001000,0.001000
1031.230769,0.047274,0.001000,0.001000,0.001000,0.001000,0.001000
1031.250000,0.046769,0.001000,0.001000,0.001000,0.001000,0.001000
1031.269231,0.046223,0.001000,0.001000,0.001000,0.001000,0.001000
1031.288462,0.045636,0.001000,0.001000,0.001000,0.001000,0.001000
1031.307692,0.045008,0.001000,0.001000,0.001000,0.001000,0.001000
1031.326923,0.044341,0.001000,0.001000,0.001000,0.001000,0.001000
1031.346154,0.043635,0.001000,0.001000,0.001000,0.001000,0.001000
1031.365385,0.042890,0.001000,0.001000,0.001000,0.001000,0.001000
1031.384615,0.042107,0.001000,0.001000,0.001000,0.001000,0.001000
1031.403846,0.041287,0.001000,0.001000,0.001000,0.001000,0.001000
1031.423077,0.040430,0.001000,0.001000,0.001000,0.001000,0.001000
1031.442308,0.039538,0.001000,0.001000,0.001000,0.001000,0.001000
1031.461538,0.038611,0.001000,0.001000,0.001000,0.001000,0.001000
1031.480769,0.037650,0.001000,0.001000,0.001000,0.001000,0.001000
1031.500000,0.036655,0.001000,0.001000,0.001000,0.001000,0.001000
1031.519231,0.035628,0.001000,0.001000,0.001000,0.001000,0.001000
1031.538462,0.034570,0.001000,0.001000,0.001000,0.001000,0.001000
1031.557692,0.033481,0.001000,0.001000,0.001000,0.001000,0.001000
1031.576923,0.032362,0.001000,0.001000,0.001000,0.001000,0.001000
1031.596154,0.031215,0.001000,0.001000,0.001000,0.001000,0.001000
1031.615385,0.030040,0.001000,0.001000,0.001000,0.001000,0.001000
1031.634615,0.028839,0.001000,0.001000,0.001000,0.001000,0.001000
1031.653846,0.027612,0.001000,0.001000,0.001000,0.001000,0.001000
1031.673077,0.026361,0.001000,0.001000,0.001000,0.001000,0.001000
1031.692308,0.025087,0.001000,0.001000,0.001000,0.001000,0.001000
1031.711538,0.023790,0.001000,0.001000,0.001000,0.001000,0.001000
1031.730769,0.022472,0.001000,0.001000,0.001000,0.001000,0.001000
1031.750000,0.021135,0.001000,0.001000,0.001000,0.001000,0.001000
1031.769231,0.019779,0.001000,0.001000,0.001000,0.001000,0.001000
1031.788462,0.018405,0.001000,0.001000,0.001000,0.001000,0.001000
1031.807692,0.017015,0.001000,0.001000,0.001000,0.001000,0.001000
1031.826923,0.015610,0.001000,0.001000,0.001000,0.001000,0.001000
1031.846154,0.014191,0.001000,0.001000,0.001000,0.001000,0.001000
1031.865385,0.012760,0.001000,0.001000,0.001000,0.001000,0.001000
1031.884615,0.011317,0.001000,0.001000,0.001000,0.001000,0.001000
1031.903846,0.009865,0.001000,0.001000,0.001000,0.001000,0.001000
1031.923077,0.008404,0.001000,0.001000,0.001000,0.001000,0.001000
1031.942308,0.006935,0.001000,0.001000,0.001000,0.001000,0.001000
1031.961538,0.005460,0.001000,0.001000,0.001000,0.001000,0.001000
1031.980769,0.003980,0.001000,0.001000,0.001000,0.001000,0.001000
1032.000000,0.002497,0.001000,0.001000,0.001000,0.001000,0.001000
1032.019231,0.001012,0.001000,0.001000,0.001000,0.001000,0.001000
1032.038462,-0.000474,0.001000,0.001000,0.001000,0.001000,0.001000
1032.057692,-0.001960,0.001000,0.001000,0.001000,0.001000,0.001000
1032.076923,-0.003444,0.001000,0.001000,0.001000,0.001000,0.001000
1032.096154,-0.004926,0.001000,0.001000,0.001000,0.001000,0.001000
1032.115385,-0.006402,0.001000,0.001000,0.001000,0.001000,0.001000
1032.134615,-0.007873,0.001000,0.001000,0.001000,0.001000,0.001000
1032.153846,-0.009337,0.001000,0.001000,0.001000,0.001000,0.001000
1032.173077,-0.010793,0.001000,0.001000,0.001000,0.001000,0.001000
1032.192308,-0.012240,0.001000,0.001000,0.001000,0.001000,0.001000
1032.211538,-0.013675,0.001000,0.001000,0.001000,0.001000,0.001000
1032.230769,-0.015099,0.001000,0.001000,0.001000,0.001000,0.001000
1032.250000,-0.016509,0.001000,0.001000,0.001000,0.001000,0.001000
1032.269231,-0.017904,0.001000,0.001000,0.001000,0.001000,0.001000
1032.288462,-0.019284,0.001000,0.001000,0.001000,0.001000,0.001000
1032.307692,-0.020647,0.001000,0.001000,0.001000,0.001000,0.001000
1032.326923,-0.021991,0.001000,0.001000,0.001000,0.001000,0.001000
1032.346154,-0.023316,0.001000,0.001000,0.001000,0.001000,0.001000
1032.365385,-0.024620,0.001000,0.001000,0.001000,0.001000,0.001000
1032.384615,-0.025903,0.001000,0.001000,0.001000,0.001000,0.001000
1032.403846,-0.027163,0.001000,0.001000,0.001000,0.001000,0.001000
1032.423077,-0.028398,0.001000,0.001000,0.001000,0.001000,0.001000
1032.442308,-0.029609,0.001000,0.001000,0.001000,0.001000,0.001000
1032.461538,-0.030793,0.001000,0.001000,0.001000,0.001000,0.001000
1032.480769,-0.031951,0.001000,0.001000,0.001000,0.001000,0.001000
1032.500000,-0.033080,0.001000,0.001000,0.001000,0.001000,0.001000
1032.519231,-0.034179,0.001000,0.001000,0.001000,0.001000,0.001000
1032.538462,-0.035249,0.001000,0.001000,0.001000,0.001000,0.001000
1032.557692,-0.036287,0.001000,0.001000,0.001000,0.001000,0.001000
1032.576923,-0.037294,0.001000,0.001000,0.001000,0.001000,0.001000
1032.596154,-0.038267,0.001000,0.001000,0.001000,0.001000,0.001000
1032.615385,-0.039207,0.001000,0.001000,0.001000,0.001000,0.001000
1032.634615,-0.040112,0.001000,0.001000,0.001000,0.001000,0.001000
1032.653846,-0.040981,0.001000,0.001000,0.001000,0.001000,0.001000
1032.673077,-0.041815,0.001000,0.001000,0.001000,0.001000,0.001000
1032.692308,-0.042611,0.001000,0.001000,0.001000,0.001000,0.001000
1032.711538,-0.043370,0.001000,0.001000,0.001000,0.001000,0.001000
1032.730769,-0.044090,0.001000,0.001000,0.001000,0.001000,0.001000
1032.750000,-0.044771,0.001000,0.001000,0.001000,0.001000,0.001000
1032.769231,-0.045413,0.001000,0.001000,0.001000,0.001000,0.001000
1032.788462,-0.046015,0.001000,0.001000,0.001000,0.001000,0.001000
1032.807692,-0.046576,0.001000,0.001000,0.001000,0.001000,0.001000
1032.826923,-0.047096,0.001000,0.001000,0.001000,0.001000,0.001000
1032.846154,-0.047574,0.001000,0.001000,0.001000,0.001000,0.001000
1032.865385,-0.048011,0.001000,0.001000,0.001000,0.001000,0.001000
1032.884615,-0.048404,0.001000,0.001000,0.001000,0.001000,0.001000
1032.903846,-0.048755,0.001000,0.001000,0.001000,0.001000,0.001000
1032.923077,-0.049063,0.001000,0.001000,0.001000,0.001000,0.001000
1032.942308,-0.049328,0.001000,0.001000,0.001000,0.001000,0.001000
1032.961538,-0.049549,0.001000,0.001000,0.001000,0.001000,0.001000
1032.980769,-0.049726,0.001000,0.001000,0.001000,0.001000,0.001000
1033.000000,-0.049860,0.001000,0.001000,0.001000,0.001000,0.001000
1033.019231,-0.049949,0.001000,0.001000,0.001000,0.001000,0.001000
1033.038462,-0.049994,0.001000,0.001000,0.001000,0.001000,0.001000
1033.057692,-0.049995,0.001000,0.001000,0.001000,0.001000,0.001000
1033.076923,-0.049952,0.001000,0.001000,0.001000,0.001000,0.001000
1033.096154,-0.049864,0.001000,0.001000,0.001000,0.001000,0.001000
1033.115385,-0.049733,0.001000,0.001000,0.001000,0.001000,0.001000
1033.134615,-0.049557,0.001000,0.001000,0.001000,0.001000,0.001000
1033.153846,-0.049338,0.001000,0.001000,0.001000,0.001000,0.001000
1033.173077,-0.049076,0.001000,0.001000,0.001000,0.001000,0.001000
1033.192308,-0.048769,0.001000,0.001000,0.001000,0.001000,0.001000
1033.211538,-0.048420,0.001000,0.001000,0.001000,0.001000,0.001000
1033.230769,-0.048028,0.001000,0.001000,0.001000,0.001000,0.001000
1033.250000,-0.047594,0.001000,0.001000,0.001000,0.001000,0.001000
1033.269231,-0.047117,0.001000,0.001000,0.001000,0.001000,0.001000
1033.288462,-0.046599,0.001000,0.001000,0.001000,0.001000,0.001000
1033.307692,-0.046040,0.001000,0.001000,0.001000,0.001000,0.001000
1033.326923,-0.045440,0.001000,0.001000,0.001000,0.001000,0.001000
1033.346154,-0.044799,0.001000,0.001000,0.001000,0.001000,0.001000
1033.365385,-0.044120,0.001000,0.001000,0.001000,0.001000,0.001000
1033.384615,-0.043401,0.001000,0.001000,0.001000,0.001000,0.001000
1033.403846,-0.042644,0.001000,0.001000,0.001000,0.001000,0.001000
1033.423077,-0.041849,0.001000,0.001000,0.001000,0.001000,0.001000
1033.442308,-0.041017,0.001000,0.001000,0.001000,0.001000,0.001000
1033.461538,-0.040149,0.001000,0.001000,0.001000,0.001000,0.001000
1033.480769,-0.039246,0.001000,0.001000,0.001000,0.001000,0.001000
1033.500000,-0.038308,0.001000,0.001000,0.001000,0.001000,0.001000
1033.519231,-0.037336,0.001000,0.001000,0.001000,0.001000,0.001000
1033.538462,-0.036331,0.001000,0.001000,0.001000,0.001000,0.001000
1033.557692,-0.035294,0.001000,0.001000,0.001000,0.001000,0.001000
1033.576923,-0.034225,0.001000,0.001000,0.001000,0.001000,0.001000
1033.596154,-0.033127,0.001000,0.001000,0.001000,0.001000,0.001000
1033.615385,-0.031999,0.001000,0.001000,0.001000,0.001000,0.001000
1033.634615,-0.030843,0.001000,0.001000,0.001000,0.001000,0.001000
1033.653846,-0.029660,0.001000,0.001000,0.001000,0.001000,0.001000
1033.673077,-0.028450,0.001000,0.001000,0.001000,0.001000,0.001000
1033.692308,-0.027215,0.001000,0.001000,0.001000,0.001000,0.001000
1033.711538,-0.025957,0.001000,0.001000,0.001000,0.001000,0.001000
1033.730769,-0.024675,0.001000,0.001000,0.001000,0.001000,0.001000
1033.750000,-0.023372,0.001000,0.001000,0.001000,0.001000,0.001000
1033.769231,-0.022047,0.001000,0.001000,0.001000,0.001000,0.001000
1033.788462,-0.020704,0.001000,0.001000,0.001000,0.001000,0.001000
1033.807692,-0.019342,0.001000,0.001000,0.001000,0.001000,0.001000
1033.826923,-0.017963,0.001000,0.001000,0.001000,0.001000,0.001000
1033.846154,-0.016568,0.001000,0.001000,0.001000,0.001000,0.001000
1033.865385,-0.015159,0.001000,0.001000,0.001000,0.001000,0.001000
1033.884615,-0.013736,0.001000,0.001000,0.001000,0.001000,0.001000
1033.903846,-0.012301,0.001000,0.001000,0.001000,0.001000,0.001000
1033.923077,-0.010855,0.001000,0.001000,0.001000,0.001000,0.001000
1033.942308,-0.009399,0.001000,0.001000,0.001000,0.001000,0.001000
1033.961538,-0.007936,0.001000,0.001000,0.001000,0.001000,0.001000
1033.980769,-0.006465,0.001000,0.001000,0.001000,0.001000,0.001000
1034.000000,-0.004988,0.001000,0.001000,0.001000,0.001000,0.001000
1034.019231,-0.003507,0.001000,0.001000,0.001000,0.001000,0.001000
1034.038462,-0.002023,0.001000,0.001000,0.001000,0.001000,0.001000
1034.057692,-0.000537,0.001000,0.001000,0.001000,0.001000,0.001000
1034.076923,0.000949,0.001000,0.001000,0.001000,0.001000,0.001000
1034.096154,0.002434,0.001000,0.001000,0.001000,0.001000,0.001000
1034.115385,0.003918,0.001000,0.001000,0.001000,0.001000,0.001000
1034.134615,0.005397,0.001000,0.001000,0.001000,0.001000,0.001000
1034.153846,0.006873,0.001000,0.001000,0.001000,0.001000,0.001000
1034.173077,0.008342,0.001000,0.001000,0.001000,0.001000,0.001000
1034.192308,0.009803,0.001000,0.001000,0.001000,0.001000,0.001000
1034.211538,0.011256,0.001000,0.001000,0.001000,0.001000,0.001000
1034.230769,0.012699,0.001000,0.001000,0.001000,0.001000,0.001000
1034.250000,0.014131,0.001000,0.001000,0.001000,0.001000,0.001000
1034.269231,0.015550,0.001000,0.001000,0.001000,0.001000,0.001000
1034.288462,0.016956,0.001000,0.001000,0.001000,0.001000,0.001000
1034.307692,0.018346,0.001000,0.001000,0.001000,0.001000,0.001000
1034.326923,0.019721,0.001000,0.001000,0.001000,0.001000,0.001000
1034.346154,0.021078,0.001000,0.001000,0.001000,0.001000,0.001000
1034.365385,0.022416,0.001000,0.001000,0.001000,0.001000,0.001000
1034.384615,0.023735,0.001000,0.001000,0.001000,0.001000,0.001000
1034.403846,0.025032,0.001000,0.001000,0.001000,0.001000,0.001000
1034.423077,0.026308,0.001000,0.001000,0.001000,0.001000,0.001000
1034.442308,0.027560,0.001000,0.001000,0.001000,0.001000,0.001000
1034.461538,0.028788,0.001000,0.001000,0.001000,0.001000,0.001000
1034.480769,0.029990,0.001000,0.001000,0.001000,0.001000,0.001000
1034.500000,0.031166,0.001000,0.001000,0.001000,0.001000,0.001000
1034.519231,0.032314,0.001000,0.001000,0.001000,0.001000,0.001000
1034.538462,0.033434,0.001000,0.001000,0.001000,0.001000,0.001000
1034.557692,0.034524,0.001000,0.001000,0.001000,0.001000,0.001000
1034.576923,0.035584,0.001000,0.001000,0.001000,0.001000,0.001000
1034.596154,0.036612,0.001000,0.001000,0.001000,0.001000,0.001000
1034.615385,0.037608,0.001000,0.001000,0.001000,0.001000,0.001000
1034.634615,0.038571,0.001000,0.001000,0.001000,0.001000,0.001000
1034.653846,0.039500,0.001000,0.001000,0.001000,0.001000,0.001000
1034.673077,0.040393,0.001000,0.001000,0.001000,0.001000,0.001000
