timestamp,ax,ay,az,gx,gy,gz
1000.000000,0.000000,0.001000,0.001000,0.001000,0.001000,0.001000
1000.019231,0.001075,0.001000,0.001000,0.001000,0.001000,0.001000
1000.038462,0.002149,0.001000,0.001000,0.001000,0.001000,0.001000
1000.057692,0.003223,0.001000,0.001000,0.001000,0.001000,0.001000
1000.076923,0.004295,0.001000,0.001000,0.001000,0.001000,0.001000
1000.096154,0.005364,0.001000,0.001000,0.001000,0.001000,0.001000
1000.115385,0.006432,0.001000,0.001000,0.001000,0.001000,0.001000
1000.134615,0.007496,0.001000,0.001000,0.001000,0.001000,0.001000
1000.153846,0.008557,0.001000,0.001000,0.001000,0.001000,0.001000
1000.173077,0.009614,0.001000,0.001000,0.001000,0.001000,0.001000
1000.192308,0.010667,0.001000,0.001000,0.001000,0.001000,0.001000
1000.211538,0.011715,0.001000,0.001000,0.001000,0.001000,0.001000
1000.230769,0.012757,0.001000,0.001000,0.001000,0.001000,0.001000
1000.250000,0.013793,0.001000,0.001000,0.001000,0.001000,0.001000
1000.269231,0.014823,0.001000,0.001000,0.001000,0.001000,0.001000
1000.288462,0.015846,0.001000,0.001000,0.001000,0.001000,0.001000
1000.307692,0.016862,0.001000,0.001000,0.001000,0.001000,0.001000
1000.326923,0.017870,0.001000,0.001000,0.001000,0.001000,0.001000
1000.346154,0.018870,0.001000,0.001000,0.001000,0.001000,0.001000
1000.365385,0.019861,0.001000,0.001000,0.001000,0.001000,0.001000
1000.384615,0.020843,0.001000,0.001000,0.001000,0.001000,0.001000
1000.403846,0.021815,0.001000,0.001000,0.001000,0.001000,0.001000
1000.423077,0.022777,0.001000,0.001000,0.001000,0.001000,0.001000
1000.442308,0.023729,0.001000,0.001000,0.001000,0.001000,0.001000
1000.461538,0.024670,0.001000,0.001000,0.001000,0.001000,0.001000
1000.480769,0.025599,0.001000,0.001000,0.001000,0.001000,0.001000
1000.500000,0.026516,0.001000,0.001000,0.001000,0.001000,0.001000
1000.519231,0.027421,0.001000,0.001000,0.001000,0.001000,0.001000
1000.538462,0.028314,0.001000,0.001000,0.001000,0.001000,0.001000
1000.557692,0.029193,0.001000,0.001000,0.001000,0.001000,0.001000
1000.576923,0.030059,0.001000,0.001000,0.001000,0.001000,0.001000
1000.596154,0.030911,0.001000,0.001000,0.001000,0.001000,0.001000
1000.615385,0.031749,0.001000,0.001000,0.001000,0.001000,0.001000
1000.634615,0.032572,0.001000,0.001000,0.001000,0.001000,0.001000
1000.653846,0.033380,0.001000,0.001000,0.001000,0.001000,0.001000
1000.673077,0.034172,0.001000,0.001000,0.001000,0.001000,0.001000
1000.692308,0.034949,0.001000,0.001000,0.001000,0.001000,0.001000
1000.711538,0.035710,0.001000,0.001000,0.001000,0.001000,0.001000
1000.730769,0.036454,0.001000,0.001000,0.001000,0.001000,0.001000
1000.750000,0.037181,0.001000,0.001000,0.001000,0.001000,0.001000
1000.769231,0.037891,0.001000,0.001000,0.001000,0.001000,0.001000
1000.788462,0.038584,0.001000,0.001000,0.001000,0.001000,0.001000
1000.807692,0.039259,0.001000,0.001000,0.001000,0.001000,0.001000
1000.826923,0.039915,0.001000,0.001000,0.001000,0.001000,0.001000
1000.846154,0.040553,0.001000,0.001000,0.001000,0.001000,0.001000
1000.865385,0.041173,0.001000,0.001000,0.001000,0.001000,0.001000
1000.884615,0.041773,0.001000,0.001000,0.001000,0.001000,0.001000
1000.903846,0.042354,0.001000,0.001000,0.001000,0.001000,0.001000
1000.923077,0.042915,0.001000,0.001000,0.001000,0.001000,0.001000
1000.942308,0.043457,0.001000,0.001000,0.001000,0.001000,0.001000
1000.961538,0.043979,0.001000,0.001000,0.001000,0.001000,0.001000
1000.980769,0.044480,0.001000,0.001000,0.001000,0.001000,0.001000
1001.000000,0.044961,0.001000,0.001000,0.001000,0.001000,0.001000
1001.019231,0.045420,0.001000,0.001000,0.001000,0.001000,0.001000
1001.038462,0.045859,0.001000,0.001000,0.001000,0.001000,0.001000
1001.057692,0.046277,0.001000,0.001000,0.001000,0.001000,0.001000
1001.076923,0.046673,0.001000,0.001000,0.001000,0.001000,0.001000
1001.096154,0.047048,0.001000,0.001000,0.001000,0.001000,0.001000
1001.115385,0.047401,0.001000,0.001000,0.001000,0.001000,0.001000
1001.134615,0.047732,0.001000,0.001000,0.001000,0.001000,0.001000
1001.153846,0.048041,0.001000,0.001000,0.001000,0.001000,0.001000
1001.173077,0.048328,0.001000,0.001000,0.001000,0.001000,0.001000
1001.192308,0.048592,0.001000,0.001000,0.001000,0.001000,0.001000
1001.211538,0.048834,0.001000,0.001000,0.001000,0.001000,0.001000
1001.230769,0.049054,0.001000,0.001000,0.001000,0.001000,0.001000
1001.250000,0.049251,0.001000,0.001000,0.001000,0.001000,0.001000
1001.269231,0.049425,0.001000,0.001000,0.001000,0.001000,0.001000
1001.288462,0.049576,0.001000,0.001000,0.001000,0.001000,0.001000
1001.307692,0.049704,0.001000,0.001000,0.001000,0.001000,0.001000
1001.326923,0.049809,0.001000,0.001000,0.001000,0.001000,0.001000
1001.346154,0.049892,0.001000,0.001000,0.001000,0.001000,0.001000
1001.365385,0.049951,0.001000,0.001000,0.001000,0.001000,0.001000
1001.384615,0.049987,0.001000,0.001000,0.001000,0.001000,0.001000
1001.403846,0.050000,0.001000,0.001000,0.001000,0.001000,0.001000
1001.423077,0.049990,0.001000,0.001000,0.001000,0.001000,0.001000
1001.442308,0.049957,0.001000,0.001000,0.001000,0.001000,0.001000
1001.461538,0.049900,0.001000,0.001000,0.001000,0.001000,0.001000
1001.480769,0.049821,0.001000,0.001000,0.001000,0.001000,0.001000
1001.500000,0.049719,0.001000,0.001000,0.001000,0.001000,0.001000
1001.519231,0.049593,0.001000,0.001000,0.001000,0.001000,0.001000
1001.538462,0.049445,0.001000,0.001000,0.001000,0.001000,0.001000
1001.557692,0.049274,0.001000,0.001000,0.001000,0.001000,0.001000
1001.576923,0.049080,0.001000,0.001000,0.001000,0.001000,0.001000
1001.596154,0.048863,0.001000,0.001000,0.001000,0.001000,0.001000
1001.615385,0.048624,0.001000,0.001000,0.001000,0.001000,0.001000
1001.634615,0.048362,0.001000,0.001000,0.001000,0.001000,0.001000
1001.653846,0.048078,0.001000,0.001000,0.001000,0.001000,0.001000
1001.673077,0.047772,0.001000,0.001000,0.001000,0.001000,0.001000
1001.692308,0.047444,0.001000,0.001000,0.001000,0.001000,0.001000
1001.711538,0.047094,0.001000,0.001000,0.001000,0.001000,0.001000
1001.730769,0.046722,0.001000,0.001000,0.001000,0.001000,0.001000
1001.750000,0.046328,0.001000,0.001000,0.001000,0.001000,0.001000
1001.769231,0.045913,0.001000,0.001000,0.001000,0.001000,0.001000
1001.788462,0.045477,0.001000,0.001000,0.001000,0.001000,0.001000
1001.807692,0.045019,0.001000,0.001000,0.001000,0.001000,0.001000
1001.826923,0.044541,0.001000,0.001000,0.001000,0.001000,0.001000
1001.846154,0.044043,0.001000,0.001000,0.001000,0.001000,0.001000
1001.865385,0.043524,0.001000,0.001000,0.001000,0.001000,0.001000
1001.884615,0.042984,0.001000,0.001000,0.001000,0.001000,0.001000
1001.903846,0.042425,0.001000,0.001000,0.001000,0.001000,0.001000
1001.923077,0.041847,0.001000,0.001000,0.001000,0.001000,0.001000
1001.942308,0.041249,0.001000,0.001000,0.001000,0.001000,0.001000
1001.961538,0.040632,0.001000,0.001000,0.001000,0.001000,0.001000
1001.980769,0.039996,0.001000,0.001000,0.001000,0.001000,0.001000
1002.000000,0.039342,0.001000,0.001000,0.001000,0.001000,0.001000
1002.019231,0.038669,0.001000,0.001000,0.001000,0.001000,0.001000
1002.038462,0.037979,0.001000,0.001000,0.001000,0.001000,0.001000
1002.057692,0.037271,0.001000,0.001000,0.001000,0.001000,0.001000
1002.076923,0.036546,0.001000,0.001000,0.001000,0.001000,0.001000
1002.096154,0.035804,0.001000,0.001000,0.001000,0.001000,0.001000
1002.115385,0.035045,0.001000,0.001000,0.001000,0.001000,0.001000
1002.134615,0.034271,0.001000,0.001000,0.001000,0.001000,0.001000
1002.153846,0.033480,0.001000,0.001000,0.001000,0.001000,0.001000
1002.173077,0.032674,0.001000,0.001000,0.001000,0.001000,0.001000
1002.192308,0.031853,0.001000,0.001000,0.001000,0.001000,0.001000
1002.211538,0.031017,0.001000,0.001000,0.001000,0.001000,0.001000
1002.230769,0.030167,0.001000,0.001000,0.001000,0.001000,0.001000
1002.250000,0.029302,0.001000,0.001000,0.001000,0.001000,0.001000
1002.269231,0.028425,0.001000,0.001000,0.001000,0.001000,0.001000
1002.288462,0.027534,0.001000,0.001000,0.001000,0.001000,0.001000
1002.307692,0.026630,0.001000,0.001000,0.001000,0.001000,0.001000
1002.326923,0.025714,0.001000,0.001000,0.001000,0.001000,0.001000
1002.346154,0.024787,0.001000,0.001000,0.001000,0.001000,0.001000
1002.365385,0.023847,0.001000,0.001000,0.001000,0.001000,0.001000
1002.384615,0.022897,0.001000,0.001000,0.001000,0.001000,0.001000
1002.403846,0.021936,0.001000,0.001000,0.001000,0.001000,0.001000
1002.423077,0.020965,0.001000,0.001000,0.001000,0.001000,0.001000
1002.442308,0.019985,0.001000,0.001000,0.001000,0.001000,0.001000
1002.461538,0.018995,0.001000,0.001000,0.001000,0.001000,0.001000
1002.480769,0.017996,0.001000,0.001000,0.001000,0.001000,0.001000
1002.500000,0.016989,0.001000,0.001000,0.001000,0.001000,0.001000
1002.519231,0.015974,0.001000,0.001000,0.001000,0.001000,0.001000
1002.538462,0.014952,0.001000,0.001000,0.001000,0.001000,0.001000
1002.557692,0.013923,0.001000,0.001000,0.001000,0.001000,0.001000
1002.576923,0.012887,0.001000,0.001000,0.001000,0.001000,0.001000
1002.596154,0.011846,0.001000,0.001000,0.001000,0.001000,0.001000
1002.615385,0.010799,0.001000,0.001000,0.001000,0.001000,0.001000
1002.634615,0.009747,0.001000,0.001000,0.001000,0.001000,0.001000
1002.653846,0.008690,0.001000,0.001000,0.001000,0.001000,0.001000
1002.673077,0.007630,0.001000,0.001000,0.001000,0.001000,0.001000
1002.692308,0.006566,0.001000,0.001000,0.001000,0.001000,0.001000
1002.711538,0.005498,0.001000,0.001000,0.001000,0.001000,0.001000
1002.730769,0.004429,0.001000,0.001000,0.001000,0.001000,0.001000
1002.750000,0.003357,0.001000,0.001000,0.001000,0.001000,0.001000
1002.769231,0.002284,0.001000,0.001000,0.001000,0.001000,0.001000
1002.788462,0.001210,0.001000,0.001000,0.001000,0.001000,0.001000
1002.807692,0.000135,0.001000,0.001000,0.001000,0.001000,0.001000
1002.826923,-0.000940,0.001000,0.001000,0.001000,0.001000,0.001000
1002.846154,-0.002015,0.001000,0.001000,0.001000,0.001000,0.001000
1002.865385,-0.003088,0.001000,0.001000,0.001000,0.001000,0.001000
1002.884615,-0.004160,0.001000,0.001000,0.001000,0.001000,0.001000
1002.903846,-0.005230,0.001000,0.001000,0.001000,0.001000,0.001000
1002.923077,-0.006298,0.001000,0.001000,0.001000,0.001000,0.001000
1002.942308,-0.007363,0.001000,0.001000,0.001000,0.001000,0.001000
1002.961538,-0.008425,0.001000,0.001000,0.001000,0.001000,0.001000
1002.980769,-0.009482,0.001000,0.001000,0.001000,0.001000,0.001000
1003.000000,-0.010535,0.001000,0.001000,0.001000,0.001000,0.001000
1003.019231,-0.011584,0.001000,0.001000,0.001000,0.001000,0.001000
1003.038462,-0.012627,0.001000,0.001000,0.001000,0.001000,0.001000
1003.057692,-0.013664,0.001000,0.001000,0.001000,0.001000,0.001000
1003.076923,-0.014695,0.001000,0.001000,0.001000,0.001000,0.001000
1003.096154,-0.015719,0.001000,0.001000,0.001000,0.001000,0.001000
1003.115385,-0.016735,0.001000,0.001000,0.001000,0.001000,0.001000
1003.134615,-0.017744,0.001000,0.001000,0.001000,0.001000,0.001000
1003.153846,-0.018745,0.001000,0.001000,0.001000,0.001000,0.001000
1003.173077,-0.019737,0.001000,0.001000,0.001000,0.001000,0.001000
1003.192308,-0.020720,0.001000,0.001000,0.001000,0.001000,0.001000
1003.211538,-0.021694,0.001000,0.001000,0.001000,0.001000,0.001000
1003.230769,-0.022657,0.001000,0.001000,0.001000,0.001000,0.001000
1003.250000,-0.023610,0.001000,0.001000,0.001000,0.001000,0.001000
1003.269231,-0.024552,0.001000,0.001000,0.001000,0.001000,0.001000
1003.288462,-0.025483,0.001000,0.001000,0.001000,0.001000,0.001000
1003.307692,-0.026402,0.001000,0.001000,0.001000,0.001000,0.001000
1003.326923,-0.027309,0.001000,0.001000,0.001000,0.001000,0.001000
1003.346154,-0.028203,0.001000,0.001000,0.001000,0.001000,0.001000
1003.365385,-0.029084,0.001000,0.001000,0.001000,0.001000,0.001000
1003.384615,-0.029951,0.001000,0.001000,0.001000,0.001000,0.001000
1003.403846,-0.030805,0.001000,0.001000,0.001000,0.001000,0.001000
1003.423077,-0.031645,0.001000,0.001000,0.001000,0.001000,0.001000
1003.442308,-0.032470,0.001000,0.001000,0.001000,0.001000,0.001000
1003.461538,-0.033279,0.001000,0.001000,0.001000,0.001000,0.001000
1003.480769,-0.034074,0.001000,0.001000,0.001000,0.001000,0.001000
1003.500000,-0.034853,0.001000,0.001000,0.001000,0.001000,0.001000
1003.519231,-0.035615,0.001000,0.001000,0.001000,0.001000,0.001000
1003.538462,-0.036362,0.001000,0.001000,0.001000,0.001000,0.001000
1003.557692,-0.037091,0.001000,0.001000,0.001000,0.001000,0.001000
1003.576923,-0.037803,0.001000,0.001000,0.001000,0.001000,0.001000
1003.596154,-0.038498,0.001000,0.001000,0.001000,0.001000,0.001000
1003.615385,-0.039175,0.001000,0.001000,0.001000,0.001000,0.001000
1003.634615,-0.039834,0.001000,0.001000,0.001000,0.001000,0.001000
1003.653846,-0.040474,0.001000,0.001000,0.001000,0.001000,0.001000
1003.673077,-0.041096,0.001000,0.001000,0.001000,0.001000,0.001000
1003.692308,-0.041699,0.001000,0.001000,0.001000,0.001000,0.001000
1003.711538,-0.042282,0.001000,0.001000,0.001000,0.001000,0.001000
1003.730769,-0.042846,0.001000,0.001000,0.001000,0.001000,0.001000
1003.750000,-0.043390,0.001000,0.001000,0.001000,0.001000,0.001000
1003.769231,-0.043914,0.001000,0.001000,0.001000,0.001000,0.001000
1003.788462,-0.044418,0.001000,0.001000,0.001000,0.001000,0.001000
1003.807692,-0.044901,0.001000,0.001000,0.001000,0.001000,0.001000
1003.826923,-0.045364,0.001000,0.001000,0.001000,0.001000,0.001000
1003.846154,-0.045805,0.001000,0.001000,0.001000,0.001000,0.001000
1003.865385,-0.046226,0.001000,0.001000,0.001000,0.001000,0.001000
1003.884615,-0.046625,0.001000,0.001000,0.001000,0.001000,0.001000
1003.903846,-0.047002,0.001000,0.001000,0.001000,0.001000,0.001000
1003.923077,-0.047358,0.001000,0.001000,0.001000,0.001000,0.001000
1003.942308,-0.047692,0.001000,0.001000,0.001000,0.001000,0.001000
1003.961538,-0.048004,0.001000,0.001000,0.001000,0.001000,0.001000
1003.980769,-0.048293,0.001000,0.001000,0.001000,0.001000,0.001000
1004.000000,-0.048561,0.001000,0.001000,0.001000,0.001000,0.001000
1004.019231,-0.048805,0.001000,0.001000,0.001000,0.001000,0.001000
1004.038462,-0.049028,0.001000,0.001000,0.001000,0.001000,0.001000
1004.057692,-0.049227,0.001000,0.001000,0.001000,0.001000,0.001000
1004.076923,-0.049404,0.001000,0.001000,0.001000,0.001000,0.001000
1004.096154,-0.049558,0.001000,0.001000,0.001000,0.001000,0.001000
1004.115385,-0.049689,0.001000,0.001000,0.001000,0.001000,0.001000
1004.134615,-0.049797,0.001000,0.001000,0.001000,0.001000,0.001000
1004.153846,-0.049883,0.001000,0.001000,0.001000,0.001000,0.001000
1004.173077,-0.049945,0.001000,0.001000,0.001000,0.001000,0.001000
1004.192308,-0.049984,0.001000,0.001000,0.001000,0.001000,0.001000
1004.211538,-0.050000,0.001000,0.001000,0.001000,0.001000,0.001000
1004.230769,-0.049992,0.001000,0.001000,0.001000,0.001000,0.001000
1004.250000,-0.049962,0.001000,0.001000,0.001000,0.001000,0.001000
1004.269231,-0.049909,0.001000,0.001000,0.001000,0.001000,0.001000
1004.288462,-0.049832,0.001000,0.001000,0.001000,0.001000,0.001000
1004.307692,-0.049733,0.001000,0.001000,0.001000,0.001000,0.001000
1004.326923,-0.049610,0.001000,0.001000,0.001000,0.001000,0.001000
1004.346154,-0.049465,0.001000,0.001000,0.001000,0.001000,0.001000
1004.365385,-0.049296,0.001000,0.001000,0.001000,0.001000,0.001000
1004.384615,-0.049105,0.001000,0.001000,0.001000,0.001000,0.001000
1004.403846,-0.048892,0.001000,0.001000,0.001000,0.001000,0.001000
1004.423077,-0.048655,0.001000,0.001000,0.001000,0.001000,0.001000
1004.442308,-0.048396,0.001000,0.001000,0.001000,0.001000,0.001000
1004.461538,-0.048115,0.001000,0.001000,0.001000,0.001000,0.001000
1004.480769,-0.047812,0.001000,0.001000,0.001000,0.001000,0.001000
1004.500000,-0.047486,0.001000,0.001000,0.001000,0.001000,0.001000
1004.519231,-0.047139,0.001000,0.001000,0.001000,0.001000,0.001000
1004.538462,-0.046769,0.001000,0.001000,0.001000,0.001000,0.001000
1004.557692,-0.046378,0.001000,0.001000,0.001000,0.001000,0.001000
1004.576923,-0.045966,0.001000,0.001000,0.001000,0.001000,0.001000
1004.596154,-0.045532,0.001000,0.001000,0.001000,0.001000,0.001000
1004.615385,-0.045078,0.001000,0.001000,0.001000,0.001000,0.001000
1004.634615,-0.044602,0.001000,0.001000,0.001000,0.001000,0.001000
1004.653846,-0.044106,0.001000,0.001000,0.001000,0.001000,0.001000
1004.673077,-0.043590,0.001000,0.001000,0.001000,0.001000,0.001000
1004.692308,-0.043053,0.001000,0.001000,0.001000,0.001000,0.001000
1004.711538,-0.042497,0.001000,0.001000,0.001000,0.001000,0.001000
1004.730769,-0.041920,0.001000,0.001000,0.001000,0.001000,0.001000
1004.750000,-0.041325,0.001000,0.001000,0.001000,0.001000,0.001000
1004.769231,-0.040710,0.001000,0.001000,0.001000,0.001000,0.001000
1004.788462,-0.040077,0.001000,0.001000,0.001000,0.001000,0.001000
1004.807692,-0.039425,0.001000,0.001000,0.001000,0.001000,0.001000
1004.826923,-0.038755,0.001000,0.001000,0.001000,0.001000,0.001000
1004.846154,-0.038066,0.001000,0.001000,0.001000,0.001000,0.001000
1004.865385,-0.037361,0.001000,0.001000,0.001000,0.001000,0.001000
1004.884615,-0.036638,0.001000,0.001000,0.001000,0.001000,0.001000
1004.903846,-0.035898,0.001000,0.001000,0.001000,0.001000,0.001000
1004.923077,-0.035141,0.001000,0.001000,0.001000,0.001000,0.001000
1004.942308,-0.034369,0.001000,0.001000,0.001000,0.001000,0.001000
1004.961538,-0.033580,0.001000,0.001000,0.001000,0.001000,0.001000
1004.980769,-0.032776,0.001000,0.001000,0.001000,0.001000,0.001000
1005.000000,-0.031957,0.001000,0.001000,0.001000,0.001000,0.001000
1005.019231,-0.031122,0.001000,0.001000,0.001000,0.001000,0.001000
1005.038462,-0.030274,0.001000,0.001000,0.001000,0.001000,0.001000
1005.057692,-0.029412,0.001000,0.001000,0.001000,0.001000,0.001000
1005.076923,-0.028535,0.001000,0.001000,0.001000,0.001000,0.001000
1005.096154,-0.027646,0.001000,0.001000,0.001000,0.001000,0.001000
1005.115385,-0.026744,0.001000,0.001000,0.001000,0.001000,0.001000
1005.134615,-0.025830,0.001000,0.001000,0.001000,0.001000,0.001000
1005.153846,-0.024904,0.001000,0.001000,0.001000,0.001000,0.001000
1005.173077,-0.023966,0.001000,0.001000,0.001000,0.001000,0.001000
1005.192308,-0.023017,0.001000,0.001000,0.001000,0.001000,0.001000
1005.211538,-0.022057,0.001000,0.001000,0.001000,0.001000,0.001000
1005.230769,-0.021088,0.001000,0.001000,0.001000,0.001000,0.001000
1005.250000,-0.020108,0.001000,0.001000,0.001000,0.001000,0.001000
1005.269231,-0.019119,0.001000,0.001000,0.001000,0.001000,0.001000
1005.288462,-0.018122,0.001000,0.001000,0.001000,0.001000,0.001000
1005.307692,-0.017116,0.001000,0.001000,0.001000,0.001000,0.001000
1005.326923,-0.016102,0.001000,0.001000,0.001000,0.001000,0.001000
1005.346154,-0.015080,0.001000,0.001000,0.001000,0.001000,0.001000
1005.365385,-0.014052,0.001000,0.001000,0.001000,0.001000,0.001000
1005.384615,-0.013017,0.001000,0.001000,0.001000,0.001000,0.001000
1005.403846,-0.011977,0.001000,0.001000,0.001000,0.001000,0.001000
1005.423077,-0.010930,0.001000,0.001000,0.001000,0.001000,0.001000
1005.442308,-0.009879,0.001000,0.001000,0.001000,0.001000,0.001000
1005.461538,-0.008823,0.001000,0.001000,0.001000,0.001000,0.001000
1005.480769,-0.007763,0.001000,0.001000,0.001000,0.001000,0.001000
1005.500000,-0.006699,0.001000,0.001000,0.001000,0.001000,0.001000
1005.519231,-0.005632,0.001000,0.001000,0.001000,0.001000,0.001000
1005.538462,-0.004563,0.001000,0.001000,0.001000,0.001000,0.001000
1005.557692,-0.003492,0.001000,0.001000,0.001000,0.001000,0.001000
1005.576923,-0.002418,0.001000,0.001000,0.001000,0.001000,0.001000
1005.596154,-0.001344,0.001000,0.001000,0.001000,0.001000,0.001000
1005.615385,-0.000269,0.001000,0.001000,0.001000,0.001000,0.001000
1005.634615,0.000805,0.001000,0.001000,0.001000,0.001000,0.001000
1005.653846,0.001880,0.001000,0.001000,0.001000,0.001000,0.001000
1005.673077,0.002954,0.001000,0.001000,0.001000,0.001000,0.001000
1005.692308,0.004026,0.001000,0.001000,0.001000,0.001000,0.001000
1005.711538,0.005096,0.001000,0.001000,0.001000,0.001000,0.001000
1005.730769,0.006165,0.001000,0.001000,0.001000,0.001000,0.001000
1005.750000,0.007230,0.001000,0.001000,0.001000,0.001000,0.001000
1005.769231,0.008292,0.001000,0.001000,0.001000,0.001000,0.001000
1005.788462,0.009350,0.001000,0.001000,0.001000,0.001000,0.001000
1005.807692,0.010404,0.001000,0.001000,0.001000,0.001000,0.001000
1005.826923,0.011453,0.001000,0.001000,0.001000,0.001000,0.001000
1005.846154,0.012496,0.001000,0.001000,0.001000,0.001000,0.001000
1005.865385,0.013534,0.001000,0.001000,0.001000,0.001000,0.001000
1005.884615,0.014566,0.001000,0.001000,0.001000,0.001000,0.001000
1005.903846,0.015591,0.001000,0.001000,0.001000,0.001000,0.001000
1005.923077,0.016608,0.001000,0.001000,0.001000,0.001000,0.001000
1005.942308,0.017618,0.001000,0.001000,0.001000,0.001000,0.001000
1005.961538,0.018620,0.001000,0.001000,0.001000,0.001000,0.001000
1005.980769,0.019613,0.001000,0.001000,0.001000,0.001000,0.001000
1006.000000,0.020598,0.001000,0.001000,0.001000,0.001000,0.001000
1006.019231,0.021572,0.001000,0.001000,0.001000,0.001000,0.001000
1006.038462,0.022537,0.001000,0.001000,0.001000,0.001000,0.001000
1006.057692,0.023491,0.001000,0.001000,0.001000,0.001000,0.001000
1006.076923,0.024435,0.001000,0.001000,0.001000,0.001000,0.001000
1006.096154,0.025367,0.001000,0.001000,0.001000,0.001000,0.001000
1006.115385,0.026287,0.001000,0.001000,0.001000,0.001000,0.001000
1006.134615,0.027196,0.001000,0.001000,0.001000,0.001000,0.001000
1006.153846,0.028091,0.001000,0.001000,0.001000,0.001000,0.001000
1006.173077,0.028974,0.001000,0.001000,0.001000,0.001000,0.001000
1006.192308,0.029843,0.001000,0.001000,0.001000,0.001000,0.001000
1006.211538,0.030699,0.001000,0.001000,0.001000,0.001000,0.001000
1006.230769,0.031540,0.001000,0.001000,0.001000,0.001000,0.001000
1006.250000,0.032367,0.001000,0.001000,0.001000,0.001000,0.001000
1006.269231,0.033179,0.001000,0.001000,0.001000,0.001000,0.001000
1006.288462,0.033975,0.001000,0.001000,0.001000,0.001000,0.001000
1006.307692,0.034756,0.001000,0.001000,0.001000,0.001000,0.001000
1006.326923,0.035521,0.001000,0.001000,0.001000,0.001000,0.001000
1006.346154,0.036269,0.001000,0.001000,0.001000,0.001000,0.001000
1006.365385,0.037000,0.001000,0.001000,0.001000,0.001000,0.001000
1006.384615,0.037715,0.001000,0.001000,0.001000,0.001000,0.001000
1006.403846,0.038412,0.001000,0.001000,0.001000,0.001000,0.001000
1006.423077,0.039091,0.001000,0.001000,0.001000,0.001000,0.001000
1006.442308,0.039752,0.001000,0.001000,0.001000,0.001000,0.001000
1006.461538,0.040395,0.001000,0.001000,0.001000,0.001000,0.001000
1006.480769,0.041019,0.001000,0.001000,0.001000,0.001000,0.001000
1006.500000,0.041624,0.001000,0.001000,0.001000,0.001000,0.001000
1006.519231,0.042210,0.001000,0.001000,0.001000,0.001000,0.001000
1006.538462,0.042777,0.001000,0.001000,0.001000,0.001000,0.001000
1006.557692,0.043323,0.001000,0.001000,0.001000,0.001000,0.001000
1006.576923,0.043850,0.001000,0.001000,0.001000,0.001000,0.001000
1006.596154,0.044356,0.001000,0.001000,0.001000,0.001000,0.001000
1006.615385,0.044842,0.001000,0.001000,0.001000,0.001000,0.001000
1006.634615,0.045307,0.001000,0.001000,0.001000,0.001000,0.001000
1006.653846,0.045751,0.001000,0.001000,0.001000,0.001000,0.001000
1006.673077,0.046174,0.001000,0.001000,0.001000,0.001000,0.001000
1006.692308,0.046576,0.001000,0.001000,0.001000,0.001000,0.001000
1006.711538,0.046956,0.001000,0.001000,0.001000,0.001000,0.001000
1006.730769,0.047315,0.001000,0.001000,0.001000,0.001000,0.001000
1006.750000,0.047651,0.001000,0.001000,0.001000,0.001000,0.001000
1006.769231,0.047966,0.001000,0.001000,0.001000,0.001000,0.001000
1006.788462,0.048258,0.001000,0.001000,0.001000,0.001000,0.001000
1006.807692,0.048528,0.001000,0.001000,0.001000,0.001000,0.001000
1006.826923,0.048776,0.001000,0.001000,0.001000,0.001000,0.001000
1006.846154,0.049001,0.001000,0.001000,0.001000,0.001000,0.001000
1006.865385,0.049204,0.001000,0.001000,0.001000,0.001000,0.001000
1006.884615,0.049383,0.001000,0.001000,0.001000,0.001000,0.001000
1006.903846,0.049540,0.001000,0.001000,0.001000,0.001000,0.001000
1006.923077,0.049674,0.001000,0.001000,0.001000,0.001000,0.001000
1006.942308,0.049785,0.001000,0.001000,0.001000,0.001000,0.001000
1006.961538,0.049873,0.001000,0.001000,0.001000,0.001000,0.001000
1006.980769,0.049938,0.001000,0.001000,0.001000,0.001000,0.001000
1007.000000,0.049980,0.001000,0.001000,0.001000,0.001000,0.001000
1007.019231,0.049999,0.001000,0.001000,0.001000,0.001000,0.001000
1007.038462,0.049995,0.001000,0.001000,0.001000,0.001000,0.001000
1007.057692,0.049967,0.001000,0.001000,0.001000,0.001000,0.001000
1007.076923,0.049917,0.001000,0.001000,0.001000,0.001000,0.001000
1007.096154,0.049843,0.001000,0.001000,0.001000,0.001000,0.001000
1007.115385,0.049746,0.001000,0.001000,0.001000,0.001000,0.001000
1007.134615,0.049627,0.001000,0.001000,0.001000,0.001000,0.001000
1007.153846,0.049484,0.001000,0.001000,0.001000,0.001000,0.001000
1007.173077,0.049319,0.001000,0.001000,0.001000,0.001000,0.001000
1007.192308,0.049131,0.001000,0.001000,0.001000,0.001000,0.001000
1007.211538,0.048920,0.001000,0.001000,0.001000,0.001000,0.001000
1007.230769,0.048686,0.001000,0.001000,0.001000,0.001000,0.001000
1007.250000,0.048430,0.001000,0.001000,0.001000,0.001000,0.001000
1007.269231,0.048152,0.001000,0.001000,0.001000,0.001000,0.001000
1007.288462,0.047851,0.001000,0.001000,0.001000,0.001000,0.001000
1007.307692,0.047528,0.001000,0.001000,0.001000,0.001000,0.001000
1007.326923,0.047183,0.001000,0.001000,0.001000,0.001000,0.001000
1007.346154,0.046817,0.001000,0.001000,0.001000,0.001000,0.001000
1007.365385,0.046429,0.001000,0.001000,0.001000,0.001000,0.001000
1007.384615,0.046019,0.001000,0.001000,0.001000,0.001000,0.001000
1007.403846,0.045588,0.001000,0.001000,0.001000,0.001000,0.001000
1007.423077,0.045136,0.001000,0.001000,0.001000,0.001000,0.001000
1007.442308,0.044663,0.001000,0.001000,0.001000,0.001000,0.001000
1007.461538,0.044170,0.001000,0.001000,0.001000,0.001000,0.001000
1007.480769,0.043656,0.001000,0.001000,0.001000,0.001000,0.001000
1007.500000,0.043121,0.001000,0.001000,0.001000,0.001000,0.001000
1007.519231,0.042567,0.001000,0.001000,0.001000,0.001000,0.001000
1007.538462,0.041994,0.001000,0.001000,0.001000,0.001000,0.001000
1007.557692,0.041401,0.001000,0.001000,0.001000,0.001000,0.001000
1007.576923,0.040788,0.001000,0.001000,0.001000,0.001000,0.001000
1007.596154,0.040157,0.001000,0.001000,0.001000,0.001000,0.001000
1007.615385,0.039508,0.001000,0.001000,0.001000,0.001000,0.001000
1007.634615,0.038840,0.001000,0.001000,0.001000,0.001000,0.001000
1007.653846,0.038154,0.001000,0.001000,0.001000,0.001000,0.001000
1007.673077,0.037450,0.001000,0.001000,0.001000,0.001000,0.001000
1007.692308,0.036729,0.001000,0.001000,0.001000,0.001000,0.001000
1007.711538,0.035992,0.001000,0.001000,0.001000,0.001000,0.001000
1007.730769,0.035237,0.001000,0.001000,0.001000,0.001000,0.001000
1007.750000,0.034466,0.001000,0.001000,0.001000,0.001000,0.001000
1007.769231,0.033680,0.001000,0.001000,0.001000,0.001000,0.001000
1007.788462,0.032877,0.001000,0.001000,0.001000,0.001000,0.001000
1007.807692,0.032060,0.001000,0.001000,0.001000,0.001000,0.001000
1007.826923,0.031228,0.001000,0.001000,0.001000,0.001000,0.001000
1007.846154,0.030381,0.001000,0.001000,0.001000,0.001000,0.001000
1007.865385,0.029520,0.001000,0.001000,0.001000,0.001000,0.001000
1007.884615,0.028646,0.001000,0.001000,0.001000,0.001000,0.001000
1007.903846,0.027758,0.001000,0.001000,0.001000,0.001000,0.001000
1007.923077,0.026858,0.001000,0.001000,0.001000,0.001000,0.001000
1007.942308,0.025945,0.001000,0.001000,0.001000,0.001000,0.001000
1007.961538,0.025020,0.001000,0.001000,0.001000,0.001000,0.001000
1007.980769,0.024084,0.001000,0.001000,0.001000,0.001000,0.001000
1008.000000,0.023136,0.001000,0.001000,0.001000,0.001000,0.001000
1008.019231,0.022178,0.001000,0.001000,0.001000,0.001000,0.001000
1008.038462,0.021210,0.001000,0.001000,0.001000,0.001000,0.001000
1008.057692,0.020231,0.001000,0.001000,0.001000,0.001000,0.001000
1008.076923,0.019244,0.001000,0.001000,0.001000,0.001000,0.001000
1008.096154,0.018247,0.001000,0.001000,0.001000,0.001000,0.001000
1008.115385,0.017242,0.001000,0.001000,0.001000,0.001000,0.001000
1008.134615,0.016229,0.001000,0.001000,0.001000,0.001000,0.001000
1008.153846,0.015209,0.001000,0.001000,0.001000,0.001000,0.001000
1008.173077,0.014181,0.001000,0.001000,0.001000,0.001000,0.001000
1008.192308,0.013147,0.001000,0.001000,0.001000,0.001000,0.001000
1008.211538,0.012107,0.001000,0.001000,0.001000,0.001000,0.001000
1008.230769,0.011062,0.001000,0.001000,0.001000,0.001000,0.001000
1008.250000,0.010011,0.001000,0.001000,0.001000,0.001000,0.001000
1008.269231,0.008955,0.001000,0.001000,0.001000,0.001000,0.001000
1008.288462,0.007896,0.001000,0.001000,0.001000,0.001000,0.001000
1008.307692,0.006833,0.001000,0.001000,0.001000,0.001000,0.001000
1008.326923,0.005766,0.001000,0.001000,0.001000,0.001000,0.001000
1008.346154,0.004697,0.001000,0.001000,0.001000,0.001000,0.001000
1008.365385,0.003626,0.001000,0.001000,0.001000,0.001000,0.001000
1008.384615,0.002553,0.001000,0.001000,0.001000,0.001000,0.001000
1008.403846,0.001479,0.001000,0.001000,0.001000,0.001000,0.001000
1008.423077,0.000404,0.001000,0.001000,0.001000,0.001000,0.001000
1008.442308,-0.000671,0.001000,0.001000,0.001000,0.001000,0.001000
1008.461538,-0.001745,0.001000,0.001000,0.001000,0.001000,0.001000
1008.480769,-0.002819,0.001000,0.001000,0.001000,0.001000,0.001000
1008.500000,-0.003892,0.001000,0.001000,0.001000,0.001000,0.001000
1008.519231,-0.004962,0.001000,0.001000,0.001000,0.001000,0.001000
1008.538462,-0.006031,0.001000,0.001000,0.001000,0.001000,0.001000
1008.557692,-0.007096,0.001000,0.001000,0.001000,0.001000,0.001000
1008.576923,-0.008159,0.001000,0.001000,0.001000,0.001000,0.001000
1008.596154,-0.009217,0.001000,0.001000,0.001000,0.001000,0.001000
1008.615385,-0.010272,0.001000,0.001000,0.001000,0.001000,0.001000
1008.634615,-0.011321,0.001000,0.001000,0.001000,0.001000,0.001000
1008.653846,-0.012366,0.001000,0.001000,0.001000,0.001000,0.001000
1008.673077,-0.013404,0.001000,0.001000,0.001000,0.001000,0.001000
1008.692308,-0.014437,0.001000,0.001000,0.001000,0.001000,0.001000
1008.711538,-0.015463,0.001000,0.001000,0.001000,0.001000,0.001000
1008.730769,-0.016481,0.001000,0.001000,0.001000,0.001000,0.001000
1008.750000,-0.017492,0.001000,0.001000,0.001000,0.001000,0.001000
1008.769231,-0.018495,0.001000,0.001000,0.001000,0.001000,0.001000
1008.788462,-0.019489,0.001000,0.001000,0.001000,0.001000,0.001000
1008.807692,-0.020475,0.001000,0.001000,0.001000,0.001000,0.001000
1008.826923,-0.021451,0.001000,0.001000,0.001000,0.001000,0.001000
1008.846154,-0.022417,0.001000,0.001000,0.001000,0.001000,0.001000
1008.865385,-0.023372,0.001000,0.001000,0.001000,0.001000,0.001000
1008.884615,-0.024317,0.001000,0.001000,0.001000,0.001000,0.001000
1008.903846,-0.025251,0.001000,0.001000,0.001000,0.001000,0.001000
1008.923077,-0.026173,0.001000,0.001000,0.001000,0.001000,0.001000
1008.942308,-0.027082,0.001000,0.001000,0.001000,0.001000,0.001000
1008.961538,-0.027980,0.001000,0.001000,0.001000,0.001000,0.001000
1008.980769,-0.028864,0.001000,0.001000,0.001000,0.001000,0.001000
1009.000000,-0.029735,0.001000,0.001000,0.001000,0.001000,0.001000
1009.019231,-0.030592,0.001000,0.001000,0.001000,0.001000,0.001000
1009.038462,-0.031436,0.001000,0.001000,0.001000,0.001000,0.001000
1009.057692,-0.032264,0.001000,0.001000,0.001000,0.001000,0.001000
1009.076923,-0.033078,0.001000,0.001000,0.001000,0.001000,0.001000
1009.096154,-0.033876,0.001000,0.001000,0.001000,0.001000,0.001000
1009.115385,-0.034659,0.001000,0.001000,0.001000,0.001000,0.001000
1009.134615,-0.035426,0.001000,0.001000,0.001000,0.001000,0.001000
1009.153846,-0.036176,0.001000,0.001000,0.001000,0.001000,0.001000
1009.173077,-0.036910,0.001000,0.001000,0.001000,0.001000,0.001000
1009.192308,-0.037626,0.001000,0.001000,0.001000,0.001000,0.001000
1009.211538,-0.038325,0.001000,0.001000,0.001000,0.001000,0.001000
1009.230769,-0.039007,0.001000,0.001000,0.001000,0.001000,0.001000
1009.250000,-0.039670,0.001000,0.001000,0.001000,0.001000,0.001000
1009.269231,-0.040315,0.001000,0.001000,0.001000,0.001000,0.001000
1009.288462,-0.040942,0.001000,0.001000,0.001000,0.001000,0.001000
1009.307692,-0.041549,0.001000,0.001000,0.001000,0.001000,0.001000
1009.326923,-0.042138,0.001000,0.001000,0.001000,0.001000,0.001000
1009.346154,-0.042707,0.001000,0.001000,0.001000,0.001000,0.001000
1009.365385,-0.043256,0.001000,0.001000,0.001000,0.001000,0.001000
1009.384615,-0.043785,0.001000,0.001000,0.001000,0.001000,0.001000
1009.403846,-0.044294,0.001000,0.001000,0.001000,0.001000,0.001000
1009.423077,-0.044782,0.001000,0.001000,0.001000,0.001000,0.001000
1009.442308,-0.045250,0.001000,0.001000,0.001000,0.001000,0.001000
1009.461538,-0.045697,0.001000,0.001000,0.001000,0.001000,0.001000
1009.480769,-0.046122,0.001000,0.001000,0.001000,0.001000,0.001000
1009.500000,-0.046527,0.001000,0.001000,0.001000,0.001000,0.001000
1009.519231,-0.046910,0.001000,0.001000,0.001000,0.001000,0.001000
1009.538462,-0.047271,0.001000,0.001000,0.001000,0.001000,0.001000
1009.557692,-0.047610,0.001000,0.001000,0.001000,0.001000,0.001000
1009.576923,-0.047928,0.001000,0.001000,0.001000,0.001000,0.001000
1009.596154,-0.048223,0.001000,0.001000,0.001000,0.001000,0.001000
1009.615385,-0.048496,0.001000,0.001000,0.001000,0.001000,0.001000
1009.634615,-0.048746,0.001000,0.001000,0.001000,0.001000,0.001000
1009.653846,-0.048974,0.001000,0.001000,0.001000,0.001000,0.001000
1009.673077,-0.049179,0.001000,0.001000,0.001000,0.001000,0.001000
1009.692308,-0.049362,0.001000,0.001000,0.001000,0.001000,0.001000
1009.711538,-0.049522,0.001000,0.001000,0.001000,0.001000,0.001000
1009.730769,-0.049659,0.001000,0.001000,0.001000,0.001000,0.001000
1009.750000,-0.049773,0.001000,0.001000,0.001000,0.001000,0.001000
1009.769231,-0.049863,0.001000,0.001000,0.001000,0.001000,0.001000
1009.788462,-0.049931,0.001000,0.001000,0.001000,0.001000,0.001000
1009.807692,-0.049976,0.001000,0.001000,0.001000,0.001000,0.001000
1009.826923,-0.049998,0.001000,0.001000,0.001000,0.001000,0.001000
1009.846154,-0.049996,0.001000,0.001000,0.001000,0.001000,0.001000
1009.865385,-0.049972,0.001000,0.001000,0.001000,0.001000,0.001000
1009.884615,-0.049924,0.001000,0.001000,0.001000,0.001000,0.001000
1009.903846,-0.049854,0.001000,0.001000,0.001000,0.001000,0.001000
1009.923077,-0.049760,0.001000,0.001000,0.001000,0.001000,0.001000
1009.942308,-0.049643,0.001000,0.001000,0.001000,0.001000,0.001000
1009.961538,-0.049503,0.001000,0.001000,0.001000,0.001000,0.001000
1009.980769,-0.049341,0.001000,0.001000,0.001000,0.001000,0.001000
1010.000000,-0.049155,0.001000,0.001000,0.001000,0.001000,0.001000
1010.019231,-0.048947,0.001000,0.001000,0.001000,0.001000,0.001000
1010.038462,-0.048717,0.001000,0.001000,0.001000,0.001000,0.001000
1010.057692,-0.048463,0.001000,0.001000,0.001000,0.001000,0.001000
1010.076923,-0.048188,0.001000,0.001000,0.001000,0.001000,0.001000
1010.096154,-0.047890,0.001000,0.001000,0.001000,0.001000,0.001000
1010.115385,-0.047570,0.001000,0.001000,0.001000,0.001000,0.001000
1010.134615,-0.047228,0.001000,0.001000,0.001000,0.001000,0.001000
1010.153846,-0.046864,0.001000,0.001000,0.001000,0.001000,0.001000
1010.173077,-0.046478,0.001000,0.001000,0.001000,0.001000,0.001000
1010.192308,-0.046071,0.001000,0.001000,0.001000,0.001000,0.001000
1010.211538,-0.045643,0.001000,0.001000,0.001000,0.001000,0.001000
1010.230769,-0.045194,0.001000,0.001000,0.001000,0.001000,0.001000
1010.250000,-0.044723,0.001000,0.001000,0.001000,0.001000,0.001000
1010.269231,-0.044233,0.001000,0.001000,0.001000,0.001000,0.001000
1010.288462,-0.043721,0.001000,0.001000,0.001000,0.001000,0.001000
1010.307692,-0.043190,0.001000,0.001000,0.001000,0.001000,0.001000
1010.326923,-0.042638,0.001000,0.001000,0.001000,0.001000,0.001000
1010.346154,-0.042067,0.001000,0.001000,0.001000,0.001000,0.001000
1010.365385,-0.041476,0.001000,0.001000,0.001000,0.001000,0.001000
1010.384615,-0.040866,0.001000,0.001000,0.001000,0.001000,0.001000
1010.403846,-0.040237,0.001000,0.001000,0.001000,0.001000,0.001000
1010.423077,-0.039590,0.001000,0.001000,0.001000,0.001000,0.001000
1010.442308,-0.038924,0.001000,0.001000,0.001000,0.001000,0.001000
1010.461538,-0.038241,0.001000,0.001000,0.001000,0.001000,0.001000
1010.480769,-0.037539,0.001000,0.001000,0.001000,0.001000,0.001000
1010.500000,-0.036821,0.001000,0.001000,0.001000,0.001000,0.001000
1010.519231,-0.036085,0.001000,0.001000,0.001000,0.001000,0.001000
1010.538462,-0.035333,0.001000,0.001000,0.001000,0.001000,0.001000
1010.557692,-0.034564,0.001000,0.001000,0.001000,0.001000,0.001000
1010.576923,-0.033779,0.001000,0.001000,0.001000,0.001000,0.001000
1010.596154,-0.032979,0.001000,0.001000,0.001000,0.001000,0.001000
1010.615385,-0.032163,0.001000,0.001000,0.001000,0.001000,0.001000
1010.634615,-0.031333,0.001000,0.001000,0.001000,0.001000,0.001000
1010.653846,-0.030488,0.001000,0.001000,0.001000,0.001000,0.001000
1010.673077,-0.029629,0.001000,0.001000,0.001000,0.001000,0.001000
1010.692308,-0.028756,0.001000,0.001000,0.001000,0.001000,0.001000
1010.711538,-0.027870,0.001000,0.001000,0.001000,0.001000,0.001000
1010.730769,-0.026972,0.001000,0.001000,0.001000,0.001000,0.001000
1010.750000,-0.026060,0.001000,0.001000,0.001000,0.001000,0.001000
1010.769231,-0.025137,0.001000,0.001000,0.001000,0.001000,0.001000
1010.788462,-0.024202,0.001000,0.001000,0.001000,0.001000,0.001000
1010.807692,-0.023256,0.001000,0.001000,0.001000,0.001000,0.001000
1010.826923,-0.022299,0.001000,0.001000,0.001000,0.001000,0.001000
1010.846154,-0.021332,0.001000,0.001000,0.001000,0.001000,0.001000
1010.865385,-0.020354,0.001000,0.001000,0.001000,0.001000,0.001000
1010.884615,-0.019368,0.001000,0.001000,0.001000,0.001000,0.001000
1010.903846,-0.018373,0.001000,0.001000,0.001000,0.001000,0.001000
1010.923077,-0.017369,0.001000,0.001000,0.001000,0.001000,0.001000
1010.942308,-0.016357,0.001000,0.001000,0.001000,0.001000,0.001000
1010.961538,-0.015337,0.001000,0.001000,0.001000,0.001000,0.001000
1010.980769,-0.014311,0.001000,0.001000,0.001000,0.001000,0.001000
1011.000000,-0.013277,0.001000,0.001000,0.001000,0.001000,0.001000
1011.019231,-0.012238,0.001000,0.001000,0.001000,0.001000,0.001000
1011.038462,-0.011193,0.001000,0.001000,0.001000,0.001000,0.001000
1011.057692,-0.010143,0.001000,0.001000,0.001000,0.001000,0.001000
1011.076923,-0.009088,0.001000,0.001000,0.001000,0.001000,0.001000
1011.096154,-0.008029,0.001000,0.001000,0.001000,0.001000,0.001000
1011.115385,-0.006966,0.001000,0.001000,0.001000,0.001000,0.001000
1011.134615,-0.005900,0.001000,0.001000,0.001000,0.001000,0.001000
1011.153846,-0.004831,0.001000,0.001000,0.001000,0.001000,0.001000
1011.173077,-0.003760,0.001000,0.001000,0.001000,0.001000,0.001000
1011.192308,-0.002688,0.001000,0.001000,0.001000,0.001000,0.001000
1011.211538,-0.001614,0.001000,0.001000,0.001000,0.001000,0.001000
1011.230769,-0.000539,0.001000,0.001000,0.001000,0.001000,0.001000
1011.250000,0.000536,0.001000,0.001000,0.001000,0.001000,0.001000
1011.269231,0.001611,0.001000,0.001000,0.001000,0.001000,0.001000
1011.288462,0.002685,0.001000,0.001000,0.001000,0.001000,0.001000
1011.307692,0.003757,0.001000,0.001000,0.001000,0.001000,0.001000
1011.326923,0.004828,0.001000,0.001000,0.001000,0.001000,0.001000
1011.346154,0.005897,0.001000,0.001000,0.001000,0.001000,0.001000
1011.365385,0.006963,0.001000,0.001000,0.001000,0.001000,0.001000
1011.384615,0.008026,0.001000,0.001000,0.001000,0.001000,0.001000
1011.403846,0.009085,0.001000,0.001000,0.001000,0.001000,0.001000
1011.423077,0.010140,0.001000,0.001000,0.001000,0.001000,0.001000
1011.442308,0.011190,0.001000,0.001000,0.001000,0.001000,0.001000
1011.461538,0.012235,0.001000,0.001000,0.001000,0.001000,0.001000
1011.480769,0.013274,0.001000,0.001000,0.001000,0.001000,0.001000
1011.500000,0.014308,0.001000,0.001000,0.001000,0.001000,0.001000
1011.519231,0.015334,0.001000,0.001000,0.001000,0.001000,0.001000
1011.538462,0.016354,0.001000,0.001000,0.001000,0.001000,0.001000
1011.557692,0.017366,0.001000,0.001000,0.001000,0.001000,0.001000
1011.576923,0.018370,0.001000,0.001000,0.001000,0.001000,0.001000
1011.596154,0.019365,0.001000,0.001000,0.001000,0.001000,0.001000
1011.615385,0.020352,0.001000,0.001000,0.001000,0.001000,0.001000
1011.634615,0.021329,0.001000,0.001000,0.001000,0.001000,0.001000
1011.653846,0.022296,0.001000,0.001000,0.001000,0.001000,0.001000
1011.673077,0.023253,0.001000,0.001000,0.001000,0.001000,0.001000
1011.692308,0.024199,0.001000,0.001000,0.001000,0.001000,0.001000
1011.711538,0.025134,0.001000,0.001000,0.001000,0.001000,0.001000
1011.730769,0.026058,0.001000,0.001000,0.001000,0.001000,0.001000
1011.750000,0.026969,0.001000,0.001000,0.001000,0.001000,0.001000
1011.769231,0.027868,0.001000,0.001000,0.001000,0.001000,0.001000
1011.788462,0.028754,0.001000,0.001000,0.001000,0.001000,0.001000
1011.807692,0.029627,0.001000,0.001000,0.001000,0.001000,0.001000
1011.826923,0.030486,0.001000,0.001000,0.001000,0.001000,0.001000
1011.846154,0.031331,0.001000,0.001000,0.001000,0.001000,0.001000
1011.865385,0.032161,0.001000,0.001000,0.001000,0.001000,0.001000
1011.884615,0.032977,0.001000,0.001000,0.001000,0.001000,0.001000
1011.903846,0.033777,0.001000,0.001000,0.001000,0.001000,0.001000
1011.923077,0.034562,0.001000,0.001000,0.001000,0.001000,0.001000
1011.942308,0.035330,0.001000,0.001000,0.001000,0.001000,0.001000
1011.961538,0.036083,0.001000,0.001000,0.001000,0.001000,0.001000
1011.980769,0.036819,0.001000,0.001000,0.001000,0.001000,0.001000
1012.000000,0.037537,0.001000,0.001000,0.001000,0.001000,0.001000
1012.019231,0.038239,0.001000,0.001000,0.001000,0.001000,0.001000
1012.038462,0.038922,0.001000,0.001000,0.001000,0.001000,0.001000
1012.057692,0.039588,0.001000,0.001000,0.001000,0.001000,0.001000
1012.076923,0.040236,0.001000,0.001000,0.001000,0.001000,0.001000
1012.096154,0.040864,0.001000,0.001000,0.001000,0.001000,0.001000
1012.115385,0.041474,0.001000,0.001000,0.001000,0.001000,0.001000
1012.134615,0.042065,0.001000,0.001000,0.001000,0.001000,0.001000
1012.153846,0.042636,0.001000,0.001000,0.001000,0.001000,0.001000
1012.173077,0.043188,0.001000,0.001000,0.001000,0.001000,0.001000
1012.192308,0.043720,0.001000,0.001000,0.001000,0.001000,0.001000
1012.211538,0.044231,0.001000,0.001000,0.001000,0.001000,0.001000
1012.230769,0.044722,0.001000,0.001000,0.001000,0.001000,0.001000
1012.250000,0.045192,0.001000,0.001000,0.001000,0.001000,0.001000
1012.269231,0.045642,0.001000,0.001000,0.001000,0.001000,0.001000
1012.288462,0.046070,0.001000,0.001000,0.001000,0.001000,0.001000
1012.307692,0.046477,0.001000,0.001000,0.001000,0.001000,0.001000
1012.326923,0.046863,0.001000,0.001000,0.001000,0.001000,0.001000
1012.346154,0.047227,0.001000,0.001000,0.001000,0.001000,0.001000
1012.365385,0.047569,0.001000,0.001000,0.001000,0.001000,0.001000
1012.384615,0.047889,0.001000,0.001000,0.001000,0.001000,0.001000
1012.403846,0.048187,0.001000,0.001000,0.001000,0.001000,0.001000
1012.423077,0.048463,0.001000,0.001000,0.001000,0.001000,0.001000
1012.442308,0.048716,0.001000,0.001000,0.001000,0.001000,0.001000
1012.461538,0.048947,0.001000,0.001000,0.001000,0.001000,0.001000
1012.480769,0.049155,0.001000,0.001000,0.001000,0.001000,0.001000
1012.500000,0.049340,0.001000,0.001000,0.001000,0.001000,0.001000
1012.519231,0.049503,0.001000,0.001000,0.001000,0.001000,0.001000
1012.538462,0.049643,0.001000,0.001000,0.001000,0.001000,0.001000
1012.557692,0.049759,0.001000,0.001000,0.001000,0.001000,0.001000
1012.576923,0.049853,0.001000,0.001000,0.001000,0.001000,0.001000
1012.596154,0.049924,0.001000,0.001000,0.001000,0.001000,0.001000
1012.615385,0.049972,0.001000,0.001000,0.001000,0.001000,0.001000
1012.634615,0.049996,0.001000,0.001000,0.001000,0.001000,0.001000
1012.653846,0.049998,0.001000,0.001000,0.001000,0.001000,0.001000
1012.673077,0.049976,0.001000,0.001000,0.001000,0.001000,0.001000
1012.692308,0.049931,0.001000,0.001000,0.001000,0.001000,0.001000
1012.711538,0.049864,0.001000,0.001000,0.001000,0.001000,0.001000
1012.730769,0.049773,0.001000,0.001000,0.001000,0.001000,0.001000
1012.750000,0.049659,0.001000,0.001000,0.001000,0.001000,0.001000
1012.769231,0.049522,0.001000,0.001000,0.001000,0.001000,0.001000
1012.788462,0.049362,0.001000,0.001000,0.001000,0.001000,0.001000
1012.807692,0.049180,0.001000,0.001000,0.001000,0.001000,0.001000
1012.826923,0.048975,0.001000,0.001000,0.001000,0.001000,0.001000
1012.846154,0.048747,0.001000,0.001000,0.001000,0.001000,0.001000
1012.865385,0.048496,0.001000,0.001000,0.001000,0.001000,0.001000
1012.884615,0.048224,0.001000,0.001000,0.001000,0.001000,0.001000
1012.903846,0.047928,0.001000,0.001000,0.001000,0.001000,0.001000
1012.923077,0.047611,0.001000,0.001000,0.001000,0.001000,0.001000
1012.942308,0.047272,0.001000,0.001000,0.001000,0.001000,0.001000
1012.961538,0.046911,0.001000,0.001000,0.001000,0.001000,0.001000
1012.980769,0.046528,0.001000,0.001000,0.001000,0.001000,0.001000
1013.000000,0.046124,0.001000,0.001000,0.001000,0.001000,0.001000
1013.019231,0.045698,0.001000,0.001000,0.001000,0.001000,0.001000
1013.038462,0.045251,0.001000,0.001000,0.001000,0.001000,0.001000
1013.057692,0.044784,0.001000,0.001000,0.001000,0.001000,0.001000
1013.076923,0.044295,0.001000,0.001000,0.001000,0.001000,0.001000
1013.096154,0.043786,0.001000,0.001000,0.001000,0.001000,0.001000
1013.115385,0.043257,0.001000,0.001000,0.001000,0.001000,0.001000
1013.134615,0.042708,0.001000,0.001000,0.001000,0.001000,0.001000
1013.153846,0.042139,0.001000,0.001000,0.001000,0.001000,0.001000
1013.173077,0.041551,0.001000,0.001000,0.001000,0.001000,0.001000
1013.192308,0.040944,0.001000,0.001000,0.001000,0.001000,0.001000
1013.211538,0.040317,0.001000,0.001000,0.001000,0.001000,0.001000
1013.230769,0.039672,0.001000,0.001000,0.001000,0.001000,0.001000
1013.250000,0.039009,0.001000,0.001000,0.001000,0.001000,0.001000
1013.269231,0.038327,0.001000,0.001000,0.001000,0.001000,0.001000
1013.288462,0.037628,0.001000,0.001000,0.001000,0.001000,0.001000
1013.307692,0.036912,0.001000,0.001000,0.001000,0.001000,0.001000
1013.326923,0.036178,0.001000,0.001000,0.001000,0.001000,0.001000
1013.346154,0.035428,0.001000,0.001000,0.001000,0.001000,0.001000
1013.365385,0.034661,0.001000,0.001000,0.001000,0.001000,0.001000
1013.384615,0.033878,0.001000,0.001000,0.001000,0.001000,0.001000
1013.403846,0.033080,0.001000,0.001000,0.001000,0.001000,0.001000
1013.423077,0.032266,0.001000,0.001000,0.001000,0.001000,0.001000
1013.442308,0.031438,0.001000,0.001000,0.001000,0.001000,0.001000
1013.461538,0.030595,0.001000,0.001000,0.001000,0.001000,0.001000
1013.480769,0.029737,0.001000,0.001000,0.001000,0.001000,0.001000
1013.500000,0.028866,0.001000,0.001000,0.001000,0.001000,0.001000
1013.519231,0.027982,0.001000,0.001000,0.001000,0.001000,0.001000
1013.538462,0.027085,0.001000,0.001000,0.001000,0.001000,0.001000
1013.557692,0.026175,0.001000,0.001000,0.001000,0.001000,0.001000
1013.576923,0.025253,0.001000,0.001000,0.001000,0.001000,0.001000
1013.596154,0.024320,0.001000,0.001000,0.001000,0.001000,0.001000
1013.615385,0.023375,0.001000,0.001000,0.001000,0.001000,0.001000
1013.634615,0.022419,0.001000,0.001000,0.001000,0.001000,0.001000
1013.653846,0.021453,0.001000,0.001000,0.001000,0.001000,0.001000
1013.673077,0.020477,0.001000,0.001000,0.001000,0.001000,0.001000
1013.692308,0.019492,0.001000,0.001000,0.001000,0.001000,0.001000
1013.711538,0.018498,0.001000,0.001000,0.001000,0.001000,0.001000
1013.730769,0.017495,0.001000,0.001000,0.001000,0.001000,0.001000
1013.750000,0.016484,0.001000,0.001000,0.001000,0.001000,0.001000
1013.769231,0.015465,0.001000,0.001000,0.001000,0.001000,0.001000
1013.788462,0.014440,0.001000,0.001000,0.001000,0.001000,0.001000
1013.807692,0.013407,0.001000,0.001000,0.001000,0.001000,0.001000
1013.826923,0.012369,0.001000,0.001000,0.001000,0.001000,0.001000
1013.846154,0.011324,0.001000,0.001000,0.001000,0.001000,0.001000
1013.865385,0.010275,0.001000,0.001000,0.001000,0.001000,0.001000
1013.884615,0.009220,0.001000,0.001000,0.001000,0.001000,0.001000
1013.903846,0.008162,0.001000,0.001000,0.001000,0.001000,0.001000
1013.923077,0.007099,0.001000,0.001000,0.001000,0.001000,0.001000
1013.942308,0.006034,0.001000,0.001000,0.001000,0.001000,0.001000
1013.961538,0.004965,0.001000,0.001000,0.001000,0.001000,0.001000
1013.980769,0.003895,0.001000,0.001000,0.001000,0.001000,0.001000
1014.000000,0.002822,0.001000,0.001000,0.001000,0.001000,0.001000
1014.019231,0.001748,0.001000,0.001000,0.001000,0.001000,0.001000
1014.038462,0.000674,0.001000,0.001000,0.001000,0.001000,0.001000
1014.057692,-0.000401,0.001000,0.001000,0.001000,0.001000,0.001000
1014.076923,-0.001476,0.001000,0.001000,0.001000,0.001000,0.001000
1014.096154,-0.002550,0.001000,0.001000,0.001000,0.001000,0.001000
1014.115385,-0.003623,0.001000,0.001000,0.001000,0.001000,0.001000
1014.134615,-0.004694,0.001000,0.001000,0.001000,0.001000,0.001000
1014.153846,-0.005763,0.001000,0.001000,0.001000,0.001000,0.001000
1014.173077,-0.006830,0.001000,0.001000,0.001000,0.001000,0.001000
1014.192308,-0.007893,0.001000,0.001000,0.001000,0.001000,0.001000
1014.211538,-0.008952,0.001000,0.001000,0.001000,0.001000,0.001000
1014.230769,-0.010008,0.001000,0.001000,0.001000,0.001000,0.001000
1014.250000,-0.011059,0.001000,0.001000,0.001000,0.001000,0.001000
1014.269231,-0.012104,0.001000,0.001000,0.001000,0.001000,0.001000
1014.288462,-0.013145,0.001000,0.001000,0.001000,0.001000,0.001000
1014.307692,-0.014179,0.001000,0.001000,0.001000,0.001000,0.001000
1014.326923,-0.015206,0.001000,0.001000,0.001000,0.001000,0.001000
1014.346154,-0.016227,0.001000,0.001000,0.001000,0.001000,0.001000
1014.365385,-0.017239,0.001000,0.001000,0.001000,0.001000,0.001000
1014.384615,-0.018244,0.001000,0.001000,0.001000,0.001000,0.001000
1014.403846,-0.019241,0.001000,0.001000,0.001000,0.001000,0.001000
1014.423077,-0.020229,0.001000,0.001000,0.001000,0.001000,0.001000
1014.442308,-0.021207,0.001000,0.001000,0.001000,0.001000,0.001000
1014.461538,-0.022175,0.001000,0.001000,0.001000,0.001000,0.001000
1014.480769,-0.023134,0.001000,0.001000,0.001000,0.001000,0.001000
1014.500000,-0.024081,0.001000,0.001000,0.001000,0.001000,0.001000
1014.519231,-0.025018,0.001000,0.001000,0.001000,0.001000,0.001000
1014.538462,-0.025943,0.001000,0.001000,0.001000,0.001000,0.001000
1014.557692,-0.026856,0.001000,0.001000,0.001000,0.001000,0.001000
1014.576923,-0.027756,0.001000,0.001000,0.001000,0.001000,0.001000
1014.596154,-0.028644,0.001000,0.001000,0.001000,0.001000,0.001000
1014.615385,-0.029518,0.001000,0.001000,0.001000,0.001000,0.001000
1014.634615,-0.030379,0.001000,0.001000,0.001000,0.001000,0.001000
1014.653846,-0.031225,0.001000,0.001000,0.001000,0.001000,0.001000
1014.673077,-0.032058,0.001000,0.001000,0.001000,0.001000,0.001000
1014.692308,-0.032875,0.001000,0.001000,0.001000,0.001000,0.001000
1014.711538,-0.033678,0.001000,0.001000,0.001000,0.001000,0.001000
1014.730769,-0.034464,0.001000,0.001000,0.001000,0.001000,0.001000
1014.750000,-0.035235,0.001000,0.001000,0.001000,0.001000,0.001000
1014.769231,-0.035989,0.001000,0.001000,0.001000,0.001000,0.001000
1014.788462,-0.036727,0.001000,0.001000,0.001000,0.001000,0.001000
1014.807692,-0.037448,0.001000,0.001000,0.001000,0.001000,0.001000
1014.826923,-0.038152,0.001000,0.001000,0.001000,0.001000,0.001000
1014.846154,-0.038838,0.001000,0.001000,0.001000,0.001000,0.001000
1014.865385,-0.039506,0.001000,0.001000,0.001000,0.001000,0.001000
1014.884615,-0.040155,0.001000,0.001000,0.001000,0.001000,0.001000
1014.903846,-0.040787,0.001000,0.001000,0.001000,0.001000,0.001000
1014.923077,-0.041399,0.001000,0.001000,0.001000,0.001000,0.001000
1014.942308,-0.041992,0.001000,0.001000,0.001000,0.001000,0.001000
1014.961538,-0.042566,0.001000,0.001000,0.001000,0.001000,0.001000
1014.980769,-0.043120,0.001000,0.001000,0.001000,0.001000,0.001000
1015.000000,-0.043654,0.001000,0.001000,0.001000,0.001000,0.001000
1015.019231,-0.044168,0.001000,0.001000,0.001000,0.001000,0.001000
1015.038462,-0.044662,0.001000,0.001000,0.001000,0.001000,0.001000
1015.057692,-0.045135,0.001000,0.001000,0.001000,0.001000,0.001000
1015.076923,-0.045587,0.001000,0.001000,0.001000,0.001000,0.001000
1015.096154,-0.046018,0.001000,0.001000,0.001000,0.001000,0.001000
1015.115385,-0.046427,0.001000,0.001000,0.001000,0.001000,0.001000
1015.134615,-0.046816,0.001000,0.001000,0.001000,0.001000,0.001000
1015.153846,-0.047182,0.001000,0.001000,0.001000,0.001000,0.001000
1015.173077,-0.047527,0.001000,0.001000,0.001000,0.001000,0.001000
1015.192308,-0.047850,0.001000,0.001000,0.001000,0.001000,0.001000
1015.211538,-0.048151,0.001000,0.001000,0.001000,0.001000,0.001000
1015.230769,-0.048429,0.001000,0.001000,0.001000,0.001000,0.001000
1015.250000,-0.048685,0.001000,0.001000,0.001000,0.001000,0.001000
1015.269231,-0.048919,0.001000,0.001000,0.001000,0.001000,0.001000
1015.288462,-0.049130,0.001000,0.001000,0.001000,0.001000,0.001000
1015.307692,-0.049318,0.001000,0.001000,0.001000,0.001000,0.001000
1015.326923,-0.049484,0.001000,0.001000,0.001000,0.001000,0.001000
1015.346154,-0.049626,0.001000,0.001000,0.001000,0.001000,0.001000
1015.365385,-0.049746,0.001000,0.001000,0.001000,0.001000,0.001000
1015.384615,-0.049843,0.001000,0.001000,0.001000,0.001000,0.001000
1015.403846,-0.049916,0.001000,0.001000,0.001000,0.001000,0.001000
1015.423077,-0.049967,0.001000,0.001000,0.001000,0.001000,0.001000
1015.442308,-0.049995,0.001000,0.001000,0.001000,0.001000,0.001000
1015.461538,-0.049999,0.001000,0.001000,0.001000,0.001000,0.001000
1015.480769,-0.049980,0.001000,0.001000,0.001000,0.001000,0.001000
1015.500000,-0.049938,0.001000,0.001000,0.001000,0.001000,0.001000
1015.519231,-0.049873,0.001000,0.001000,0.001000,0.001000,0.001000
1015.538462,-0.049785,0.001000,0.001000,0.001000,0.001000,0.001000
1015.557692,-0.049674,0.001000,0.001000,0.001000,0.001000,0.001000
1015.576923,-0.049541,0.001000,0.001000,0.001000,0.001000,0.001000
1015.596154,-0.049384,0.001000,0.001000,0.001000,0.001000,0.001000
1015.615385,-0.049204,0.001000,0.001000,0.001000,0.001000,0.001000
1015.634615,-0.049002,0.001000,0.001000,0.001000,0.001000,0.001000
1015.653846,-0.048777,0.001000,0.001000,0.001000,0.001000,0.001000
1015.673077,-0.048529,0.001000,0.001000,0.001000,0.001000,0.001000
1015.692308,-0.048259,0.001000,0.001000,0.001000,0.001000,0.001000
1015.711538,-0.047967,0.001000,0.001000,0.001000,0.001000,0.001000
1015.730769,-0.047652,0.001000,0.001000,0.001000,0.001000,0.001000
1015.750000,-0.047316,0.001000,0.001000,0.001000,0.001000,0.001000
1015.769231,-0.046957,0.001000,0.001000,0.001000,0.001000,0.001000
1015.788462,-0.046577,0.001000,0.001000,0.001000,0.001000,0.001000
1015.807692,-0.046175,0.001000,0.001000,0.001000,0.001000,0.001000
1015.826923,-0.045752,0.001000,0.001000,0.001000,0.001000,0.001000
1015.846154,-0.045308,0.001000,0.001000,0.001000,0.001000,0.001000
1015.865385,-0.044843,0.001000,0.001000,0.001000,0.001000,0.001000
1015.884615,-0.044358,0.001000,0.001000,0.001000,0.001000,0.001000
1015.903846,-0.043851,0.001000,0.001000,0.001000,0.001000,0.001000
1015.923077,-0.043325,0.001000,0.001000,0.001000,0.001000,0.001000
1015.942308,-0.042778,0.001000,0.001000,0.001000,0.001000,0.001000
1015.961538,-0.042212,0.001000,0.001000,0.001000,0.001000,0.001000
1015.980769,-0.041626,0.001000,0.001000,0.001000,0.001000,0.001000
1016.000000,-0.041021,0.001000,0.001000,0.001000,0.001000,0.001000
1016.019231,-0.040397,0.001000,0.001000,0.001000,0.001000,0.001000
1016.038462,-0.039754,0.001000,0.001000,0.001000,0.001000,0.001000
1016.057692,-0.039093,0.001000,0.001000,0.001000,0.001000,0.001000
1016.076923,-0.038414,0.001000,0.001000,0.001000,0.001000,0.001000
1016.096154,-0.037717,0.001000,0.001000,0.001000,0.001000,0.001000
1016.115385,-0.037002,0.001000,0.001000,0.001000,0.001000,0.001000
1016.134615,-0.036271,0.001000,0.001000,0.001000,0.001000,0.001000
1016.153846,-0.035523,0.001000,0.001000,0.001000,0.001000,0.001000
1016.173077,-0.034758,0.001000,0.001000,0.001000,0.001000,0.001000
1016.192308,-0.033977,0.001000,0.001000,0.001000,0.001000,0.001000
1016.211538,-0.033181,0.001000,0.001000,0.001000,0.001000,0.001000
1016.230769,-0.032369,0.001000,0.001000,0.001000,0.001000,0.001000
1016.250000,-0.031542,0.001000,0.001000,0.001000,0.001000,0.001000
1016.269231,-0.030701,0.001000,0.001000,0.001000,0.001000,0.001000
1016.288462,-0.029846,0.001000,0.001000,0.001000,0.001000,0.001000
1016.307692,-0.028976,0.001000,0.001000,0.001000,0.001000,0.001000
1016.326923,-0.028094,0.001000,0.001000,0.001000,0.001000,0.001000
1016.346154,-0.027198,0.001000,0.001000,0.001000,0.001000,0.001000
1016.365385,-0.026290,0.001000,0.001000,0.001000,0.001000,0.001000
1016.384615,-0.025369,0.001000,0.001000,0.001000,0.001000,0.001000
1016.403846,-0.024437,0.001000,0.001000,0.001000,0.001000,0.001000
1016.423077,-0.023494,0.001000,0.001000,0.001000,0.001000,0.001000
1016.442308,-0.022540,0.001000,0.001000,0.001000,0.001000,0.001000
1016.461538,-0.021575,0.001000,0.001000,0.001000,0.001000,0.001000
1016.480769,-0.020600,0.001000,0.001000,0.001000,0.001000,0.001000
1016.500000,-0.019616,0.001000,0.001000,0.001000,0.001000,0.001000
1016.519231,-0.018623,0.001000,0.001000,0.001000,0.001000,0.001000
1016.538462,-0.017621,0.001000,0.001000,0.001000,0.001000,0.001000
1016.557692,-0.016611,0.001000,0.001000,0.001000,0.001000,0.001000
1016.576923,-0.015593,0.001000,0.001000,0.001000,0.001000,0.001000
1016.596154,-0.014569,0.001000,0.001000,0.001000,0.001000,0.001000
1016.615385,-0.013537,0.001000,0.001000,0.001000,0.001000,0.001000
1016.634615,-0.012499,0.001000,0.001000,0.001000,0.001000,0.001000
1016.653846,-0.011455,0.001000,0.001000,0.001000,0.001000,0.001000
1016.673077,-0.010406,0.001000,0.001000,0.001000,0.001000,0.001000
1016.692308,-0.009353,0.001000,0.001000,0.001000,0.001000,0.001000
1016.711538,-0.008295,0.001000,0.001000,0.001000,0.001000,0.001000
1016.730769,-0.007233,0.001000,0.001000,0.001000,0.001000,0.001000
1016.750000,-0.006168,0.001000,0.001000,0.001000,0.001000,0.001000
1016.769231,-0.005099,0.001000,0.001000,0.001000,0.001000,0.001000
1016.788462,-0.004029,0.001000,0.001000,0.001000,0.001000,0.001000
1016.807692,-0.002957,0.001000,0.001000,0.001000,0.001000,0.001000
1016.826923,-0.001883,0.001000,0.001000,0.001000,0.001000,0.001000
1016.846154,-0.000808,0.001000,0.001000,0.001000,0.001000,0.001000
1016.865385,0.000267,0.001000,0.001000,0.001000,0.001000,0.001000
1016.884615,0.001341,0.001000,0.001000,0.001000,0.001000,0.001000
1016.903846,0.002416,0.001000,0.001000,0.001000,0.001000,0.001000
1016.923077,0.003489,0.001000,0.001000,0.001000,0.001000,0.001000
1016.942308,0.004560,0.001000,0.001000,0.001000,0.001000,0.001000
1016.961538,0.005629,0.001000,0.001000,0.001000,0.001000,0.001000
1016.980769,0.006696,0.001000,0.001000,0.001000,0.001000,0.001000
1017.000000,0.007760,0.001000,0.001000,0.001000,0.001000,0.001000
1017.019231,0.008820,0.001000,0.001000,0.001000,0.001000,0.001000
1017.038462,0.009876,0.001000,0.001000,0.001000,0.001000,0.001000
1017.057692,0.010927,0.001000,0.001000,0.001000,0.001000,0.001000
1017.076923,0.011974,0.001000,0.001000,0.001000,0.001000,0.001000
1017.096154,0.013014,0.001000,0.001000,0.001000,0.001000,0.001000
1017.115385,0.014049,0.001000,0.001000,0.001000,0.001000,0.001000
1017.134615,0.015078,0.001000,0.001000,0.001000,0.001000,0.001000
1017.153846,0.016099,0.001000,0.001000,0.001000,0.001000,0.001000
1017.173077,0.017113,0.001000,0.001000,0.001000,0.001000,0.001000
1017.192308,0.018119,0.001000,0.001000,0.001000,0.001000,0.001000
1017.211538,0.019117,0.001000,0.001000,0.001000,0.001000,0.001000
1017.230769,0.020105,0.001000,0.001000,0.001000,0.001000,0.001000
1017.250000,0.021085,0.001000,0.001000,0.001000,0.001000,0.001000
1017.269231,0.022055,0.001000,0.001000,0.001000,0.001000,0.001000
1017.288462,0.023014,0.001000,0.001000,0.001000,0.001000,0.001000
1017.307692,0.023963,0.001000,0.001000,0.001000,0.001000,0.001000
1017.326923,0.024901,0.001000,0.001000,0.001000,0.001000,0.001000
1017.346154,0.025827,0.001000,0.001000,0.001000,0.001000,0.001000
1017.365385,0.026742,0.001000,0.001000,0.001000,0.001000,0.001000
1017.384615,0.027644,0.001000,0.001000,0.001000,0.001000,0.001000
1017.403846,0.028533,0.001000,0.001000,0.001000,0.001000,0.001000
1017.423077,0.029409,0.001000,0.001000,0.001000,0.001000,0.001000
1017.442308,0.030272,0.001000,0.001000,0.001000,0.001000,0.001000
1017.461538,0.031120,0.001000,0.001000,0.001000,0.001000,0.001000
1017.480769,0.031954,0.001000,0.001000,0.001000,0.001000,0.001000
1017.500000,0.032774,0.001000,0.001000,0.001000,0.001000,0.001000
1017.519231,0.033578,0.001000,0.001000,0.001000,0.001000,0.001000
1017.538462,0.034366,0.001000,0.001000,0.001000,0.001000,0.001000
1017.557692,0.035139,0.001000,0.001000,0.001000,0.001000,0.001000
1017.576923,0.035896,0.001000,0.001000,0.001000,0.001000,0.001000
1017.596154,0.036636,0.001000,0.001000,0.001000,0.001000,0.001000
1017.615385,0.037359,0.001000,0.001000,0.001000,0.001000,0.001000
1017.634615,0.038065,0.001000,0.001000,0.001000,0.001000,0.001000
1017.653846,0.038753,0.001000,0.001000,0.001000,0.001000,0.001000
1017.673077,0.039423,0.001000,0.001000,0.001000,0.001000,0.001000
1017.692308,0.040075,0.001000,0.001000,0.001000,0.001000,0.001000
1017.711538,0.040709,0.001000,0.001000,0.001000,0.001000,0.001000
1017.730769,0.041323,0.001000,0.001000,0.001000,0.001000,0.001000
1017.750000,0.041919,0.001000,0.001000,0.001000,0.001000,0.001000
1017.769231,0.042495,0.001000,0.001000,0.001000,0.001000,0.001000
1017.788462,0.043052,0.001000,0.001000,0.001000,0.001000,0.001000
1017.807692,0.043588,0.001000,0.001000,0.001000,0.001000,0.001000
1017.826923,0.044105,0.001000,0.001000,0.001000,0.001000,0.001000
1017.846154,0.044601,0.001000,0.001000,0.001000,0.001000,0.001000
1017.865385,0.045077,0.001000,0.001000,0.001000,0.001000,0.001000
1017.884615,0.045531,0.001000,0.001000,0.001000,0.001000,0.001000
1017.903846,0.045965,0.001000,0.001000,0.001000,0.001000,0.001000
1017.923077,0.046377,0.001000,0.001000,0.001000,0.001000,0.001000
1017.942308,0.046768,0.001000,0.001000,0.001000,0.001000,0.001000
1017.961538,0.047138,0.001000,0.001000,0.001000,0.001000,0.001000
1017.980769,0.047485,0.001000,0.001000,0.001000,0.001000,0.001000
1018.000000,0.047811,0.001000,0.001000,0.001000,0.001000,0.001000
1018.019231,0.048114,0.001000,0.001000,0.001000,0.001000,0.001000
1018.038462,0.048396,0.001000,0.001000,0.001000,0.001000,0.001000
1018.057692,0.048655,0.001000,0.001000,0.001000,0.001000,0.001000
1018.076923,0.048891,0.001000,0.001000,0.001000,0.001000,0.001000
1018.096154,0.049105,0.001000,0.001000,0.001000,0.001000,0.001000
1018.115385,0.049296,0.001000,0.001000,0.001000,0.001000,0.001000
1018.134615,0.049464,0.001000,0.001000,0.001000,0.001000,0.001000
1018.153846,0.049610,0.001000,0.001000,0.001000,0.001000,0.001000
1018.173077,0.049732,0.001000,0.001000,0.001000,0.001000,0.001000
1018.192308,0.049832,0.001000,0.001000,0.001000,0.001000,0.001000
1018.211538,0.049908,0.001000,0.001000,0.001000,0.001000,0.001000
1018.230769,0.049962,0.001000,0.001000,0.001000,0.001000,0.001000
1018.250000,0.049992,0.001000,0.001000,0.001000,0.001000,0.001000
1018.269231,0.050000,0.001000,0.001000,0.001000,0.001000,0.001000
1018.288462,0.049984,0.001000,0.001000,0.001000,0.001000,0.001000
1018.307692,0.049945,0.001000,0.001000,0.001000,0.001000,0.001000
1018.326923,0.049883,0.001000,0.001000,0.001000,0.001000,0.001000
1018.346154,0.049798,0.001000,0.001000,0.001000,0.001000,0.001000
1018.365385,0.049690,0.001000,0.001000,0.001000,0.001000,0.001000
1018.384615,0.049559,0.001000,0.001000,0.001000,0.001000,0.001000
1018.403846,0.049405,0.001000,0.001000,0.001000,0.001000,0.001000
1018.423077,0.049228,0.001000,0.001000,0.001000,0.001000,0.001000
1018.442308,0.049028,0.001000,0.001000,0.001000,0.001000,0.001000
1018.461538,0.048806,0.001000,0.001000,0.001000,0.001000,0.001000
1018.480769,0.048561,0.001000,0.001000,0.001000,0.001000,0.001000
1018.500000,0.048294,0.001000,0.001000,0.001000,0.001000,0.001000
1018.519231,0.048004,0.001000,0.001000,0.001000,0.001000,0.001000
1018.538462,0.047693,0.001000,0.001000,0.001000,0.001000,0.001000
1018.557692,0.047359,0.001000,0.001000,0.001000,0.001000,0.001000
1018.576923,0.047003,0.001000,0.001000,0.001000,0.001000,0.001000
1018.596154,0.046626,0.001000,0.001000,0.001000,0.001000,0.001000
1018.615385,0.046227,0.001000,0.001000,0.001000,0.001000,0.001000
1018.634615,0.045807,0.001000,0.001000,0.001000,0.001000,0.001000
1018.653846,0.045365,0.001000,0.001000,0.001000,0.001000,0.001000
1018.673077,0.044903,0.001000,0.001000,0.001000,0.001000,0.001000
1018.692308,0.044420,0.001000,0.001000,0.001000,0.001000,0.001000
1018.711538,0.043916,0.001000,0.001000,0.001000,0.001000,0.001000
1018.730769,0.043392,0.001000,0.001000,0.001000,0.001000,0.001000
1018.750000,0.042848,0.001000,0.001000,0.001000,0.001000,0.001000
1018.769231,0.042284,0.001000,0.001000,0.001000,0.001000,0.001000
1018.788462,0.041700,0.001000,0.001000,0.001000,0.001000,0.001000
1018.807692,0.041098,0.001000,0.001000,0.001000,0.001000,0.001000
1018.826923,0.040476,0.001000,0.001000,0.001000,0.001000,0.001000
1018.846154,0.039836,0.001000,0.001000,0.001000,0.001000,0.001000
1018.865385,0.039177,0.001000,0.001000,0.001000,0.001000,0.001000
1018.884615,0.038500,0.001000,0.001000,0.001000,0.001000,0.001000
1018.903846,0.037805,0.001000,0.001000,0.001000,0.001000,0.001000
1018.923077,0.037093,0.001000,0.001000,0.001000,0.001000,0.001000
1018.942308,0.036364,0.001000,0.001000,0.001000,0.001000,0.001000
1018.961538,0.035617,0.001000,0.001000,0.001000,0.001000,0.001000
1018.980769,0.034855,0.001000,0.001000,0.001000,0.001000,0.001000
1019.000000,0.034076,0.001000,0.001000,0.001000,0.001000,0.001000
1019.019231,0.033282,0.001000,0.001000,0.001000,0.001000,0.001000
1019.038462,0.032472,0.001000,0.001000,0.001000,0.001000,0.001000
1019.057692,0.031647,0.001000,0.001000,0.001000,0.001000,0.001000
1019.076923,0.030807,0.001000,0.001000,0.001000,0.001000,0.001000
1019.096154,0.029954,0.001000,0.001000,0.001000,0.001000,0.001000
1019.115385,0.029086,0.001000,0.001000,0.001000,0.001000,0.001000
1019.134615,0.028205,0.001000,0.001000,0.001000,0.001000,0.001000
1019.153846,0.027311,0.001000,0.001000,0.001000,0.001000,0.001000
1019.173077,0.026404,0.001000,0.001000,0.001000,0.001000,0.001000
1019.192308,0.025485,0.001000,0.001000,0.001000,0.001000,0.001000
1019.211538,0.024555,0.001000,0.001000,0.001000,0.001000,0.001000
1019.230769,0.023613,0.001000,0.001000,0.001000,0.001000,0.001000
1019.250000,0.022660,0.001000,0.001000,0.001000,0.001000,0.001000
1019.269231,0.021696,0.001000,0.001000,0.001000,0.001000,0.001000
1019.288462,0.020723,0.001000,0.001000,0.001000,0.001000,0.001000
1019.307692,0.019740,0.001000,0.001000,0.001000,0.001000,0.001000
1019.326923,0.018748,0.001000,0.001000,0.001000,0.001000,0.001000
1019.346154,0.017747,0.001000,0.001000,0.001000,0.001000,0.001000
1019.365385,0.016738,0.001000,0.001000,0.001000,0.001000,0.001000
1019.384615,0.015721,0.001000,0.001000,0.001000,0.001000,0.001000
1019.403846,0.014697,0.001000,0.001000,0.001000,0.001000,0.001000
1019.423077,0.013667,0.001000,0.001000,0.001000,0.001000,0.001000
1019.442308,0.012629,0.001000,0.001000,0.001000,0.001000,0.001000
1019.461538,0.011587,0.001000,0.001000,0.001000,0.001000,0.001000
1019.480769,0.010538,0.001000,0.001000,0.001000,0.001000,0.001000
1019.500000,0.009485,0.001000,0.001000,0.001000,0.001000,0.001000
1019.519231,0.008428,0.001000,0.001000,0.001000,0.001000,0.001000
1019.538462,0.007366,0.001000,0.001000,0.001000,0.001000,0.001000
1019.557692,0.006301,0.001000,0.001000,0.001000,0.001000,0.001000
1019.576923,0.005233,0.001000,0.001000,0.001000,0.001000,0.001000
1019.596154,0.004163,0.001000,0.001000,0.001000,0.001000,0.001000
1019.615385,0.003091,0.001000,0.001000,0.001000,0.001000,0.001000
1019.634615,0.002018,0.001000,0.001000,0.001000,0.001000,0.001000
1019.653846,0.000943,0.001000,0.001000,0.001000,0.001000,0.001000
1019.673077,-0.000132,0.001000,0.001000,0.001000,0.001000,0.001000
1019.692308,-0.001207,0.001000,0.001000,0.001000,0.001000,0.001000
1019.711538,-0.002281,0.001000,0.001000,0.001000,0.001000,0.001000
1019.730769,-0.003354,0.001000,0.001000,0.001000,0.001000,0.001000
1019.750000,-0.004426,0.001000,0.001000,0.001000,0.001000,0.001000
1019.769231,-0.005495,0.001000,0.001000,0.001000,0.001000,0.001000
1019.788462,-0.006563,0.001000,0.001000,0.001000,0.001000,0.001000
1019.807692,-0.007627,0.001000,0.001000,0.001000,0.001000,0.001000
1019.826923,-0.008687,0.001000,0.001000,0.001000,0.001000,0.001000
1019.846154,-0.009744,0.001000,0.001000,0.001000,0.001000,0.001000
1019.865385,-0.010796,0.001000,0.001000,0.001000,0.001000,0.001000
1019.884615,-0.011843,0.001000,0.001000,0.001000,0.001000,0.001000
1019.903846,-0.012884,0.001000,0.001000,0.001000,0.001000,0.001000
1019.923077,-0.013920,0.001000,0.001000,0.001000,0.001000,0.001000
1019.942308,-0.014949,0.001000,0.001000,0.001000,0.001000,0.001000
1019.961538,-0.015971,0.001000,0.001000,0.001000,0.001000,0.001000
1019.980769,-0.016986,0.001000,0.001000,0.001000,0.001000,0.001000
1020.000000,-0.017993,0.001000,0.001000,0.001000,0.001000,0.001000
1020.019231,-0.018992,0.001000,0.001000,0.001000,0.001000,0.001000
1020.038462,-0.019982,0.001000,0.001000,0.001000,0.001000,0.001000
1020.057692,-0.020963,0.001000,0.001000,0.001000,0.001000,0.001000
1020.076923,-0.021934,0.001000,0.001000,0.001000,0.001000,0.001000
1020.096154,-0.022895,0.001000,0.001000,0.001000,0.001000,0.001000
1020.115385,-0.023845,0.001000,0.001000,0.001000,0.001000,0.001000
1020.134615,-0.024784,0.001000,0.001000,0.001000,0.001000,0.001000
1020.153846,-0.025712,0.001000,0.001000,0.001000,0.001000,0.001000
1020.173077,-0.026628,0.001000,0.001000,0.001000,0.001000,0.001000
1020.192308,-0.027531,0.001000,0.001000,0.001000,0.001000,0.001000
1020.211538,-0.028422,0.001000,0.001000,0.001000,0.001000,0.001000
1020.230769,-0.029300,0.001000,0.001000,0.001000,0.001000,0.001000
1020.250000,-0.030164,0.001000,0.001000,0.001000,0.001000,0.001000
1020.269231,-0.031015,0.001000,0.001000,0.001000,0.001000,0.001000
1020.288462,-0.031851,0.001000,0.001000,0.001000,0.001000,0.001000
1020.307692,-0.032672,0.001000,0.001000,0.001000,0.001000,0.001000
1020.326923,-0.033478,0.001000,0.001000,0.001000,0.001000,0.001000
1020.346154,-0.034268,0.001000,0.001000,0.001000,0.001000,0.001000
1020.365385,-0.035043,0.001000,0.001000,0.001000,0.001000,0.001000
1020.384615,-0.035802,0.001000,0.001000,0.001000,0.001000,0.001000
1020.403846,-0.036544,0.001000,0.001000,0.001000,0.001000,0.001000
1020.423077,-0.037269,0.001000,0.001000,0.001000,0.001000,0.001000
1020.442308,-0.037977,0.001000,0.001000,0.001000,0.001000,0.001000
1020.461538,-0.038667,0.001000,0.001000,0.001000,0.001000,0.001000
1020.480769,-0.039340,0.001000,0.001000,0.001000,0.001000,0.001000
1020.500000,-0.039994,0.001000,0.001000,0.001000,0.001000,0.001000
1020.519231,-0.040630,0.001000,0.001000,0.001000,0.001000,0.001000
1020.538462,-0.041247,0.001000,0.001000,0.001000,0.001000,0.001000
1020.557692,-0.041845,0.001000,0.001000,0.001000,0.001000,0.001000
1020.576923,-0.042424,0.001000,0.001000,0.001000,0.001000,0.001000
1020.596154,-0.042983,0.001000,0.001000,0.001000,0.001000,0.001000
1020.615385,-0.043522,0.001000,0.001000,0.001000,0.001000,0.001000
1020.634615,-0.044041,0.001000,0.001000,0.001000,0.001000,0.001000
1020.653846,-0.044540,0.001000,0.001000,0.001000,0.001000,0.001000
1020.673077,-0.045018,0.001000,0.001000,0.001000,0.001000,0.001000
1020.692308,-0.045475,0.001000,0.001000,0.001000,0.001000,0.001000
1020.711538,-0.045912,0.001000,0.001000,0.001000,0.001000,0.001000
1020.730769,-0.046327,0.001000,0.001000,0.001000,0.001000,0.001000
1020.750000,-0.046720,0.001000,0.001000,0.001000,0.001000,0.001000
1020.769231,-0.047093,0.001000,0.001000,0.001000,0.001000,0.001000
1020.788462,-0.047443,0.001000,0.001000,0.001000,0.001000,0.001000
1020.807692,-0.047771,0.001000,0.001000,0.001000,0.001000,0.001000
1020.826923,-0.048078,0.001000,0.001000,0.001000,0.001000,0.001000
1020.846154,-0.048362,0.001000,0.001000,0.001000,0.001000,0.001000
1020.865385,-0.048623,0.001000,0.001000,0.001000,0.001000,0.001000
1020.884615,-0.048863,0.001000,0.001000,0.001000,0.001000,0.001000
1020.903846,-0.049079,0.001000,0.001000,0.001000,0.001000,0.001000
1020.923077,-0.049273,0.001000,0.001000,0.001000,0.001000,0.001000
1020.942308,-0.049444,0.001000,0.001000,0.001000,0.001000,0.001000
1020.961538,-0.049593,0.001000,0.001000,0.001000,0.001000,0.001000
1020.980769,-0.049718,0.001000,0.001000,0.001000,0.001000,0.001000
1021.000000,-0.049821,0.001000,0.001000,0.001000,0.001000,0.001000
1021.019231,-0.049900,0.001000,0.001000,0.001000,0.001000,0.001000
1021.038462,-0.049957,0.001000,0.001000,0.001000,0.001000,0.001000
1021.057692,-0.049990,0.001000,0.001000,0.001000,0.001000,0.001000
1021.076923,-0.050000,0.001000,0.001000,0.001000,0.001000,0.001000
1021.096154,-0.049987,0.001000,0.001000,0.001000,0.001000,0.001000
1021.115385,-0.049951,0.001000,0.001000,0.001000,0.001000,0.001000
1021.134615,-0.049892,0.001000,0.001000,0.001000,0.001000,0.001000
1021.153846,-0.049810,0.001000,0.001000,0.001000,0.001000,0.001000
1021.173077,-0.049704,0.001000,0.001000,0.001000,0.001000,0.001000
1021.192308,-0.049576,0.001000,0.001000,0.001000,0.001000,0.001000
1021.211538,-0.049425,0.001000,0.001000,0.001000,0.001000,0.001000
1021.230769,-0.049251,0.001000,0.001000,0.001000,0.001000,0.001000
1021.250000,-0.049054,0.001000,0.001000,0.001000,0.001000,0.001000
1021.269231,-0.048835,0.001000,0.001000,0.001000,0.001000,0.001000
1021.288462,-0.048593,0.001000,0.001000,0.001000,0.001000,0.001000
1021.307692,-0.048329,0.001000,0.001000,0.001000,0.001000,0.001000
1021.326923,-0.048042,0.001000,0.001000,0.001000,0.001000,0.001000
1021.346154,-0.047733,0.001000,0.001000,0.001000,0.001000,0.001000
1021.365385,-0.047402,0.001000,0.001000,0.001000,0.001000,0.001000
1021.384615,-0.047049,0.001000,0.001000,0.001000,0.001000,0.001000
1021.403846,-0.046674,0.001000,0.001000,0.001000,0.001000,0.001000
1021.423077,-0.046278,0.001000,0.001000,0.001000,0.001000,0.001000
1021.442308,-0.045861,0.001000,0.001000,0.001000,0.001000,0.001000
1021.461538,-0.045422,0.001000,0.001000,0.001000,0.001000,0.001000
1021.480769,-0.044962,0.001000,0.001000,0.001000,0.001000,0.001000
1021.500000,-0.044481,0.001000,0.001000,0.001000,0.001000,0.001000
1021.519231,-0.043980,0.001000,0.001000,0.001000,0.001000,0.001000
1021.538462,-0.043459,0.001000,0.001000,0.001000,0.001000,0.001000
1021.557692,-0.042917,0.001000,0.001000,0.001000,0.001000,0.001000
1021.576923,-0.042356,0.001000,0.001000,0.001000,0.001000,0.001000
1021.596154,-0.041775,0.001000,0.001000,0.001000,0.001000,0.001000
1021.615385,-0.041174,0.001000,0.001000,0.001000,0.001000,0.001000
1021.634615,-0.040555,0.001000,0.001000,0.001000,0.001000,0.001000
1021.653846,-0.039917,0.001000,0.001000,0.001000,0.001000,0.001000
1021.673077,-0.039260,0.001000,0.001000,0.001000,0.001000,0.001000
1021.692308,-0.038586,0.001000,0.001000,0.001000,0.001000,0.001000
1021.711538,-0.037893,0.001000,0.001000,0.001000,0.001000,0.001000
1021.730769,-0.037183,0.001000,0.001000,0.001000,0.001000,0.001000
1021.750000,-0.036456,0.001000,0.001000,0.001000,0.001000,0.001000
1021.769231,-0.035712,0.001000,0.001000,0.001000,0.001000,0.001000
1021.788462,-0.034951,0.001000,0.001000,0.001000,0.001000,0.001000
1021.807692,-0.034175,0.001000,0.001000,0.001000,0.001000,0.001000
1021.826923,-0.033382,0.001000,0.001000,0.001000,0.001000,0.001000
1021.846154,-0.032574,0.001000,0.001000,0.001000,0.001000,0.001000
1021.865385,-0.031751,0.001000,0.001000,0.001000,0.001000,0.001000
1021.884615,-0.030913,0.001000,0.001000,0.001000,0.001000,0.001000
1021.903846,-0.030061,0.001000,0.001000,0.001000,0.001000,0.001000
1021.923077,-0.029196,0.001000,0.001000,0.001000,0.001000,0.001000
1021.942308,-0.028316,0.001000,0.001000,0.001000,0.001000,0.001000
1021.961538,-0.027424,0.001000,0.001000,0.001000,0.001000,0.001000
1021.980769,-0.026519,0.001000,0.001000,0.001000,0.001000,0.001000
1022.000000,-0.025601,0.001000,0.001000,0.001000,0.001000,0.001000
1022.019231,-0.024672,0.001000,0.001000,0.001000,0.001000,0.001000
1022.038462,-0.023731,0.001000,0.001000,0.001000,0.001000,0.001000
1022.057692,-0.022780,0.001000,0.001000,0.001000,0.001000,0.001000
1022.076923,-0.021818,0.001000,0.001000,0.001000,0.001000,0.001000
1022.096154,-0.020846,0.001000,0.001000,0.001000,0.001000,0.001000
1022.115385,-0.019864,0.001000,0.001000,0.001000,0.001000,0.001000
1022.134615,-0.018873,0.001000,0.001000,0.001000,0.001000,0.001000
1022.153846,-0.017873,0.001000,0.001000,0.001000,0.001000,0.001000
1022.173077,-0.016865,0.001000,0.001000,0.001000,0.001000,0.001000
1022.192308,-0.015849,0.001000,0.001000,0.001000,0.001000,0.001000
1022.211538,-0.014826,0.001000,0.001000,0.001000,0.001000,0.001000
1022.230769,-0.013796,0.001000,0.001000,0.001000,0.001000,0.001000
1022.250000,-0.012760,0.001000,0.001000,0.001000,0.001000,0.001000
1022.269231,-0.011718,0.001000,0.001000,0.001000,0.001000,0.001000
1022.288462,-0.010670,0.001000,0.001000,0.001000,0.001000,0.001000
1022.307692,-0.009617,0.001000,0.001000,0.001000,0.001000,0.001000
1022.326923,-0.008560,0.001000,0.001000,0.001000,0.001000,0.001000
1022.346154,-0.007499,0.001000,0.001000,0.001000,0.001000,0.001000
1022.365385,-0.006435,0.001000,0.001000,0.001000,0.001000,0.001000
1022.384615,-0.005367,0.001000,0.001000,0.001000,0.001000,0.001000
1022.403846,-0.004297,0.001000,0.001000,0.001000,0.001000,0.001000
1022.423077,-0.003226,0.001000,0.001000,0.001000,0.001000,0.001000
1022.442308,-0.002152,0.001000,0.001000,0.001000,0.001000,0.001000
1022.461538,-0.001078,0.001000,0.001000,0.001000,0.001000,0.001000
1022.480769,-0.000003,0.001000,0.001000,0.001000,0.001000,0.001000
1022.500000,0.001072,0.001000,0.001000,0.001000,0.001000,0.001000
1022.519231,0.002146,0.001000,0.001000,0.001000,0.001000,0.001000
1022.538462,0.003220,0.001000,0.001000,0.001000,0.001000,0.001000
1022.557692,0.004292,0.001000,0.001000,0.001000,0.001000,0.001000
1022.576923,0.005362,0.001000,0.001000,0.001000,0.001000,0.001000
1022.596154,0.006429,0.001000,0.001000,0.001000,0.001000,0.001000
1022.615385,0.007493,0.001000,0.001000,0.001000,0.001000,0.001000
1022.634615,0.008554,0.001000,0.001000,0.001000,0.001000,0.001000
1022.653846,0.009612,0.001000,0.001000,0.001000,0.001000,0.001000
1022.673077,0.010664,0.001000,0.001000,0.001000,0.001000,0.001000
1022.692308,0.011712,0.001000,0.001000,0.001000,0.001000,0.001000
1022.711538,0.012754,0.001000,0.001000,0.001000,0.001000,0.001000
1022.730769,0.013790,0.001000,0.001000,0.001000,0.001000,0.001000
1022.750000,0.014820,0.001000,0.001000,0.001000,0.001000,0.001000
1022.769231,0.015844,0.001000,0.001000,0.001000,0.001000,0.001000
1022.788462,0.016859,0.001000,0.001000,0.001000,0.001000,0.001000
1022.807692,0.017868,0.001000,0.001000,0.001000,0.001000,0.001000
1022.826923,0.018867,0.001000,0.001000,0.001000,0.001000,0.001000
1022.846154,0.019858,0.001000,0.001000,0.001000,0.001000,0.001000
1022.865385,0.020840,0.001000,0.001000,0.001000,0.001000,0.001000
1022.884615,0.021812,0.001000,0.001000,0.001000,0.001000,0.001000
1022.903846,0.022775,0.001000,0.001000,0.001000,0.001000,0.001000
1022.923077,0.023726,0.001000,0.001000,0.001000,0.001000,0.001000
1022.942308,0.024667,0.001000,0.001000,0.001000,0.001000,0.001000
1022.961538,0.025596,0.001000,0.001000,0.001000,0.001000,0.001000
1022.980769,0.026514,0.001000,0.001000,0.001000,0.001000,0.001000
1023.000000,0.027419,0.001000,0.001000,0.001000,0.001000,0.001000
1023.019231,0.028311,0.001000,0.001000,0.001000,0.001000,0.001000
1023.038462,0.029191,0.001000,0.001000,0.001000,0.001000,0.001000
1023.057692,0.030057,0.001000,0.001000,0.001000,0.001000,0.001000
1023.076923,0.030909,0.001000,0.001000,0.001000,0.001000,0.001000
1023.096154,0.031747,0.001000,0.001000,0.001000,0.001000,0.001000
1023.115385,0.032570,0.001000,0.001000,0.001000,0.001000,0.001000
1023.134615,0.033378,0.001000,0.001000,0.001000,0.001000,0.001000
1023.153846,0.034170,0.001000,0.001000,0.001000,0.001000,0.001000
1023.173077,0.034947,0.001000,0.001000,0.001000,0.001000,0.001000
1023.192308,0.035708,0.001000,0.001000,0.001000,0.001000,0.001000
1023.211538,0.036452,0.001000,0.001000,0.001000,0.001000,0.001000
1023.230769,0.037179,0.001000,0.001000,0.001000,0.001000,0.001000
1023.250000,0.037889,0.001000,0.001000,0.001000,0.001000,0.001000
1023.269231,0.038582,0.001000,0.001000,0.001000,0.001000,0.001000
1023.288462,0.039257,0.001000,0.001000,0.001000,0.001000,0.001000
1023.307692,0.039913,0.001000,0.001000,0.001000,0.001000,0.001000
1023.326923,0.040551,0.001000,0.001000,0.001000,0.001000,0.001000
1023.346154,0.041171,0.001000,0.001000,0.001000,0.001000,0.001000
1023.365385,0.041771,0.001000,0.001000,0.001000,0.001000,0.001000
1023.384615,0.042352,0.001000,0.001000,0.001000,0.001000,0.001000
1023.403846,0.042914,0.001000,0.001000,0.001000,0.001000,0.001000
1023.423077,0.043456,0.001000,0.001000,0.001000,0.001000,0.001000
1023.442308,0.043977,0.001000,0.001000,0.001000,0.001000,0.001000
1023.461538,0.044479,0.001000,0.001000,0.001000,0.001000,0.001000
1023.480769,0.044959,0.001000,0.001000,0.001000,0.001000,0.001000
1023.500000,0.045419,0.001000,0.001000,0.001000,0.001000,0.001000
1023.519231,0.045858,0.001000,0.001000,0.001000,0.001000,0.001000
1023.538462,0.046276,0.001000,0.001000,0.001000,0.001000,0.001000
1023.557692,0.046672,0.001000,0.001000,0.001000,0.001000,0.001000
1023.576923,0.047047,0.001000,0.001000,0.001000,0.001000,0.001000
1023.596154,0.047400,0.001000,0.001000,0.001000,0.001000,0.001000
1023.615385,0.047731,0.001000,0.001000,0.001000,0.001000,0.001000
1023.634615,0.048040,0.001000,0.001000,0.001000,0.001000,0.001000
1023.653846,0.048327,0.001000,0.001000,0.001000,0.001000,0.001000
1023.673077,0.048592,0.001000,0.001000,0.001000,0.001000,0.001000
1023.692308,0.048834,0.001000,0.001000,0.001000,0.001000,0.001000
1023.711538,0.049053,0.001000,0.001000,0.001000,0.001000,0.001000
1023.730769,0.049250,0.001000,0.001000,0.001000,0.001000,0.001000
1023.750000,0.049424,0.001000,0.001000,0.001000,0.001000,0.001000
1023.769231,0.049575,0.001000,0.001000,0.001000,0.001000,0.001000
1023.788462,0.049704,0.001000,0.001000,0.001000,0.001000,0.001000
1023.807692,0.049809,0.001000,0.001000,0.001000,0.001000,0.001000
1023.826923,0.049891,0.001000,0.001000,0.001000,0.001000,0.001000
1023.846154,0.049951,0.001000,0.001000,0.001000,0.001000,0.001000
1023.865385,0.049987,0.001000,0.001000,0.001000,0.001000,0.001000
1023.884615,0.050000,0.001000,0.001000,0.001000,0.001000,0.001000
1023.903846,0.049990,0.001000,0.001000,0.001000,0.001000,0.001000
1023.923077,0.049957,0.001000,0.001000,0.001000,0.001000,0.001000
1023.942308,0.049901,0.001000,0.001000,0.001000,0.001000,0.001000
1023.961538,0.049821,0.001000,0.001000,0.001000,0.001000,0.001000
1023.980769,0.049719,0.001000,0.001000,0.001000,0.001000,0.001000
1024.000000,0.049594,0.001000,0.001000,0.001000,0.001000,0.001000
1024.019231,0.049445,0.001000,0.001000,0.001000,0.001000,0.001000
1024.038462,0.049274,0.001000,0.001000,0.001000,0.001000,0.001000
1024.057692,0.049080,0.001000,0.001000,0.001000,0.001000,0.001000
1024.076923,0.048864,0.001000,0.001000,0.001000,0.001000,0.001000
1024.096154,0.048625,0.001000,0.001000,0.001000,0.001000,0.001000
1024.115385,0.048363,0.001000,0.001000,0.001000,0.001000,0.001000
1024.134615,0.048079,0.001000,0.001000,0.001000,0.001000,0.001000
1024.153846,0.047773,0.001000,0.001000,0.001000,0.001000,0.001000
1024.173077,0.047445,0.001000,0.001000,0.001000,0.001000,0.001000
1024.192308,0.047095,0.001000,0.001000,0.001000,0.001000,0.001000
1024.211538,0.046723,0.001000,0.001000,0.001000,0.001000,0.001000
1024.230769,0.046329,0.001000,0.001000,0.001000,0.001000,0.001000
1024.250000,0.045914,0.001000,0.001000,0.001000,0.001000,0.001000
1024.269231,0.045478,0.001000,0.001000,0.001000,0.001000,0.001000
1024.288462,0.045021,0.001000,0.001000,0.001000,0.001000,0.001000
1024.307692,0.044543,0.001000,0.001000,0.001000,0.001000,0.001000
1024.326923,0.044044,0.001000,0.001000,0.001000,0.001000,0.001000
1024.346154,0.043525,0.001000,0.001000,0.001000,0.001000,0.001000
1024.365385,0.042986,0.001000,0.001000,0.001000,0.001000,0.001000
1024.384615,0.042427,0.001000,0.001000,0.001000,0.001000,0.001000
1024.403846,0.041848,0.001000,0.001000,0.001000,0.001000,0.001000
1024.423077,0.041251,0.001000,0.001000,0.001000,0.001000,0.001000
1024.442308,0.040634,0.001000,0.001000,0.001000,0.001000,0.001000
1024.461538,0.039998,0.001000,0.001000,0.001000,0.001000,0.001000
1024.480769,0.039344,0.001000,0.001000,0.001000,0.001000,0.001000
1024.500000,0.038671,0.001000,0.001000,0.001000,0.001000,0.001000
1024.519231,0.037981,0.001000,0.001000,0.001000,0.001000,0.001000
1024.538462,0.037273,0.001000,0.001000,0.001000,0.001000,0.001000
1024.557692,0.036548,0.001000,0.001000,0.001000,0.001000,0.001000
1024.576923,0.035806,0.001000,0.001000,0.001000,0.001000,0.001000
1024.596154,0.035047,0.001000,0.001000,0.001000,0.001000,0.001000
1024.615385,0.034273,0.001000,0.001000,0.001000,0.001000,0.001000
1024.634615,0.033482,0.001000,0.001000,0.001000,0.001000,0.001000
1024.653846,0.032676,0.001000,0.001000,0.001000,0.001000,0.001000
1024.673077,0.031855,0.001000,0.001000,0.001000,0.001000,0.001000
1024.692308,0.031019,0.001000,0.001000,0.001000,0.001000,0.001000
1024.711538,0.030169,0.001000,0.001000,0.001000,0.001000,0.001000
1024.730769,0.029305,0.001000,0.001000,0.001000,0.001000,0.001000
1024.750000,0.028427,0.001000,0.001000,0.001000,0.001000,0.001000
1024.769231,0.027536,0.001000,0.001000,0.001000,0.001000,0.001000
1024.788462,0.026633,0.001000,0.001000,0.001000,0.001000,0.001000
1024.807692,0.025717,0.001000,0.001000,0.001000,0.001000,0.001000
1024.826923,0.024789,0.001000,0.001000,0.001000,0.001000,0.001000
1024.846154,0.023850,0.001000,0.001000,0.001000,0.001000,0.001000
1024.865385,0.022900,0.001000,0.001000,0.001000,0.001000,0.001000
1024.884615,0.021939,0.001000,0.001000,0.001000,0.001000,0.001000
1024.903846,0.020968,0.001000,0.001000,0.001000,0.001000,0.001000
1024.923077,0.019987,0.001000,0.001000,0.001000,0.001000,0.001000
1024.942308,0.018997,0.001000,0.001000,0.001000,0.001000,0.001000
1024.961538,0.017999,0.001000,0.001000,0.001000,0.001000,0.001000
1024.980769,0.016992,0.001000,0.001000,0.001000,0.001000,0.001000
1025.000000,0.015977,0.001000,0.001000,0.001000,0.001000,0.001000
1025.019231,0.014955,0.001000,0.001000,0.001000,0.001000,0.001000
1025.038462,0.013926,0.001000,0.001000,0.001000,0.001000,0.001000
1025.057692,0.012890,0.001000,0.001000,0.001000,0.001000,0.001000
1025.076923,0.011849,0.001000,0.001000,0.001000,0.001000,0.001000
1025.096154,0.010801,0.001000,0.001000,0.001000,0.001000,0.001000
1025.115385,0.009750,0.001000,0.001000,0.001000,0.001000,0.001000
1025.134615,0.008693,0.001000,0.001000,0.001000,0.001000,0.001000
1025.153846,0.007632,0.001000,0.001000,0.001000,0.001000,0.001000
1025.173077,0.006568,0.001000,0.001000,0.001000,0.001000,0.001000
1025.192308,0.005501,0.001000,0.001000,0.001000,0.001000,0.001000
1025.211538,0.004432,0.001000,0.001000,0.001000,0.001000,0.001000
1025.230769,0.003360,0.001000,0.001000,0.001000,0.001000,0.001000
1025.250000,0.002287,0.001000,0.001000,0.001000,0.001000,0.001000
1025.269231,0.001213,0.001000,0.001000,0.001000,0.001000,0.001000
1025.288462,0.000138,0.001000,0.001000,0.001000,0.001000,0.001000
1025.307692,-0.000937,0.001000,0.001000,0.001000,0.001000,0.001000
1025.326923,-0.002012,0.001000,0.001000,0.001000,0.001000,0.001000
1025.346154,-0.003085,0.001000,0.001000,0.001000,0.001000,0.001000
1025.365385,-0.004157,0.001000,0.001000,0.001000,0.001000,0.001000
1025.384615,-0.005228,0.001000,0.001000,0.001000,0.001000,0.001000
1025.403846,-0.006295,0.001000,0.001000,0.001000,0.001000,0.001000
1025.423077,-0.007360,0.001000,0.001000,0.001000,0.001000,0.001000
1025.442308,-0.008422,0.001000,0.001000,0.001000,0.001000,0.001000
1025.461538,-0.009479,0.001000,0.001000,0.001000,0.001000,0.001000
1025.480769,-0.010532,0.001000,0.001000,0.001000,0.001000,0.001000
1025.500000,-0.011581,0.001000,0.001000,0.001000,0.001000,0.001000
1025.519231,-0.012624,0.001000,0.001000,0.001000,0.001000,0.001000
1025.538462,-0.013661,0.001000,0.001000,0.001000,0.001000,0.001000
1025.557692,-0.014692,0.001000,0.001000,0.001000,0.001000,0.001000
1025.576923,-0.015716,0.001000,0.001000,0.001000,0.001000,0.001000
1025.596154,-0.016733,0.001000,0.001000,0.001000,0.001000,0.001000
1025.615385,-0.017742,0.001000,0.001000,0.001000,0.001000,0.001000
1025.634615,-0.018742,0.001000,0.001000,0.001000,0.001000,0.001000
1025.653846,-0.019735,0.001000,0.001000,0.001000,0.001000,0.001000
1025.673077,-0.020718,0.001000,0.001000,0.001000,0.001000,0.001000
1025.692308,-0.021691,0.001000,0.001000,0.001000,0.001000,0.001000
1025.711538,-0.022655,0.001000,0.001000,0.001000,0.001000,0.001000
1025.730769,-0.023608,0.001000,0.001000,0.001000,0.001000,0.001000
1025.750000,-0.024550,0.001000,0.001000,0.001000,0.001000,0.001000
1025.769231,-0.025480,0.001000,0.001000,0.001000,0.001000,0.001000
1025.788462,-0.026399,0.001000,0.001000,0.001000,0.001000,0.001000
1025.807692,-0.027306,0.001000,0.001000,0.001000,0.001000,0.001000
1025.826923,-0.028200,0.001000,0.001000,0.001000,0.001000,0.001000
1025.846154,-0.029081,0.001000,0.001000,0.001000,0.001000,0.001000
1025.865385,-0.029949,0.001000,0.001000,0.001000,0.001000,0.001000
1025.884615,-0.030803,0.001000,0.001000,0.001000,0.001000,0.001000
1025.903846,-0.031642,0.001000,0.001000,0.001000,0.001000,0.001000
1025.923077,-0.032467,0.001000,0.001000,0.001000,0.001000,0.001000
1025.942308,-0.033277,0.001000,0.001000,0.001000,0.001000,0.001000
1025.961538,-0.034072,0.001000,0.001000,0.001000,0.001000,0.001000
1025.980769,-0.034851,0.001000,0.001000,0.001000,0.001000,0.001000
1026.000000,-0.035613,0.001000,0.001000,0.001000,0.001000,0.001000
1026.019231,-0.036360,0.001000,0.001000,0.001000,0.001000,0.001000
1026.038462,-0.037089,0.001000,0.001000,0.001000,0.001000,0.001000
1026.057692,-0.037801,0.001000,0.001000,0.001000,0.001000,0.001000
1026.076923,-0.038496,0.001000,0.001000,0.001000,0.001000,0.001000
1026.096154,-0.039173,0.001000,0.001000,0.001000,0.001000,0.001000
1026.115385,-0.039832,0.001000,0.001000,0.001000,0.001000,0.001000
1026.134615,-0.040473,0.001000,0.001000,0.001000,0.001000,0.001000
1026.153846,-0.041094,0.001000,0.001000,0.001000,0.001000,0.001000
1026.173077,-0.041697,0.001000,0.001000,0.001000,0.001000,0.001000
1026.192308,-0.042281,0.001000,0.001000,0.001000,0.001000,0.001000
1026.211538,-0.042845,0.001000,0.001000,0.001000,0.001000,0.001000
1026.230769,-0.043389,0.001000,0.001000,0.001000,0.001000,0.001000
1026.250000,-0.043913,0.001000,0.001000,0.001000,0.001000,0.001000
1026.269231,-0.044417,0.001000,0.001000,0.001000,0.001000,0.001000
1026.288462,-0.044900,0.001000,0.001000,0.001000,0.001000,0.001000
1026.307692,-0.045363,0.001000,0.001000,0.001000,0.001000,0.001000
1026.326923,-0.045804,0.001000,0.001000,0.001000,0.001000,0.001000
1026.346154,-0.046225,0.001000,0.001000,0.001000,0.001000,0.001000
1026.365385,-0.046624,0.001000,0.001000,0.001000,0.001000,0.001000
1026.384615,-0.047001,0.001000,0.001000,0.001000,0.001000,0.001000
1026.403846,-0.047357,0.001000,0.001000,0.001000,0.001000,0.001000
1026.423077,-0.047691,0.001000,0.001000,0.001000,0.001000,0.001000
1026.442308,-0.048003,0.001000,0.001000,0.001000,0.001000,0.001000
1026.461538,-0.048292,0.001000,0.001000,0.001000,0.001000,0.001000
1026.480769,-0.048560,0.001000,0.001000,0.001000,0.001000,0.001000
1026.500000,-0.048805,0.001000,0.001000,0.001000,0.001000,0.001000
1026.519231,-0.049027,0.001000,0.001000,0.001000,0.001000,0.001000
1026.538462,-0.049227,0.001000,0.001000,0.001000,0.001000,0.001000
1026.557692,-0.049404,0.001000,0.001000,0.001000,0.001000,0.001000
1026.576923,-0.049558,0.001000,0.001000,0.001000,0.001000,0.001000
1026.596154,-0.049689,0.001000,0.001000,0.001000,0.001000,0.001000
1026.615385,-0.049797,0.001000,0.001000,0.001000,0.001000,0.001000
1026.634615,-0.049882,0.001000,0.001000,0.001000,0.001000,0.001000
1026.653846,-0.049945,0.001000,0.001000,0.001000,0.001000,0.001000
1026.673077,-0.049984,0.001000,0.001000,0.001000,0.001000,0.001000
1026.692308,-0.050000,0.001000,0.001000,0.001000,0.001000,0.001000
1026.711538,-0.049992,0.001000,0.001000,0.001000,0.001000,0.001000
1026.730769,-0.049962,0.001000,0.001000,0.001000,0.001000,0.001000
1026.750000,-0.049909,0.001000,0.001000,0.001000,0.001000,0.001000
1026.769231,-0.049832,0.001000,0.001000,0.001000,0.001000,0.001000
1026.788462,-0.049733,0.001000,0.001000,0.001000,0.001000,0.001000
1026.807692,-0.049611,0.001000,0.001000,0.001000,0.001000,0.001000
1026.826923,-0.049465,0.001000,0.001000,0.001000,0.001000,0.001000
1026.846154,-0.049297,0.001000,0.001000,0.001000,0.001000,0.001000
1026.865385,-0.049106,0.001000,0.001000,0.001000,0.001000,0.001000
1026.884615,-0.048892,0.001000,0.001000,0.001000,0.001000,0.001000
1026.903846,-0.048656,0.001000,0.001000,0.001000,0.001000,0.001000
1026.923077,-0.048397,0.001000,0.001000,0.001000,0.001000,0.001000
1026.942308,-0.048116,0.001000,0.001000,0.001000,0.001000,0.001000
1026.961538,-0.047813,0.001000,0.001000,0.001000,0.001000,0.001000
1026.980769,-0.047487,0.001000,0.001000,0.001000,0.001000,0.001000
1027.000000,-0.047140,0.001000,0.001000,0.001000,0.001000,0.001000
1027.019231,-0.046770,0.001000,0.001000,0.001000,0.001000,0.001000
1027.038462,-0.046380,0.001000,0.001000,0.001000,0.001000,0.001000
1027.057692,-0.045967,0.001000,0.001000,0.001000,0.001000,0.001000
1027.076923,-0.045534,0.001000,0.001000,0.001000,0.001000,0.001000
1027.096154,-0.045079,0.001000,0.001000,0.001000,0.001000,0.001000
1027.115385,-0.044604,0.001000,0.001000,0.001000,0.001000,0.001000
1027.134615,-0.044108,0.001000,0.001000,0.001000,0.001000,0.001000
1027.153846,-0.043591,0.001000,0.001000,0.001000,0.001000,0.001000
1027.173077,-0.043055,0.001000,0.001000,0.001000,0.001000,0.001000
1027.192308,-0.042498,0.001000,0.001000,0.001000,0.001000,0.001000
1027.211538,-0.041922,0.001000,0.001000,0.001000,0.001000,0.001000
1027.230769,-0.041327,0.001000,0.001000,0.001000,0.001000,0.001000
1027.250000,-0.040712,0.001000,0.001000,0.001000,0.001000,0.001000
1027.269231,-0.040079,0.001000,0.001000,0.001000,0.001000,0.001000
1027.288462,-0.039427,0.001000,0.001000,0.001000,0.001000,0.001000
1027.307692,-0.038756,0.001000,0.001000,0.001000,0.001000,0.001000
1027.326923,-0.038068,0.001000,0.001000,0.001000,0.001000,0.001000
1027.346154,-0.037363,0.001000,0.001000,0.001000,0.001000,0.001000
1027.365385,-0.036640,0.001000,0.001000,0.001000,0.001000,0.001000
1027.384615,-0.035900,0.001000,0.001000,0.001000,0.001000,0.001000
1027.403846,-0.035143,0.001000,0.001000,0.001000,0.001000,0.001000
1027.423077,-0.034371,0.001000,0.001000,0.001000,0.001000,0.001000
1027.442308,-0.033582,0.001000,0.001000,0.001000,0.001000,0.001000
1027.461538,-0.032778,0.001000,0.001000,0.001000,0.001000,0.001000
1027.480769,-0.031959,0.001000,0.001000,0.001000,0.001000,0.001000
1027.500000,-0.031125,0.001000,0.001000,0.001000,0.001000,0.001000
1027.519231,-0.030276,0.001000,0.001000,0.001000,0.001000,0.001000
1027.538462,-0.029414,0.001000,0.001000,0.001000,0.001000,0.001000
1027.557692,-0.028538,0.001000,0.001000,0.001000,0.001000,0.001000
1027.576923,-0.027649,0.001000,0.001000,0.001000,0.001000,0.001000
1027.596154,-0.026747,0.001000,0.001000,0.001000,0.001000,0.001000
1027.615385,-0.025832,0.001000,0.001000,0.001000,0.001000,0.001000
1027.634615,-0.024906,0.001000,0.001000,0.001000,0.001000,0.001000
1027.653846,-0.023968,0.001000,0.001000,0.001000,0.001000,0.001000
1027.673077,-0.023019,0.001000,0.001000,0.001000,0.001000,0.001000
1027.692308,-0.022060,0.001000,0.001000,0.001000,0.001000,0.001000
1027.711538,-0.021090,0.001000,0.001000,0.001000,0.001000,0.001000
1027.730769,-0.020111,0.001000,0.001000,0.001000,0.001000,0.001000
1027.750000,-0.019122,0.001000,0.001000,0.001000,0.001000,0.001000
1027.769231,-0.018124,0.001000,0.001000,0.001000,0.001000,0.001000
1027.788462,-0.017118,0.001000,0.001000,0.001000,0.001000,0.001000
1027.807692,-0.016105,0.001000,0.001000,0.001000,0.001000,0.001000
1027.826923,-0.015083,0.001000,0.001000,0.001000,0.001000,0.001000
1027.846154,-0.014055,0.001000,0.001000,0.001000,0.001000,0.001000
1027.865385,-0.013020,0.001000,0.001000,0.001000,0.001000,0.001000
1027.884615,-0.011979,0.001000,0.001000,0.001000,0.001000,0.001000
1027.903846,-0.010933,0.001000,0.001000,0.001000,0.001000,0.001000
1027.923077,-0.009882,0.001000,0.001000,0.001000,0.001000,0.001000
1027.942308,-0.008826,0.001000,0.001000,0.001000,0.001000,0.001000
1027.961538,-0.007766,0.001000,0.001000,0.001000,0.001000,0.001000
1027.980769,-0.006702,0.001000,0.001000,0.001000,0.001000,0.001000
1028.000000,-0.005635,0.001000,0.001000,0.001000,0.001000,0.001000
1028.019231,-0.004566,0.001000,0.001000,0.001000,0.001000,0.001000
1028.038462,-0.003494,0.001000,0.001000,0.001000,0.001000,0.001000
1028.057692,-0.002421,0.001000,0.001000,0.001000,0.001000,0.001000
1028.076923,-0.001347,0.001000,0.001000,0.001000,0.001000,0.001000
1028.096154,-0.000272,0.001000,0.001000,0.001000,0.001000,0.001000
1028.115385,0.000803,0.001000,0.001000,0.001000,0.001000,0.001000
1028.134615,0.001877,0.001000,0.001000,0.001000,0.001000,0.001000
1028.153846,0.002951,0.001000,0.001000,0.001000,0.001000,0.001000
1028.173077,0.004023,0.001000,0.001000,0.001000,0.001000,0.001000
1028.192308,0.005094,0.001000,0.001000,0.001000,0.001000,0.001000
1028.211538,0.006162,0.001000,0.001000,0.001000,0.001000,0.001000
1028.230769,0.007227,0.001000,0.001000,0.001000,0.001000,0.001000
1028.250000,0.008289,0.001000,0.001000,0.001000,0.001000,0.001000
1028.269231,0.009347,0.001000,0.001000,0.001000,0.001000,0.001000
1028.288462,0.010401,0.001000,0.001000,0.001000,0.001000,0.001000
1028.307692,0.011450,0.001000,0.001000,0.001000,0.001000,0.001000
1028.326923,0.012493,0.001000,0.001000,0.001000,0.001000,0.001000
1028.346154,0.013531,0.001000,0.001000,0.001000,0.001000,0.001000
1028.365385,0.014563,0.001000,0.001000,0.001000,0.001000,0.001000
1028.384615,0.015588,0.001000,0.001000,0.001000,0.001000,0.001000
1028.403846,0.016606,0.001000,0.001000,0.001000,0.001000,0.001000
1028.423077,0.017616,0.001000,0.001000,0.001000,0.001000,0.001000
1028.442308,0.018617,0.001000,0.001000,0.001000,0.001000,0.001000
1028.461538,0.019611,0.001000,0.001000,0.001000,0.001000,0.001000
1028.480769,0.020595,0.001000,0.001000,0.001000,0.001000,0.001000
1028.500000,0.021570,0.001000,0.001000,0.001000,0.001000,0.001000
1028.519231,0.022534,0.001000,0.001000,0.001000,0.001000,0.001000
1028.538462,0.023489,0.001000,0.001000,0.001000,0.001000,0.001000
1028.557692,0.024432,0.001000,0.001000,0.001000,0.001000,0.001000
1028.576923,0.025364,0.001000,0.001000,0.001000,0.001000,0.001000
1028.596154,0.026285,0.001000,0.001000,0.001000,0.001000,0.001000
1028.615385,0.027193,0.001000,0.001000,0.001000,0.001000,0.001000
1028.634615,0.028089,0.001000,0.001000,0.001000,0.001000,0.001000
1028.653846,0.028972,0.001000,0.001000,0.001000,0.001000,0.001000
1028.673077,0.029841,0.001000,0.001000,0.001000,0.001000,0.001000
1028.692308,0.030697,0.001000,0.001000,0.001000,0.001000,0.001000
1028.711538,0.031538,0.001000,0.001000,0.001000,0.001000,0.001000
1028.730769,0.032365,0.001000,0.001000,0.001000,0.001000,0.001000
1028.750000,0.033177,0.001000,0.001000,0.001000,0.001000,0.001000
1028.769231,0.033973,0.001000,0.001000,0.001000,0.001000,0.001000
1028.788462,0.034754,0.001000,0.001000,0.001000,0.001000,0.001000
1028.807692,0.035519,0.001000,0.001000,0.001000,0.001000,0.001000
1028.826923,0.036267,0.001000,0.001000,0.001000,0.001000,0.001000
1028.846154,0.036998,0.001000,0.001000,0.001000,0.001000,0.001000
1028.865385,0.037713,0.001000,0.001000,0.001000,0.001000,0.001000
1028.884615,0.038410,0.001000,0.001000,0.001000,0.001000,0.001000
1028.903846,0.039089,0.001000,0.001000,0.001000,0.001000,0.001000
1028.923077,0.039750,0.001000,0.001000,0.001000,0.001000,0.001000
1028.942308,0.040393,0.001000,0.001000,0.001000,0.001000,0.001000
1028.961538,0.041017,0.001000,0.001000,0.001000,0.001000,0.001000
1028.980769,0.041623,0.001000,0.001000,0.001000,0.001000,0.001000
1029.000000,0.042209,0.001000,0.001000,0.001000,0.001000,0.001000
1029.019231,0.042775,0.001000,0.001000,0.001000,0.001000,0.001000
1029.038462,0.043322,0.001000,0.001000,0.001000,0.001000,0.001000
1029.057692,0.043848,0.001000,0.001000,0.001000,0.001000,0.001000
1029.076923,0.044355,0.001000,0.001000,0.001000,0.001000,0.001000
1029.096154,0.044841,0.001000,0.001000,0.001000,0.001000,0.001000
1029.115385,0.045306,0.001000,0.001000,0.001000,0.001000,0.001000
1029.134615,0.045750,0.001000,0.001000,0.001000,0.001000,0.001000
1029.153846,0.046173,0.001000,0.001000,0.001000,0.001000,0.001000
1029.173077,0.046575,0.001000,0.001000,0.001000,0.001000,0.001000
1029.192308,0.046955,0.001000,0.001000,0.001000,0.001000,0.001000
1029.211538,0.047314,0.001000,0.001000,0.001000,0.001000,0.001000
1029.230769,0.047650,0.001000,0.001000,0.001000,0.001000,0.001000
1029.250000,0.047965,0.001000,0.001000,0.001000,0.001000,0.001000
1029.269231,0.048257,0.001000,0.001000,0.001000,0.001000,0.001000
1029.288462,0.048528,0.001000,0.001000,0.001000,0.001000,0.001000
1029.307692,0.048775,0.001000,0.001000,0.001000,0.001000,0.001000
1029.326923,0.049000,0.001000,0.001000,0.001000,0.001000,0.001000
1029.346154,0.049203,0.001000,0.001000,0.001000,0.001000,0.001000
1029.365385,0.049383,0.001000,0.001000,0.001000,0.001000,0.001000
1029.384615,0.049540,0.001000,0.001000,0.001000,0.001000,0.001000
1029.403846,0.049674,0.001000,0.001000,0.001000,0.001000,0.001000
1029.423077,0.049785,0.001000,0.001000,0.001000,0.001000,0.001000
1029.442308,0.049873,0.001000,0.001000,0.001000,0.001000,0.001000
1029.461538,0.049938,0.001000,0.001000,0.001000,0.001000,0.001000
1029.480769,0.049980,0.001000,0.001000,0.001000,0.001000,0.001000
1029.500000,0.049999,0.001000,0.001000,0.001000,0.001000,0.001000
1029.519231,0.049995,0.001000,0.001000,0.001000,0.001000,0.001000
1029.538462,0.049967,0.001000,0.001000,0.001000,0.001000,0.001000
1029.557692,0.049917,0.001000,0.001000,0.001000,0.001000,0.001000
1029.576923,0.049843,0.001000,0.001000,0.001000,0.001000,0.001000
1029.596154,0.049747,0.001000,0.001000,0.001000,0.001000,0.001000
1029.615385,0.049627,0.001000,0.001000,0.001000,0.001000,0.001000
1029.634615,0.049485,0.001000,0.001000,0.001000,0.001000,0.001000
1029.653846,0.049319,0.001000,0.001000,0.001000,0.001000,0.001000
1029.673077,0.049131,0.001000,0.001000,0.001000,0.001000,0.001000
1029.692308,0.048920,0.001000,0.001000,0.001000,0.001000,0.001000
1029.711538,0.048687,0.001000,0.001000,0.001000,0.001000,0.001000
1029.730769,0.048431,0.001000,0.001000,0.001000,0.001000,0.001000
1029.750000,0.048152,0.001000,0.001000,0.001000,0.001000,0.001000
1029.769231,0.047852,0.001000,0.001000,0.001000,0.001000,0.001000
1029.788462,0.047529,0.001000,0.001000,0.001000,0.001000,0.001000
1029.807692,0.047184,0.001000,0.001000,0.001000,0.001000,0.001000
1029.826923,0.046818,0.001000,0.001000,0.001000,0.001000,0.001000
1029.846154,0.046430,0.001000,0.001000,0.001000,0.001000,0.001000
1029.865385,0.046020,0.001000,0.001000,0.001000,0.001000,0.001000
1029.884615,0.045589,0.001000,0.001000,0.001000,0.001000,0.001000
1029.903846,0.045137,0.001000,0.001000,0.001000,0.001000,0.001000
1029.923077,0.044664,0.001000,0.001000,0.001000,0.001000,0.001000
1029.942308,0.044171,0.001000,0.001000,0.001000,0.001000,0.001000
1029.961538,0.043657,0.001000,0.001000,0.001000,0.001000,0.001000
1029.980769,0.043123,0.001000,0.001000,0.001000,0.001000,0.001000
1030.000000,0.000000,0.001000,0.001000,0.001000,0.001000,0.001000
1030.019231,0.001141,0.001000,0.001000,0.001000,0.001000,0.001000
1030.038462,0.002281,0.001000,0.001000,0.001000,0.001000,0.001000
1030.057692,0.003421,0.001000,0.001000,0.001000,0.001000,0.001000
1030.076923,0.004558,0.001000,0.001000,0.001000,0.001000,0.001000
1030.096154,0.005693,0.001000,0.001000,0.001000,0.001000,0.001000
1030.115385,0.006825,0.001000,0.001000,0.001000,0.001000,0.001000
1030.134615,0.007954,0.001000,0.001000,0.001000,0.001000,0.001000
1030.153846,0.009078,0.001000,0.001000,0.001000,0.001000,0.001000
1030.173077,0.010198,0.001000,0.001000,0.001000,0.001000,0.001000
1030.192308,0.011312,0.001000,0.001000,0.001000,0.001000,0.001000
1030.211538,0.012421,0.001000,0.001000,0.001000,0.001000,0.001000
1030.230769,0.013523,0.001000,0.001000,0.001000,0.001000,0.001000
1030.250000,0.014618,0.001000,0.001000,0.001000,0.001000,0.001000
1030.269231,0.015705,0.001000,0.001000,0.001000,0.001000,0.001000
1030.288462,0.016784,0.001000,0.001000,0.001000,0.001000,0.001000
1030.307692,0.017855,0.001000,0.001000,0.001000,0.001000,0.001000
1030.326923,0.018916,0.001000,0.001000,0.001000,0.001000,0.001000
1030.346154,0.019967,0.001000,0.001000,0.001000,0.001000,0.001000
1030.365385,0.021008,0.001000,0.001000,0.001000,0.001000,0.001000
1030.384615,0.022038,0.001000,0.001000,0.001000,0.001000,0.001000
1030.403846,0.023057,0.001000,0.001000,0.001000,0.001000,0.001000
1030.423077,0.024063,0.001000,0.001000,0.001000,0.001000,0.001000
1030.442308,0.025057,0.001000,0.001000,0.001000,0.001000,0.001000
1030.461538,0.026038,0.001000,0.001000,0.001000,0.001000,0.001000
1030.480769,0.027005,0.001000,0.001000,0.001000,0.001000,0.001000
1030.500000,0.027958,0.001000,0.001000,0.001000,0.001000,0.001000
1030.519231,0.028897,0.001000,0.001000,0.001000,0.001000,0.001000
1030.538462,0.029821,0.001000,0.001000,0.001000,0.001000,0.001000
1030.557692,0.030729,0.001000,0.001000,0.001000,0.001000,0.001000
1030.576923,0.031621,0.001000,0.001000,0.001000,0.001000,0.001000
1030.596154,0.032497,0.001000,0.001000,0.001000,0.001000,0.001000
1030.615385,0.033355,0.001000,0.001000,0.001000,0.001000,0.001000
1030.634615,0.034197,0.001000,0.001000,0.001000,0.001000,0.001000
1030.653846,0.035020,0.001000,0.001000,0.001000,0.001000,0.001000
1030.673077,0.035825,0.001000,0.001000,0.001000,0.001000,0.001000
1030.692308,0.036612,0.001000,0.001000,0.001000,0.001000,0.001000
1030.711538,0.037380,0.001000,0.001000,0.001000,0.001000,0.001000
1030.730769,0.038128,0.001000,0.001000,0.001000,0.001000,0.001000
1030.750000,0.038856,0.001000,0.001000,0.001000,0.001000,0.001000
1030.769231,0.039564,0.001000,0.001000,0.001000,0.001000,0.001000
1030.788462,0.040251,0.001000,0.001000,0.001000,0.001000,0.001000
1030.807692,0.040918,0.001000,0.001000,0.001000,0.001000,0.001000
1030.826923,0.041563,0.001000,0.001000,0.001000,0.001000,0.001000
1030.846154,0.042186,0.001000,0.001000,0.001000,0.001000,0.001000
1030.865385,0.042788,0.001000,0.001000,0.001000,0.001000,0.001000
1030.884615,0.043367,0.001000,0.001000,0.001000,0.001000,0.001000
1030.903846,0.043924,0.001000,0.001000,0.001000,0.001000,0.001000
1030.923077,0.044457,0.001000,0.001000,0.001000,0.001000,0.001000
1030.942308,0.044968,0.001000,0.001000,0.001000,0.001000,0.001000
1030.961538,0.045455,0.001000,0.001000,0.001000,0.001000,0.001000
1030.980769,0.045919,0.001000,0.001000,0.001000,0.001000,0.001000
1031.000000,0.046358,0.001000,0.001000,0.001000,0.001000,0.001000
1031.019231,0.046774,0.001000,0.001000,0.001000,0.001000,0.001000
1031.038462,0.047165,0.001000,0.001000,0.001000,0.001000,0.001000
1031.057692,0.047531,0.001000,0.001000,0.001000,0.001000,0.001000
1031.076923,0.047873,0.001000,0.001000,0.001000,0.001000,0.001000
1031.096154,0.048190,0.001000,0.001000,0.001000,0.001000,0.001000
1031.115385,0.048481,0.001000,0.001000,0.001000,0.001000,0.001000
1031.134615,0.048748,0.001000,0.001000,0.001000,0.001000,0.001000
1031.153846,0.048989,0.001000,0.001000,0.001000,0.001000,0.001000
1031.173077,0.049204,0.001000,0.001000,0.001000,0.001000,0.001000
1031.192308,0.049394,0.001000,0.001000,0.001000,0.001000,0.001000
1031.211538,0.049559,0.001000,0.001000,0.001000,0.001000,0.001000
1031.230769,0.049697,0.001000,0.001000,0.001000,0.001000,0.001000
1031.250000,0.049809,0.001000,0.001000,0.001000,0.001000,0.001000
1031.269231,0.049896,0.001000,0.001000,0.001000,0.001000,0.001000
1031.288462,0.049957,0.001000,0.001000,0.001000,0.001000,0.001000
1031.307692,0.049991,0.001000,0.001000,0.001000,0.001000,0.001000
1031.326923,0.050000,0.001000,0.001000,0.001000,0.001000,0.001000
1031.346154,0.049982,0.001000,0.001000,0.001000,0.001000,0.001000
1031.365385,0.049939,0.001000,0.001000,0.001000,0.001000,0.001000
1031.384615,0.049869,0.001000,0.001000,0.001000,0.001000,0.001000
1031.403846,0.049773,0.001000,0.001000,0.001000,0.001000,0.001000
1031.423077,0.049652,0.001000,0.001000,0.001000,0.001000,0.001000
1031.442308,0.049505,0.001000,0.001000,0.001000,0.001000,0.001000
1031.461538,0.049331,0.001000,0.001000,0.001000,0.001000,0.001000
1031.480769,0.049133,0.001000,0.001000,0.001000,0.001000,0.001000
1031.500000,0.048908,0.001000,0.001000,0.001000,0.001000,0.001000
1031.519231,0.048658,0.001000,0.001000,0.001000,0.001000,0.001000
1031.538462,0.048383,0.001000,0.001000,0.001000,0.001000,0.001000
1031.557692,0.048083,0.001000,0.001000,0.001000,0.001000,0.001000
1031.576923,0.047757,0.001000,0.001000,0.001000,0.001000,0.001000
1031.596154,0.047407,0.001000,0.001000,0.001000,0.001000,0.001000
1031.615385,0.047032,0.001000,0.001000,0.001000,0.001000,0.001000
1031.634615,0.046632,0.001000,0.001000,0.001000,0.001000,0.001000
1031.653846,0.046209,0.001000,0.001000,0.001000,0.001000,0.001000
1031.673077,0.045761,0.001000,0.001000,0.001000,0.001000,0.001000
1031.692308,0.045289,0.001000,0.001000,0.001000,0.001000,0.001000
1031.711538,0.044794,0.001000,0.001000,0.001000,0.001000,0.001000
1031.730769,0.044275,0.001000,0.001000,0.001000,0.001000,0.001000
1031.750000,0.043733,0.001000,0.001000,0.001000,0.001000,0.001000
1031.769231,0.043169,0.001000,0.001000,0.001000,0.001000,0.001000
1031.788462,0.042582,0.001000,0.001000,0.001000,0.001000,0.001000
1031.807692,0.041973,0.001000,0.001000,0.001000,0.001000,0.001000
1031.826923,0.041342,0.001000,0.001000,0.001000,0.001000,0.001000
1031.846154,0.040689,0.001000,0.001000,0.001000,0.001000,0.001000
1031.865385,0.040016,0.001000,0.001000,0.001000,0.001000,0.001000
1031.884615,0.039321,0.001000,0.001000,0.001000,0.001000,0.001000
1031.903846,0.038606,0.001000,0.001000,0.001000,0.001000,0.001000
1031.923077,0.037871,0.001000,0.001000,0.001000,0.001000,0.001000
1031.942308,0.037116,0.001000,0.001000,0.001000,0.001000,0.001000
1031.961538,0.036342,0.001000,0.001000,0.001000,0.001000,0.001000
1031.980769,0.035549,0.001000,0.001000,0.001000,0.001000,0.001000
1032.000000,0.034737,0.001000,0.001000,0.001000,0.001000,0.001000
1032.019231,0.033907,0.001000,0.001000,0.001000,0.001000,0.001000
1032.038462,0.033060,0.001000,0.001000,0.001000,0.001000,0.001000
1032.057692,0.032195,0.001000,0.001000,0.001000,0.001000,0.001000
1032.076923,0.031314,0.001000,0.001000,0.001000,0.001000,0.001000
1032.096154,0.030416,0.001000,0.001000,0.001000,0.001000,0.001000
1032.115385,0.029503,0.001000,0.001000,0.001000,0.001000,0.001000
1032.134615,0.028574,0.001000,0.001000,0.001000,0.001000,0.001000
1032.153846,0.027630,0.001000,0.001000,0.001000,0.001000,0.001000
1032.173077,0.026672,0.001000,0.001000,0.001000,0.001000,0.001000
1032.192308,0.025700,0.001000,0.001000,0.001000,0.001000,0.001000
1032.211538,0.024714,0.001000,0.001000,0.001000,0.001000,0.001000
1032.230769,0.023716,0.001000,0.001000,0.001000,0.001000,0.001000
1032.250000,0.022705,0.001000,0.001000,0.001000,0.001000,0.001000
1032.269231,0.021683,0.001000,0.001000,0.001000,0.001000,0.001000
1032.288462,0.020649,0.001000,0.001000,0.001000,0.001000,0.001000
1032.307692,0.019605,0.001000,0.001000,0.001000,0.001000,0.001000
1032.326923,0.018550,0.001000,0.001000,0.001000,0.001000,0.001000
1032.346154,0.017485,0.001000,0.001000,0.001000,0.001000,0.001000
1032.365385,0.016412,0.001000,0.001000,0.001000,0.001000,0.001000
1032.384615,0.015330,0.001000,0.001000,0.001000,0.001000,0.001000
1032.403846,0.014240,0.001000,0.001000,0.001000,0.001000,0.001000
1032.423077,0.013142,0.001000,0.001000,0.001000,0.001000,0.001000
1032.442308,0.012038,0.001000,0.001000,0.001000,0.001000,0.001000
1032.461538,0.010927,0.001000,0.001000,0.001000,0.001000,0.001000
1032.480769,0.009811,0.001000,0.001000,0.001000,0.001000,0.001000
1032.500000,0.008690,0.001000,0.001000,0.001000,0.001000,0.001000
1032.519231,0.007564,0.001000,0.001000,0.001000,0.001000,0.001000
1032.538462,0.006434,0.001000,0.001000,0.001000,0.001000,0.001000
1032.557692,0.005301,0.001000,0.001000,0.001000,0.001000,0.001000
1032.576923,0.004165,0.001000,0.001000,0.001000,0.001000,0.001000
1032.596154,0.003027,0.001000,0.001000,0.001000,0.001000,0.001000
1032.615385,0.001887,0.001000,0.001000,0.001000,0.001000,0.001000
1032.634615,0.000746,0.001000,0.001000,0.001000,0.001000,0.001000
1032.653846,-0.000395,0.001000,0.001000,0.001000,0.001000,0.001000
1032.673077,-0.001536,0.001000,0.001000,0.001000,0.001000,0.001000
1032.692308,-0.002676,0.001000,0.001000,0.001000,0.001000,0.001000
1032.711538,-0.003815,0.001000,0.001000,0.001000,0.001000,0.001000
1032.730769,-0.004951,0.001000,0.001000,0.001000,0.001000,0.001000
1032.750000,-0.006085,0.001000,0.001000,0.001000,0.001000,0.001000
1032.769231,-0.007216,0.001000,0.001000,0.001000,0.001000,0.001000
1032.788462,-0.008344,0.001000,0.001000,0.001000,0.001000,0.001000
1032.807692,-0.009466,0.001000,0.001000,0.001000,0.001000,0.001000
1032.826923,-0.010584,0.001000,0.001000,0.001000,0.001000,0.001000
1032.846154,-0.011697,0.001000,0.001000,0.001000,0.001000,0.001000
1032.865385,-0.012803,0.001000,0.001000,0.001000,0.001000,0.001000
1032.884615,-0.013903,0.001000,0.001000,0.001000,0.001000,0.001000
1032.903846,-0.014995,0.001000,0.001000,0.001000,0.001000,0.001000
1032.923077,-0.016080,0.001000,0.001000,0.001000,0.001000,0.001000
1032.942308,-0.017156,0.001000,0.001000,0.001000,0.001000,0.001000
1032.961538,-0.018223,0.001000,0.001000,0.001000,0.001000,0.001000
1032.980769,-0.019281,0.001000,0.001000,0.001000,0.001000,0.001000
1033.000000,-0.020329,0.001000,0.001000,0.001000,0.001000,0.001000
1033.019231,-0.021366,0.001000,0.001000,0.001000,0.001000,0.001000
1033.038462,-0.022392,0.001000,0.001000,0.001000,0.001000,0.001000
1033.057692,-0.023406,0.001000,0.001000,0.001000,0.001000,0.001000
1033.076923,-0.024409,0.001000,0.001000,0.001000,0.001000,0.001000
1033.096154,-0.025398,0.001000,0.001000,0.001000,0.001000,0.001000
1033.115385,-0.026374,0.001000,0.001000,0.001000,0.001000,0.001000
1033.134615,-0.027337,0.001000,0.001000,0.001000,0.001000,0.001000
1033.153846,-0.028285,0.001000,0.001000,0.001000,0.001000,0.001000
1033.173077,-0.029219,0.001000,0.001000,0.001000,0.001000,0.001000
1033.192308,-0.030137,0.001000,0.001000,0.001000,0.001000,0.001000
1033.211538,-0.031039,0.001000,0.001000,0.001000,0.001000,0.001000
1033.230769,-0.031926,0.001000,0.001000,0.001000,0.001000,0.001000
1033.250000,-0.032796,0.001000,0.001000,0.001000,0.001000,0.001000
1033.269231,-0.033649,0.001000,0.001000,0.001000,0.001000,0.001000
1033.288462,-0.034484,0.001000,0.001000,0.001000,0.001000,0.001000
1033.307692,-0.035301,0.001000,0.001000,0.001000,0.001000,0.001000
1033.326923,-0.036100,0.001000,0.001000,0.001000,0.001000,0.001000
1033.346154,-0.036880,0.001000,0.001000,0.001000,0.001000,0.001000
1033.365385,-0.037641,0.001000,0.001000,0.001000,0.001000,0.001000
1033.384615,-0.038382,0.001000,0.001000,0.001000,0.001000,0.001000
1033.403846,-0.039103,0.001000,0.001000,0.001000,0.001000,0.001000
1033.423077,-0.039804,0.001000,0.001000,0.001000,0.001000,0.001000
1033.442308,-0.040484,0.001000,0.001000,0.001000,0.001000,0.001000
1033.461538,-0.041143,0.001000,0.001000,0.001000,0.001000,0.001000
1033.480769,-0.041781,0.001000,0.001000,0.001000,0.001000,0.001000
1033.500000,-0.042397,0.001000,0.001000,0.001000,0.001000,0.001000
1033.519231,-0.042991,0.001000,0.001000,0.001000,0.001000,0.001000
1033.538462,-0.043562,0.001000,0.001000,0.001000,0.001000,0.001000
1033.557692,-0.044111,0.001000,0.001000,0.001000,0.001000,0.001000
1033.576923,-0.044637,0.001000,0.001000,0.001000,0.001000,0.001000
1033.596154,-0.045139,0.001000,0.001000,0.001000,0.001000,0.001000
1033.615385,-0.045618,0.001000,0.001000,0.001000,0.001000,0.001000
1033.634615,-0.046073,0.001000,0.001000,0.001000,0.001000,0.001000
1033.653846,-0.046505,0.001000,0.001000,0.001000,0.001000,0.001000
1033.673077,-0.046912,0.001000,0.001000,0.001000,0.001000,0.001000
1033.692308,-0.047294,0.001000,0.001000,0.001000,0.001000,0.001000
1033.711538,-0.047652,0.001000,0.001000,0.001000,0.001000,0.001000
1033.730769,-0.047985,0.001000,0.001000,0.001000,0.001000,0.001000
1033.750000,-0.048293,0.001000,0.001000,0.001000,0.001000,0.001000
1033.769231,-0.048576,0.001000,0.001000,0.001000,0.001000,0.001000
1033.788462,-0.048834,0.001000,0.001000,0.001000,0.001000,0.001000
1033.807692,-0.049066,0.001000,0.001000,0.001000,0.001000,0.001000
1033.826923,-0.049273,0.001000,0.001000,0.001000,0.001000,0.001000
1033.846154,-0.049454,0.001000,0.001000,0.001000,0.001000,0.001000
1033.865385,-0.049609,0.001000,0.001000,0.001000,0.001000,0.001000
1033.884615,-0.049739,0.001000,0.001000,0.001000,0.001000,0.001000
1033.903846,-0.049842,0.001000,0.001000,0.001000,0.001000,0.001000
1033.923077,-0.049920,0.001000,0.001000,0.001000,0.001000,0.001000
1033.942308,-0.049971,0.001000,0.001000,0.001000,0.001000,0.001000
1033.961538,-0.049997,0.001000,0.001000,0.001000,0.001000,0.001000
1033.980769,-0.049996,0.001000,0.001000,0.001000,0.001000,0.001000
1034.000000,-0.049970,0.001000,0.001000,0.001000,0.001000,0.001000
1034.019231,-0.049917,0.001000,0.001000,0.001000,0.001000,0.001000
1034.038462,-0.049839,0.001000,0.001000,0.001000,0.001000,0.001000
1034.057692,-0.049734,0.001000,0.001000,0.001000,0.001000,0.001000
1034.076923,-0.049604,0.001000,0.001000,0.001000,0.001000,0.001000
1034.096154,-0.049448,0.001000,0.001000,0.001000,0.001000,0.001000
1034.115385,-0.049266,0.001000,0.001000,0.001000,0.001000,0.001000
1034.134615,-0.049058,0.001000,0.001000,0.001000,0.001000,0.001000
1034.153846,-0.048825,0.001000,0.001000,0.001000,0.001000,0.001000
1034.173077,-0.048566,0.001000,0.001000,0.001000,0.001000,0.001000
1034.192308,-0.048282,0.001000,0.001000,0.001000,0.001000,0.001000
1034.211538,-0.047973,0.001000,0.001000,0.001000,0.001000,0.001000
1034.230769,-0.047639,0.001000,0.001000,0.001000,0.001000,0.001000
1034.250000,-0.047280,0.001000,0.001000,0.001000,0.001000,0.001000
1034.269231,-0.046896,0.001000,0.001000,0.001000,0.001000,0.001000
1034.288462,-0.046489,0.001000,0.001000,0.001000,0.001000,0.001000
1034.307692,-0.046056,0.001000,0.001000,0.001000,0.001000,0.001000
1034.326923,-0.045600,0.001000,0.001000,0.001000,0.001000,0.001000
1034.346154,-0.045120,0.001000,0.001000,0.001000,0.001000,0.001000
1034.365385,-0.044617,0.001000,0.001000,0.001000,0.001000,0.001000
1034.384615,-0.044090,0.001000,0.001000,0.001000,0.001000,0.001000
1034.403846,-0.043541,0.001000,0.001000,0.001000,0.001000,0.001000
1034.423077,-0.042968,0.001000,0.001000,0.001000,0.001000,0.001000
1034.442308,-0.042374,0.001000,0.001000,0.001000,0.001000,0.001000
1034.461538,-0.041757,0.001000,0.001000,0.001000,0.001000,0.001000
1034.480769,-0.041118,0.001000,0.001000,0.001000,0.001000,0.001000
1034.500000,-0.040459,0.001000,0.001000,0.001000,0.001000,0.001000
1034.519231,-0.039778,0.001000,0.001000,0.001000,0.001000,0.001000
1034.538462,-0.039076,0.001000,0.001000,0.001000,0.001000,0.001000
1034.557692,-0.038354,0.001000,0.001000,0.001000,0.001000,0.001000
1034.576923,-0.037612,0.001000,0.001000,0.001000,0.001000,0.001000
1034.596154,-0.036850,0.001000,0.001000,0.001000,0.001000,0.001000
1034.615385,-0.036069,0.001000,0.001000,0.001000,0.001000,0.001000
1034.634615,-0.035270,0.001000,0.001000,0.001000,0.001000,0.001000
1034.653846,-0.034452,0.001000,0.001000,0.001000,0.001000,0.001000
1034.673077,-0.033616,0.001000,0.001000,0.001000,0.001000,0.001000
1034.692308,-0.032763,0.001000,0.001000,0.001000,0.001000,0.001000
