timestamp,ax,ay,az,gx,gy,gz
1000.000000,0.000000,0.001000,0.001000,0.001000,0.001000,0.001000
1000.019231,0.001160,0.001000,0.001000,0.001000,0.001000,0.001000
1000.038462,0.002319,0.001000,0.001000,0.001000,0.001000,0.001000
1000.057692,0.003476,0.001000,0.001000,0.001000,0.001000,0.001000
1000.076923,0.004632,0.001000,0.001000,0.001000,0.001000,0.001000
1000.096154,0.005786,0.001000,0.001000,0.001000,0.001000,0.001000
1000.115385,0.006936,0.001000,0.001000,0.001000,0.001000,0.001000
1000.134615,0.008083,0.001000,0.001000,0.001000,0.001000,0.001000
1000.153846,0.009225,0.001000,0.001000,0.001000,0.001000,0.001000
1000.173077,0.010362,0.001000,0.001000,0.001000,0.001000,0.001000
1000.192308,0.011494,0.001000,0.001000,0.001000,0.001000,0.001000
1000.211538,0.012619,0.001000,0.001000,0.001000,0.001000,0.001000
1000.230769,0.013738,0.001000,0.001000,0.001000,0.001000,0.001000
1000.250000,0.014849,0.001000,0.001000,0.001000,0.001000,0.001000
1000.269231,0.015953,0.001000,0.001000,0.001000,0.001000,0.001000
1000.288462,0.017047,0.001000,0.001000,0.001000,0.001000,0.001000
1000.307692,0.018133,0.001000,0.001000,0.001000,0.001000,0.001000
1000.326923,0.019209,0.001000,0.001000,0.001000,0.001000,0.001000
1000.346154,0.020274,0.001000,0.001000,0.001000,0.001000,0.001000
1000.365385,0.021329,0.001000,0.001000,0.001000,0.001000,0.001000
1000.384615,0.022372,0.001000,0.001000,0.001000,0.001000,0.001000
1000.403846,0.023403,0.001000,0.001000,0.001000,0.001000,0.001000
1000.423077,0.024421,0.001000,0.001000,0.001000,0.001000,0.001000
1000.442308,0.025427,0.001000,0.001000,0.001000,0.001000,0.001000
1000.461538,0.026418,0.001000,0.001000,0.001000,0.001000,0.001000
1000.480769,0.027396,0.001000,0.001000,0.001000,0.001000,0.001000
1000.500000,0.028359,0.001000,0.001000,0.001000,0.001000,0.001000
1000.519231,0.029306,0.001000,0.001000,0.001000,0.001000,0.001000
1000.538462,0.030238,0.001000,0.001000,0.001000,0.001000,0.001000
1000.557692,0.031153,0.001000,0.001000,0.001000,0.001000,0.001000
1000.576923,0.032052,0.001000,0.001000,0.001000,0.001000,0.001000
1000.596154,0.032933,0.001000,0.001000,0.001000,0.001000,0.001000
1000.615385,0.033797,0.001000,0.001000,0.001000,0.001000,0.001000
1000.634615,0.034642,0.001000,0.001000,0.001000,0.001000,0.001000
1000.653846,0.035469,0.001000,0.001000,0.001000,0.001000,0.001000
1000.673077,0.036277,0.001000,0.001000,0.001000,0.001000,0.001000
1000.692308,0.037065,0.001000,0.001000,0.001000,0.001000,0.001000
1000.711538,0.037834,0.001000,0.001000,0.001000,0.001000,0.001000
1000.730769,0.038582,0.001000,0.001000,0.001000,0.001000,0.001000
1000.750000,0.039309,0.001000,0.001000,0.001000,0.001000,0.001000
1000.769231,0.040015,0.001000,0.001000,0.001000,0.001000,0.001000
1000.788462,0.040700,0.001000,0.001000,0.001000,0.001000,0.001000
1000.807692,0.041362,0.001000,0.001000,0.001000,0.001000,0.001000
1000.826923,0.042003,0.001000,0.001000,0.001000,0.001000,0.001000
1000.846154,0.042620,0.001000,0.001000,0.001000,0.001000,0.001000
1000.865385,0.043215,0.001000,0.001000,0.001000,0.001000,0.001000
1000.884615,0.043787,0.001000,0.001000,0.001000,0.001000,0.001000
1000.903846,0.044335,0.001000,0.001000,0.001000,0.001000,0.001000
1000.923077,0.044859,0.001000,0.001000,0.001000,0.001000,0.001000
1000.942308,0.045359,0.001000,0.001000,0.001000,0.001000,0.001000
1000.961538,0.045835,0.001000,0.001000,0.001000,0.001000,0.001000
1000.980769,0.046286,0.001000,0.001000,0.001000,0.001000,0.001000
1001.000000,0.046712,0.001000,0.001000,0.001000,0.001000,0.001000
1001.019231,0.047113,0.001000,0.001000,0.001000,0.001000,0.001000
1001.038462,0.047489,0.001000,0.001000,0.001000,0.001000,0.001000
1001.057692,0.047839,0.001000,0.001000,0.001000,0.001000,0.001000
1001.076923,0.048163,0.001000,0.001000,0.001000,0.001000,0.001000
1001.096154,0.048462,0.001000,0.001000,0.001000,0.001000,0.001000
1001.115385,0.048734,0.001000,0.001000,0.001000,0.001000,0.001000
1001.134615,0.048980,0.001000,0.001000,0.001000,0.001000,0.001000
1001.153846,0.049200,0.001000,0.001000,0.001000,0.001000,0.001000
1001.173077,0.049394,0.001000,0.001000,0.001000,0.001000,0.001000
1001.192308,0.049560,0.001000,0.001000,0.001000,0.001000,0.001000
1001.211538,0.049700,0.001000,0.001000,0.001000,0.001000,0.001000
1001.230769,0.049814,0.001000,0.001000,0.001000,0.001000,0.001000
1001.250000,0.049900,0.001000,0.001000,0.001000,0.001000,0.001000
1001.269231,0.049960,0.001000,0.001000,0.001000,0.001000,0.001000
1001.288462,0.049993,0.001000,0.001000,0.001000,0.001000,0.001000
1001.307692,0.049999,0.001000,0.001000,0.001000,0.001000,0.001000
1001.326923,0.049978,0.001000,0.001000,0.001000,0.001000,0.001000
1001.346154,0.049930,0.001000,0.001000,0.001000,0.001000,0.001000
1001.365385,0.049856,0.001000,0.001000,0.001000,0.001000,0.001000
1001.384615,0.049754,0.001000,0.001000,0.001000,0.001000,0.001000
1001.403846,0.049626,0.001000,0.001000,0.001000,0.001000,0.001000
1001.423077,0.049471,0.001000,0.001000,0.001000,0.001000,0.001000
1001.442308,0.049289,0.001000,0.001000,0.001000,0.001000,0.001000
1001.461538,0.049081,0.001000,0.001000,0.001000,0.001000,0.001000
1001.480769,0.048847,0.001000,0.001000,0.001000,0.001000,0.001000
1001.500000,0.048586,0.001000,0.001000,0.001000,0.001000,0.001000
1001.519231,0.048299,0.001000,0.001000,0.001000,0.001000,0.001000
1001.538462,0.047986,0.001000,0.001000,0.001000,0.001000,0.001000
1001.557692,0.047647,0.001000,0.001000,0.001000,0.001000,0.001000
1001.576923,0.047283,0.001000,0.001000,0.001000,0.001000,0.001000
1001.596154,0.046893,0.001000,0.001000,0.001000,0.001000,0.001000
1001.615385,0.046478,0.001000,0.001000,0.001000,0.001000,0.001000
1001.634615,0.046038,0.001000,0.001000,0.001000,0.001000,0.001000
1001.653846,0.045573,0.001000,0.001000,0.001000,0.001000,0.001000
1001.673077,0.045084,0.001000,0.001000,0.001000,0.001000,0.001000
1001.692308,0.044570,0.001000,0.001000,0.001000,0.001000,0.001000
1001.711538,0.044033,0.001000,0.001000,0.001000,0.001000,0.001000
1001.730769,0.043472,0.001000,0.001000,0.001000,0.001000,0.001000
1001.750000,0.042887,0.001000,0.001000,0.001000,0.001000,0.001000
1001.769231,0.042279,0.001000,0.001000,0.001000,0.001000,0.001000
1001.788462,0.041649,0.001000,0.001000,0.001000,0.001000,0.001000
1001.807692,0.040996,0.001000,0.001000,0.001000,0.001000,0.001000
1001.826923,0.040321,0.001000,0.001000,0.001000,0.001000,0.001000
1001.846154,0.039625,0.001000,0.001000,0.001000,0.001000,0.001000
1001.865385,0.038907,0.001000,0.001000,0.001000,0.001000,0.001000
1001.884615,0.038168,0.001000,0.001000,0.001000,0.001000,0.001000
1001.903846,0.037408,0.001000,0.001000,0.001000,0.001000,0.001000
1001.923077,0.036629,0.001000,0.001000,0.001000,0.001000,0.001000
1001.942308,0.035830,0.001000,0.001000,0.001000,0.001000,0.001000
1001.961538,0.035011,0.001000,0.001000,0.001000,0.001000,0.001000
1001.980769,0.034174,0.001000,0.001000,0.001000,0.001000,0.001000
1002.000000,0.033318,0.001000,0.001000,0.001000,0.001000,0.001000
1002.019231,0.032445,0.001000,0.001000,0.001000,0.001000,0.001000
1002.038462,0.031554,0.001000,0.001000,0.001000,0.001000,0.001000
1002.057692,0.030646,0.001000,0.001000,0.001000,0.001000,0.001000
1002.076923,0.029721,0.001000,0.001000,0.001000,0.001000,0.001000
1002.096154,0.028781,0.001000,0.001000,0.001000,0.001000,0.001000
1002.115385,0.027825,0.001000,0.001000,0.001000,0.001000,0.001000
1002.134615,0.026854,0.001000,0.001000,0.001000,0.001000,0.001000
1002.153846,0.025868,0.001000,0.001000,0.001000,0.001000,0.001000
1002.173077,0.024869,0.001000,0.001000,0.001000,0.001000,0.001000
1002.192308,0.023856,0.001000,0.001000,0.001000,0.001000,0.001000
1002.211538,0.022831,0.001000,0.001000,0.001000,0.001000,0.001000
1002.230769,0.021793,0.001000,0.001000,0.001000,0.001000,0.001000
1002.250000,0.020743,0.001000,0.001000,0.001000,0.001000,0.001000
1002.269231,0.019682,0.001000,0.001000,0.001000,0.001000,0.001000
1002.288462,0.018611,0.001000,0.001000,0.001000,0.001000,0.001000
1002.307692,0.017530,0.001000,0.001000,0.001000,0.001000,0.001000
1002.326923,0.016439,0.001000,0.001000,0.001000,0.001000,0.001000
1002.346154,0.015339,0.001000,0.001000,0.001000,0.001000,0.001000
1002.365385,0.014232,0.001000,0.001000,0.001000,0.001000,0.001000
1002.384615,0.013116,0.001000,0.001000,0.001000,0.001000,0.001000
1002.403846,0.011994,0.001000,0.001000,0.001000,0.001000,0.001000
1002.423077,0.010865,0.001000,0.001000,0.001000,0.001000,0.001000
1002.442308,0.009730,0.001000,0.001000,0.001000,0.001000,0.001000
1002.461538,0.008590,0.001000,0.001000,0.001000,0.001000,0.001000
1002.480769,0.007445,0.001000,0.001000,0.001000,0.001000,0.001000
1002.500000,0.006296,0.001000,0.001000,0.001000,0.001000,0.001000
1002.519231,0.005144,0.001000,0.001000,0.001000,0.001000,0.001000
1002.538462,0.003989,0.001000,0.001000,0.001000,0.001000,0.001000
1002.557692,0.002832,0.001000,0.001000,0.001000,0.001000,0.001000
1002.576923,0.001674,0.001000,0.001000,0.001000,0.001000,0.001000
1002.596154,0.000514,0.001000,0.001000,0.001000,0.001000,0.001000
1002.615385,-0.000646,0.001000,0.001000,0.001000,0.001000,0.001000
1002.634615,-0.001805,0.001000,0.001000,0.001000,0.001000,0.001000
1002.653846,-0.002963,0.001000,0.001000,0.001000,0.001000,0.001000
1002.673077,-0.004120,0.001000,0.001000,0.001000,0.001000,0.001000
1002.692308,-0.005275,0.001000,0.001000,0.001000,0.001000,0.001000
1002.711538,-0.006426,0.001000,0.001000,0.001000,0.001000,0.001000
1002.730769,-0.007575,0.001000,0.001000,0.001000,0.001000,0.001000
1002.750000,-0.008719,0.001000,0.001000,0.001000,0.001000,0.001000
1002.769231,-0.009858,0.001000,0.001000,0.001000,0.001000,0.001000
1002.788462,-0.010993,0.001000,0.001000,0.001000,0.001000,0.001000
1002.807692,-0.012121,0.001000,0.001000,0.001000,0.001000,0.001000
1002.826923,-0.013243,0.001000,0.001000,0.001000,0.001000,0.001000
1002.846154,-0.014357,0.001000,0.001000,0.001000,0.001000,0.001000
1002.865385,-0.015464,0.001000,0.001000,0.001000,0.001000,0.001000
1002.884615,-0.016563,0.001000,0.001000,0.001000,0.001000,0.001000
1002.903846,-0.017653,0.001000,0.001000,0.001000,0.001000,0.001000
1002.923077,-0.018733,0.001000,0.001000,0.001000,0.001000,0.001000
1002.942308,-0.019803,0.001000,0.001000,0.001000,0.001000,0.001000
1002.961538,-0.020863,0.001000,0.001000,0.001000,0.001000,0.001000
1002.980769,-0.021911,0.001000,0.001000,0.001000,0.001000,0.001000
1003.000000,-0.022947,0.001000,0.001000,0.001000,0.001000,0.001000
1003.019231,-0.023971,0.001000,0.001000,0.001000,0.001000,0.001000
1003.038462,-0.024983,0.001000,0.001000,0.001000,0.001000,0.001000
1003.057692,-0.025980,0.001000,0.001000,0.001000,0.001000,0.001000
1003.076923,-0.026964,0.001000,0.001000,0.001000,0.001000,0.001000
1003.096154,-0.027934,0.001000,0.001000,0.001000,0.001000,0.001000
1003.115385,-0.028888,0.001000,0.001000,0.001000,0.001000,0.001000
1003.134615,-0.029827,0.001000,0.001000,0.001000,0.001000,0.001000
1003.153846,-0.030749,0.001000,0.001000,0.001000,0.001000,0.001000
1003.173077,-0.031655,0.001000,0.001000,0.001000,0.001000,0.001000
1003.192308,-0.032545,0.001000,0.001000,0.001000,0.001000,0.001000
1003.211538,-0.033416,0.001000,0.001000,0.001000,0.001000,0.001000
1003.230769,-0.034270,0.001000,0.001000,0.001000,0.001000,0.001000
1003.250000,-0.035105,0.001000,0.001000,0.001000,0.001000,0.001000
1003.269231,-0.035921,0.001000,0.001000,0.001000,0.001000,0.001000
1003.288462,-0.036718,0.001000,0.001000,0.001000,0.001000,0.001000
1003.307692,-0.037496,0.001000,0.001000,0.001000,0.001000,0.001000
1003.326923,-0.038253,0.001000,0.001000,0.001000,0.001000,0.001000
1003.346154,-0.038989,0.001000,0.001000,0.001000,0.001000,0.001000
1003.365385,-0.039705,0.001000,0.001000,0.001000,0.001000,0.001000
1003.384615,-0.040399,0.001000,0.001000,0.001000,0.001000,0.001000
1003.403846,-0.041071,0.001000,0.001000,0.001000,0.001000,0.001000
1003.423077,-0.041721,0.001000,0.001000,0.001000,0.001000,0.001000
1003.442308,-0.042349,0.001000,0.001000,0.001000,0.001000,0.001000
1003.461538,-0.042954,0.001000,0.001000,0.001000,0.001000,0.001000
1003.480769,-0.043536,0.001000,0.001000,0.001000,0.001000,0.001000
1003.500000,-0.044095,0.001000,0.001000,0.001000,0.001000,0.001000
1003.519231,-0.044630,0.001000,0.001000,0.001000,0.001000,0.001000
1003.538462,-0.045141,0.001000,0.001000,0.001000,0.001000,0.001000
1003.557692,-0.045627,0.001000,0.001000,0.001000,0.001000,0.001000
1003.576923,-0.046089,0.001000,0.001000,0.001000,0.001000,0.001000
1003.596154,-0.046526,0.001000,0.001000,0.001000,0.001000,0.001000
1003.615385,-0.046939,0.001000,0.001000,0.001000,0.001000,0.001000
1003.634615,-0.047325,0.001000,0.001000,0.001000,0.001000,0.001000
1003.653846,-0.047687,0.001000,0.001000,0.001000,0.001000,0.001000
1003.673077,-0.048023,0.001000,0.001000,0.001000,0.001000,0.001000
1003.692308,-0.048333,0.001000,0.001000,0.001000,0.001000,0.001000
1003.711538,-0.048617,0.001000,0.001000,0.001000,0.001000,0.001000
1003.730769,-0.048874,0.001000,0.001000,0.001000,0.001000,0.001000
1003.750000,-0.049106,0.001000,0.001000,0.001000,0.001000,0.001000
1003.769231,-0.049311,0.001000,0.001000,0.001000,0.001000,0.001000
1003.788462,-0.049490,0.001000,0.001000,0.001000,0.001000,0.001000
1003.807692,-0.049642,0.001000,0.001000,0.001000,0.001000,0.001000
1003.826923,-0.049767,0.001000,0.001000,0.001000,0.001000,0.001000
1003.846154,-0.049865,0.001000,0.001000,0.001000,0.001000,0.001000
1003.865385,-0.049937,0.001000,0.001000,0.001000,0.001000,0.001000
1003.884615,-0.049982,0.001000,0.001000,0.001000,0.001000,0.001000
1003.903846,-0.050000,0.001000,0.001000,0.001000,0.001000,0.001000
1003.923077,-0.049991,0.001000,0.001000,0.001000,0.001000,0.001000
1003.942308,-0.049955,0.001000,0.001000,0.001000,0.001000,0.001000
1003.961538,-0.049892,0.001000,0.001000,0.001000,0.001000,0.001000
1003.980769,-0.049802,0.001000,0.001000,0.001000,0.001000,0.001000
1004.000000,-0.049686,0.001000,0.001000,0.001000,0.001000,0.001000
1004.019231,-0.049543,0.001000,0.001000,0.001000,0.001000,0.001000
1004.038462,-0.049373,0.001000,0.001000,0.001000,0.001000,0.001000
1004.057692,-0.049177,0.001000,0.001000,0.001000,0.001000,0.001000
1004.076923,-0.048954,0.001000,0.001000,0.001000,0.001000,0.001000
1004.096154,-0.048705,0.001000,0.001000,0.001000,0.001000,0.001000
1004.115385,-0.048429,0.001000,0.001000,0.001000,0.001000,0.001000
1004.134615,-0.048128,0.001000,0.001000,0.001000,0.001000,0.001000
1004.153846,-0.047801,0.001000,0.001000,0.001000,0.001000,0.001000
1004.173077,-0.047448,0.001000,0.001000,0.001000,0.001000,0.001000
1004.192308,-0.047069,0.001000,0.001000,0.001000,0.001000,0.001000
1004.211538,-0.046665,0.001000,0.001000,0.001000,0.001000,0.001000
1004.230769,-0.046236,0.001000,0.001000,0.001000,0.001000,0.001000
1004.250000,-0.045782,0.001000,0.001000,0.001000,0.001000,0.001000
1004.269231,-0.045304,0.001000,0.001000,0.001000,0.001000,0.001000
1004.288462,-0.044801,0.001000,0.001000,0.001000,0.001000,0.001000
1004.307692,-0.044274,0.001000,0.001000,0.001000,0.001000,0.001000
1004.326923,-0.043723,0.001000,0.001000,0.001000,0.001000,0.001000
1004.346154,-0.043149,0.001000,0.001000,0.001000,0.001000,0.001000
1004.365385,-0.042552,0.001000,0.001000,0.001000,0.001000,0.001000
1004.384615,-0.041931,0.001000,0.001000,0.001000,0.001000,0.001000
1004.403846,-0.041288,0.001000,0.001000,0.001000,0.001000,0.001000
1004.423077,-0.040623,0.001000,0.001000,0.001000,0.001000,0.001000
1004.442308,-0.039936,0.001000,0.001000,0.001000,0.001000,0.001000
1004.461538,-0.039228,0.001000,0.001000,0.001000,0.001000,0.001000
1004.480769,-0.038498,0.001000,0.001000,0.001000,0.001000,0.001000
1004.500000,-0.037748,0.001000,0.001000,0.001000,0.001000,0.001000
1004.519231,-0.036977,0.001000,0.001000,0.001000,0.001000,0.001000
1004.538462,-0.036187,0.001000,0.001000,0.001000,0.001000,0.001000
1004.557692,-0.035377,0.001000,0.001000,0.001000,0.001000,0.001000
1004.576923,-0.034548,0.001000,0.001000,0.001000,0.001000,0.001000
1004.596154,-0.033700,0.001000,0.001000,0.001000,0.001000,0.001000
1004.615385,-0.032834,0.001000,0.001000,0.001000,0.001000,0.001000
1004.634615,-0.031951,0.001000,0.001000,0.001000,0.001000,0.001000
1004.653846,-0.031050,0.001000,0.001000,0.001000,0.001000,0.001000
1004.673077,-0.030133,0.001000,0.001000,0.001000,0.001000,0.001000
1004.692308,-0.029199,0.001000,0.001000,0.001000,0.001000,0.001000
1004.711538,-0.028250,0.001000,0.001000,0.001000,0.001000,0.001000
1004.730769,-0.027286,0.001000,0.001000,0.001000,0.001000,0.001000
1004.750000,-0.026307,0.001000,0.001000,0.001000,0.001000,0.001000
1004.769231,-0.025314,0.001000,0.001000,0.001000,0.001000,0.001000
1004.788462,-0.024307,0.001000,0.001000,0.001000,0.001000,0.001000
1004.807692,-0.023287,0.001000,0.001000,0.001000,0.001000,0.001000
1004.826923,-0.022254,0.001000,0.001000,0.001000,0.001000,0.001000
1004.846154,-0.021210,0.001000,0.001000,0.001000,0.001000,0.001000
1004.865385,-0.020154,0.001000,0.001000,0.001000,0.001000,0.001000
1004.884615,-0.019087,0.001000,0.001000,0.001000,0.001000,0.001000
1004.903846,-0.018010,0.001000,0.001000,0.001000,0.001000,0.001000
1004.923077,-0.016924,0.001000,0.001000,0.001000,0.001000,0.001000
1004.942308,-0.015828,0.001000,0.001000,0.001000,0.001000,0.001000
1004.961538,-0.014724,0.001000,0.001000,0.001000,0.001000,0.001000
1004.980769,-0.013612,0.001000,0.001000,0.001000,0.001000,0.001000
1005.000000,-0.012492,0.001000,0.001000,0.001000,0.001000,0.001000
1005.019231,-0.011366,0.001000,0.001000,0.001000,0.001000,0.001000
1005.038462,-0.010234,0.001000,0.001000,0.001000,0.001000,0.001000
1005.057692,-0.009096,0.001000,0.001000,0.001000,0.001000,0.001000
1005.076923,-0.007953,0.001000,0.001000,0.001000,0.001000,0.001000
1005.096154,-0.006806,0.001000,0.001000,0.001000,0.001000,0.001000
1005.115385,-0.005655,0.001000,0.001000,0.001000,0.001000,0.001000
1005.134615,-0.004502,0.001000,0.001000,0.001000,0.001000,0.001000
1005.153846,-0.003345,0.001000,0.001000,0.001000,0.001000,0.001000
1005.173077,-0.002187,0.001000,0.001000,0.001000,0.001000,0.001000
1005.192308,-0.001028,0.001000,0.001000,0.001000,0.001000,0.001000
1005.211538,0.000131,0.001000,0.001000,0.001000,0.001000,0.001000
1005.230769,0.001291,0.001000,0.001000,0.001000,0.001000,0.001000
1005.250000,0.002450,0.001000,0.001000,0.001000,0.001000,0.001000
1005.269231,0.003607,0.001000,0.001000,0.001000,0.001000,0.001000
1005.288462,0.004763,0.001000,0.001000,0.001000,0.001000,0.001000
1005.307692,0.005916,0.001000,0.001000,0.001000,0.001000,0.001000
1005.326923,0.007066,0.001000,0.001000,0.001000,0.001000,0.001000
1005.346154,0.008212,0.001000,0.001000,0.001000,0.001000,0.001000
1005.365385,0.009354,0.001000,0.001000,0.001000,0.001000,0.001000
1005.384615,0.010491,0.001000,0.001000,0.001000,0.001000,0.001000
1005.403846,0.011622,0.001000,0.001000,0.001000,0.001000,0.001000
1005.423077,0.012746,0.001000,0.001000,0.001000,0.001000,0.001000
1005.442308,0.013864,0.001000,0.001000,0.001000,0.001000,0.001000
1005.461538,0.014975,0.001000,0.001000,0.001000,0.001000,0.001000
1005.480769,0.016077,0.001000,0.001000,0.001000,0.001000,0.001000
1005.500000,0.017171,0.001000,0.001000,0.001000,0.001000,0.001000
1005.519231,0.018255,0.001000,0.001000,0.001000,0.001000,0.001000
1005.538462,0.019330,0.001000,0.001000,0.001000,0.001000,0.001000
1005.557692,0.020394,0.001000,0.001000,0.001000,0.001000,0.001000
1005.576923,0.021447,0.001000,0.001000,0.001000,0.001000,0.001000
1005.596154,0.022489,0.001000,0.001000,0.001000,0.001000,0.001000
1005.615385,0.023519,0.001000,0.001000,0.001000,0.001000,0.001000
1005.634615,0.024536,0.001000,0.001000,0.001000,0.001000,0.001000
1005.653846,0.025540,0.001000,0.001000,0.001000,0.001000,0.001000
1005.673077,0.026530,0.001000,0.001000,0.001000,0.001000,0.001000
1005.692308,0.027506,0.001000,0.001000,0.001000,0.001000,0.001000
1005.711538,0.028467,0.001000,0.001000,0.001000,0.001000,0.001000
1005.730769,0.029412,0.001000,0.001000,0.001000,0.001000,0.001000
1005.750000,0.030342,0.001000,0.001000,0.001000,0.001000,0.001000
1005.769231,0.031256,0.001000,0.001000,0.001000,0.001000,0.001000
1005.788462,0.032152,0.001000,0.001000,0.001000,0.001000,0.001000
1005.807692,0.033032,0.001000,0.001000,0.001000,0.001000,0.001000
1005.826923,0.033894,0.001000,0.001000,0.001000,0.001000,0.001000
1005.846154,0.034737,0.001000,0.001000,0.001000,0.001000,0.001000
1005.865385,0.035562,0.001000,0.001000,0.001000,0.001000,0.001000
1005.884615,0.036367,0.001000,0.001000,0.001000,0.001000,0.001000
1005.903846,0.037153,0.001000,0.001000,0.001000,0.001000,0.001000
1005.923077,0.037919,0.001000,0.001000,0.001000,0.001000,0.001000
1005.942308,0.038665,0.001000,0.001000,0.001000,0.001000,0.001000
1005.961538,0.039390,0.001000,0.001000,0.001000,0.001000,0.001000
1005.980769,0.040094,0.001000,0.001000,0.001000,0.001000,0.001000
1006.000000,0.040776,0.001000,0.001000,0.001000,0.001000,0.001000
1006.019231,0.041436,0.001000,0.001000,0.001000,0.001000,0.001000
1006.038462,0.042074,0.001000,0.001000,0.001000,0.001000,0.001000
1006.057692,0.042689,0.001000,0.001000,0.001000,0.001000,0.001000
1006.076923,0.043281,0.001000,0.001000,0.001000,0.001000,0.001000
1006.096154,0.043850,0.001000,0.001000,0.001000,0.001000,0.001000
1006.115385,0.044396,0.001000,0.001000,0.001000,0.001000,0.001000
1006.134615,0.044917,0.001000,0.001000,0.001000,0.001000,0.001000
1006.153846,0.045414,0.001000,0.001000,0.001000,0.001000,0.001000
1006.173077,0.045887,0.001000,0.001000,0.001000,0.001000,0.001000
1006.192308,0.046336,0.001000,0.001000,0.001000,0.001000,0.001000
1006.211538,0.046759,0.001000,0.001000,0.001000,0.001000,0.001000
1006.230769,0.047157,0.001000,0.001000,0.001000,0.001000,0.001000
1006.250000,0.047530,0.001000,0.001000,0.001000,0.001000,0.001000
1006.269231,0.047877,0.001000,0.001000,0.001000,0.001000,0.001000
1006.288462,0.048198,0.001000,0.001000,0.001000,0.001000,0.001000
1006.307692,0.048494,0.001000,0.001000,0.001000,0.001000,0.001000
1006.326923,0.048763,0.001000,0.001000,0.001000,0.001000,0.001000
1006.346154,0.049007,0.001000,0.001000,0.001000,0.001000,0.001000
1006.365385,0.049223,0.001000,0.001000,0.001000,0.001000,0.001000
1006.384615,0.049414,0.001000,0.001000,0.001000,0.001000,0.001000
1006.403846,0.049578,0.001000,0.001000,0.001000,0.001000,0.001000
1006.423077,0.049715,0.001000,0.001000,0.001000,0.001000,0.001000
1006.442308,0.049825,0.001000,0.001000,0.001000,0.001000,0.001000
1006.461538,0.049909,0.001000,0.001000,0.001000,0.001000,0.001000
1006.480769,0.049965,0.001000,0.001000,0.001000,0.001000,0.001000
1006.500000,0.049995,0.001000,0.001000,0.001000,0.001000,0.001000
1006.519231,0.049998,0.001000,0.001000,0.001000,0.001000,0.001000
1006.538462,0.049974,0.001000,0.001000,0.001000,0.001000,0.001000
1006.557692,0.049923,0.001000,0.001000,0.001000,0.001000,0.001000
1006.576923,0.049845,0.001000,0.001000,0.001000,0.001000,0.001000
1006.596154,0.049741,0.001000,0.001000,0.001000,0.001000,0.001000
1006.615385,0.049610,0.001000,0.001000,0.001000,0.001000,0.001000
1006.634615,0.049452,0.001000,0.001000,0.001000,0.001000,0.001000
1006.653846,0.049267,0.001000,0.001000,0.001000,0.001000,0.001000
1006.673077,0.049056,0.001000,0.001000,0.001000,0.001000,0.001000
1006.692308,0.048818,0.001000,0.001000,0.001000,0.001000,0.001000
1006.711538,0.048555,0.001000,0.001000,0.001000,0.001000,0.001000
1006.730769,0.048265,0.001000,0.001000,0.001000,0.001000,0.001000
1006.750000,0.047949,0.001000,0.001000,0.001000,0.001000,0.001000
1006.769231,0.047607,0.001000,0.001000,0.001000,0.001000,0.001000
1006.788462,0.047240,0.001000,0.001000,0.001000,0.001000,0.001000
1006.807692,0.046847,0.001000,0.001000,0.001000,0.001000,0.001000
1006.826923,0.046430,0.001000,0.001000,0.001000,0.001000,0.001000
1006.846154,0.045987,0.001000,0.001000,0.001000,0.001000,0.001000
1006.865385,0.045519,0.001000,0.001000,0.001000,0.001000,0.001000
1006.884615,0.045027,0.001000,0.001000,0.001000,0.001000,0.001000
1006.903846,0.044511,0.001000,0.001000,0.001000,0.001000,0.001000
1006.923077,0.043971,0.001000,0.001000,0.001000,0.001000,0.001000
1006.942308,0.043407,0.001000,0.001000,0.001000,0.001000,0.001000
1006.961538,0.042819,0.001000,0.001000,0.001000,0.001000,0.001000
1006.980769,0.042209,0.001000,0.001000,0.001000,0.001000,0.001000
1007.000000,0.041576,0.001000,0.001000,0.001000,0.001000,0.001000
1007.019231,0.040921,0.001000,0.001000,0.001000,0.001000,0.001000
1007.038462,0.040243,0.001000,0.001000,0.001000,0.001000,0.001000
1007.057692,0.039544,0.001000,0.001000,0.001000,0.001000,0.001000
1007.076923,0.038824,0.001000,0.001000,0.001000,0.001000,0.001000
1007.096154,0.038083,0.001000,0.001000,0.001000,0.001000,0.001000
1007.115385,0.037321,0.001000,0.001000,0.001000,0.001000,0.001000
1007.134615,0.036539,0.001000,0.001000,0.001000,0.001000,0.001000
1007.153846,0.035738,0.001000,0.001000,0.001000,0.001000,0.001000
1007.173077,0.034917,0.001000,0.001000,0.001000,0.001000,0.001000
1007.192308,0.034078,0.001000,0.001000,0.001000,0.001000,0.001000
1007.211538,0.033220,0.001000,0.001000,0.001000,0.001000,0.001000
1007.230769,0.032345,0.001000,0.001000,0.001000,0.001000,0.001000
1007.250000,0.031452,0.001000,0.001000,0.001000,0.001000,0.001000
1007.269231,0.030542,0.001000,0.001000,0.001000,0.001000,0.001000
1007.288462,0.029615,0.001000,0.001000,0.001000,0.001000,0.001000
1007.307692,0.028673,0.001000,0.001000,0.001000,0.001000,0.001000
1007.326923,0.027715,0.001000,0.001000,0.001000,0.001000,0.001000
1007.346154,0.026743,0.001000,0.001000,0.001000,0.001000,0.001000
1007.365385,0.025756,0.001000,0.001000,0.001000,0.001000,0.001000
1007.384615,0.024755,0.001000,0.001000,0.001000,0.001000,0.001000
1007.403846,0.023741,0.001000,0.001000,0.001000,0.001000,0.001000
1007.423077,0.022714,0.001000,0.001000,0.001000,0.001000,0.001000
1007.442308,0.021674,0.001000,0.001000,0.001000,0.001000,0.001000
1007.461538,0.020624,0.001000,0.001000,0.001000,0.001000,0.001000
1007.480769,0.019562,0.001000,0.001000,0.001000,0.001000,0.001000
1007.500000,0.018489,0.001000,0.001000,0.001000,0.001000,0.001000
1007.519231,0.017407,0.001000,0.001000,0.001000,0.001000,0.001000
1007.538462,0.016315,0.001000,0.001000,0.001000,0.001000,0.001000
1007.557692,0.015214,0.001000,0.001000,0.001000,0.001000,0.001000
1007.576923,0.014106,0.001000,0.001000,0.001000,0.001000,0.001000
1007.596154,0.012989,0.001000,0.001000,0.001000,0.001000,0.001000
1007.615385,0.011866,0.001000,0.001000,0.001000,0.001000,0.001000
1007.634615,0.010736,0.001000,0.001000,0.001000,0.001000,0.001000
1007.653846,0.009601,0.001000,0.001000,0.001000,0.001000,0.001000
1007.673077,0.008460,0.001000,0.001000,0.001000,0.001000,0.001000
1007.692308,0.007315,0.001000,0.001000,0.001000,0.001000,0.001000
1007.711538,0.006166,0.001000,0.001000,0.001000,0.001000,0.001000
1007.730769,0.005013,0.001000,0.001000,0.001000,0.001000,0.001000
1007.750000,0.003858,0.001000,0.001000,0.001000,0.001000,0.001000
1007.769231,0.002701,0.001000,0.001000,0.001000,0.001000,0.001000
1007.788462,0.001542,0.001000,0.001000,0.001000,0.001000,0.001000
1007.807692,0.000383,0.001000,0.001000,0.001000,0.001000,0.001000
1007.826923,-0.000777,0.001000,0.001000,0.001000,0.001000,0.001000
1007.846154,-0.001936,0.001000,0.001000,0.001000,0.001000,0.001000
1007.865385,-0.003094,0.001000,0.001000,0.001000,0.001000,0.001000
1007.884615,-0.004251,0.001000,0.001000,0.001000,0.001000,0.001000
1007.903846,-0.005405,0.001000,0.001000,0.001000,0.001000,0.001000
1007.923077,-0.006557,0.001000,0.001000,0.001000,0.001000,0.001000
1007.942308,-0.007705,0.001000,0.001000,0.001000,0.001000,0.001000
1007.961538,-0.008848,0.001000,0.001000,0.001000,0.001000,0.001000
1007.980769,-0.009987,0.001000,0.001000,0.001000,0.001000,0.001000
1008.000000,-0.011121,0.001000,0.001000,0.001000,0.001000,0.001000
1008.019231,-0.012248,0.001000,0.001000,0.001000,0.001000,0.001000
1008.038462,-0.013369,0.001000,0.001000,0.001000,0.001000,0.001000
1008.057692,-0.014483,0.001000,0.001000,0.001000,0.001000,0.001000
1008.076923,-0.015589,0.001000,0.001000,0.001000,0.001000,0.001000
1008.096154,-0.016687,0.001000,0.001000,0.001000,0.001000,0.001000
1008.115385,-0.017776,0.001000,0.001000,0.001000,0.001000,0.001000
1008.134615,-0.018855,0.001000,0.001000,0.001000,0.001000,0.001000
1008.153846,-0.019924,0.001000,0.001000,0.001000,0.001000,0.001000
1008.173077,-0.020982,0.001000,0.001000,0.001000,0.001000,0.001000
1008.192308,-0.022029,0.001000,0.001000,0.001000,0.001000,0.001000
1008.211538,-0.023064,0.001000,0.001000,0.001000,0.001000,0.001000
1008.230769,-0.024087,0.001000,0.001000,0.001000,0.001000,0.001000
1008.250000,-0.025096,0.001000,0.001000,0.001000,0.001000,0.001000
1008.269231,-0.026093,0.001000,0.001000,0.001000,0.001000,0.001000
1008.288462,-0.027075,0.001000,0.001000,0.001000,0.001000,0.001000
1008.307692,-0.028042,0.001000,0.001000,0.001000,0.001000,0.001000
1008.326923,-0.028995,0.001000,0.001000,0.001000,0.001000,0.001000
1008.346154,-0.029932,0.001000,0.001000,0.001000,0.001000,0.001000
1008.365385,-0.030853,0.001000,0.001000,0.001000,0.001000,0.001000
1008.384615,-0.031757,0.001000,0.001000,0.001000,0.001000,0.001000
1008.403846,-0.032644,0.001000,0.001000,0.001000,0.001000,0.001000
1008.423077,-0.033514,0.001000,0.001000,0.001000,0.001000,0.001000
1008.442308,-0.034365,0.001000,0.001000,0.001000,0.001000,0.001000
1008.461538,-0.035198,0.001000,0.001000,0.001000,0.001000,0.001000
1008.480769,-0.036013,0.001000,0.001000,0.001000,0.001000,0.001000
1008.500000,-0.036807,0.001000,0.001000,0.001000,0.001000,0.001000
1008.519231,-0.037582,0.001000,0.001000,0.001000,0.001000,0.001000
1008.538462,-0.038337,0.001000,0.001000,0.001000,0.001000,0.001000
1008.557692,-0.039071,0.001000,0.001000,0.001000,0.001000,0.001000
1008.576923,-0.039784,0.001000,0.001000,0.001000,0.001000,0.001000
1008.596154,-0.040476,0.001000,0.001000,0.001000,0.001000,0.001000
1008.615385,-0.041146,0.001000,0.001000,0.001000,0.001000,0.001000
1008.634615,-0.041794,0.001000,0.001000,0.001000,0.001000,0.001000
1008.653846,-0.042419,0.001000,0.001000,0.001000,0.001000,0.001000
1008.673077,-0.043021,0.001000,0.001000,0.001000,0.001000,0.001000
1008.692308,-0.043601,0.001000,0.001000,0.001000,0.001000,0.001000
1008.711538,-0.044157,0.001000,0.001000,0.001000,0.001000,0.001000
1008.730769,-0.044689,0.001000,0.001000,0.001000,0.001000,0.001000
1008.750000,-0.045197,0.001000,0.001000,0.001000,0.001000,0.001000
1008.769231,-0.045681,0.001000,0.001000,0.001000,0.001000,0.001000
1008.788462,-0.046140,0.001000,0.001000,0.001000,0.001000,0.001000
1008.807692,-0.046574,0.001000,0.001000,0.001000,0.001000,0.001000
1008.826923,-0.046984,0.001000,0.001000,0.001000,0.001000,0.001000
1008.846154,-0.047368,0.001000,0.001000,0.001000,0.001000,0.001000
1008.865385,-0.047726,0.001000,0.001000,0.001000,0.001000,0.001000
1008.884615,-0.048059,0.001000,0.001000,0.001000,0.001000,0.001000
1008.903846,-0.048366,0.001000,0.001000,0.001000,0.001000,0.001000
1008.923077,-0.048647,0.001000,0.001000,0.001000,0.001000,0.001000
1008.942308,-0.048902,0.001000,0.001000,0.001000,0.001000,0.001000
1008.961538,-0.049131,0.001000,0.001000,0.001000,0.001000,0.001000
1008.980769,-0.049333,0.001000,0.001000,0.001000,0.001000,0.001000
1009.000000,-0.049508,0.001000,0.001000,0.001000,0.001000,0.001000
1009.019231,-0.049657,0.001000,0.001000,0.001000,0.001000,0.001000
1009.038462,-0.049779,0.001000,0.001000,0.001000,0.001000,0.001000
1009.057692,-0.049875,0.001000,0.001000,0.001000,0.001000,0.001000
1009.076923,-0.049943,0.001000,0.001000,0.001000,0.001000,0.001000
1009.096154,-0.049985,0.001000,0.001000,0.001000,0.001000,0.001000
1009.115385,-0.050000,0.001000,0.001000,0.001000,0.001000,0.001000
1009.134615,-0.049988,0.001000,0.001000,0.001000,0.001000,0.001000
1009.153846,-0.049949,0.001000,0.001000,0.001000,0.001000,0.001000
1009.173077,-0.049883,0.001000,0.001000,0.001000,0.001000,0.001000
1009.192308,-0.049790,0.001000,0.001000,0.001000,0.001000,0.001000
1009.211538,-0.049671,0.001000,0.001000,0.001000,0.001000,0.001000
1009.230769,-0.049525,0.001000,0.001000,0.001000,0.001000,0.001000
1009.250000,-0.049352,0.001000,0.001000,0.001000,0.001000,0.001000
1009.269231,-0.049153,0.001000,0.001000,0.001000,0.001000,0.001000
1009.288462,-0.048927,0.001000,0.001000,0.001000,0.001000,0.001000
1009.307692,-0.048675,0.001000,0.001000,0.001000,0.001000,0.001000
1009.326923,-0.048396,0.001000,0.001000,0.001000,0.001000,0.001000
1009.346154,-0.048092,0.001000,0.001000,0.001000,0.001000,0.001000
1009.365385,-0.047762,0.001000,0.001000,0.001000,0.001000,0.001000
1009.384615,-0.047406,0.001000,0.001000,0.001000,0.001000,0.001000
1009.403846,-0.047025,0.001000,0.001000,0.001000,0.001000,0.001000
1009.423077,-0.046618,0.001000,0.001000,0.001000,0.001000,0.001000
1009.442308,-0.046186,0.001000,0.001000,0.001000,0.001000,0.001000
1009.461538,-0.045729,0.001000,0.001000,0.001000,0.001000,0.001000
1009.480769,-0.045248,0.001000,0.001000,0.001000,0.001000,0.001000
1009.500000,-0.044743,0.001000,0.001000,0.001000,0.001000,0.001000
1009.519231,-0.044213,0.001000,0.001000,0.001000,0.001000,0.001000
1009.538462,-0.043660,0.001000,0.001000,0.001000,0.001000,0.001000
1009.557692,-0.043083,0.001000,0.001000,0.001000,0.001000,0.001000
1009.576923,-0.042482,0.001000,0.001000,0.001000,0.001000,0.001000
1009.596154,-0.041860,0.001000,0.001000,0.001000,0.001000,0.001000
1009.615385,-0.041214,0.001000,0.001000,0.001000,0.001000,0.001000
1009.634615,-0.040546,0.001000,0.001000,0.001000,0.001000,0.001000
1009.653846,-0.039857,0.001000,0.001000,0.001000,0.001000,0.001000
1009.673077,-0.039146,0.001000,0.001000,0.001000,0.001000,0.001000
1009.692308,-0.038414,0.001000,0.001000,0.001000,0.001000,0.001000
1009.711538,-0.037661,0.001000,0.001000,0.001000,0.001000,0.001000
1009.730769,-0.036889,0.001000,0.001000,0.001000,0.001000,0.001000
1009.750000,-0.036096,0.001000,0.001000,0.001000,0.001000,0.001000
1009.769231,-0.035284,0.001000,0.001000,0.001000,0.001000,0.001000
1009.788462,-0.034453,0.001000,0.001000,0.001000,0.001000,0.001000
1009.807692,-0.033603,0.001000,0.001000,0.001000,0.001000,0.001000
1009.826923,-0.032735,0.001000,0.001000,0.001000,0.001000,0.001000
1009.846154,-0.031850,0.001000,0.001000,0.001000,0.001000,0.001000
1009.865385,-0.030947,0.001000,0.001000,0.001000,0.001000,0.001000
1009.884615,-0.030028,0.001000,0.001000,0.001000,0.001000,0.001000
1009.903846,-0.029093,0.001000,0.001000,0.001000,0.001000,0.001000
1009.923077,-0.028142,0.001000,0.001000,0.001000,0.001000,0.001000
1009.942308,-0.027176,0.001000,0.001000,0.001000,0.001000,0.001000
1009.961538,-0.026195,0.001000,0.001000,0.001000,0.001000,0.001000
1009.980769,-0.025200,0.001000,0.001000,0.001000,0.001000,0.001000
1010.000000,-0.024192,0.001000,0.001000,0.001000,0.001000,0.001000
1010.019231,-0.023170,0.001000,0.001000,0.001000,0.001000,0.001000
1010.038462,-0.022137,0.001000,0.001000,0.001000,0.001000,0.001000
1010.057692,-0.021091,0.001000,0.001000,0.001000,0.001000,0.001000
1010.076923,-0.020034,0.001000,0.001000,0.001000,0.001000,0.001000
1010.096154,-0.018966,0.001000,0.001000,0.001000,0.001000,0.001000
1010.115385,-0.017888,0.001000,0.001000,0.001000,0.001000,0.001000
1010.134615,-0.016800,0.001000,0.001000,0.001000,0.001000,0.001000
1010.153846,-0.015703,0.001000,0.001000,0.001000,0.001000,0.001000
1010.173077,-0.014598,0.001000,0.001000,0.001000,0.001000,0.001000
1010.192308,-0.013485,0.001000,0.001000,0.001000,0.001000,0.001000
1010.211538,-0.012365,0.001000,0.001000,0.001000,0.001000,0.001000
1010.230769,-0.011238,0.001000,0.001000,0.001000,0.001000,0.001000
1010.250000,-0.010105,0.001000,0.001000,0.001000,0.001000,0.001000
1010.269231,-0.008967,0.001000,0.001000,0.001000,0.001000,0.001000
1010.288462,-0.007823,0.001000,0.001000,0.001000,0.001000,0.001000
1010.307692,-0.006676,0.001000,0.001000,0.001000,0.001000,0.001000
1010.326923,-0.005525,0.001000,0.001000,0.001000,0.001000,0.001000
1010.346154,-0.004371,0.001000,0.001000,0.001000,0.001000,0.001000
1010.365385,-0.003214,0.001000,0.001000,0.001000,0.001000,0.001000
1010.384615,-0.002056,0.001000,0.001000,0.001000,0.001000,0.001000
1010.403846,-0.000897,0.001000,0.001000,0.001000,0.001000,0.001000
1010.423077,0.000263,0.001000,0.001000,0.001000,0.001000,0.001000
1010.442308,0.001422,0.001000,0.001000,0.001000,0.001000,0.001000
1010.461538,0.002581,0.001000,0.001000,0.001000,0.001000,0.001000
1010.480769,0.003738,0.001000,0.001000,0.001000,0.001000,0.001000
1010.500000,0.004894,0.001000,0.001000,0.001000,0.001000,0.001000
1010.519231,0.006047,0.001000,0.001000,0.001000,0.001000,0.001000
1010.538462,0.007196,0.001000,0.001000,0.001000,0.001000,0.001000
1010.557692,0.008342,0.001000,0.001000,0.001000,0.001000,0.001000
1010.576923,0.009483,0.001000,0.001000,0.001000,0.001000,0.001000
1010.596154,0.010619,0.001000,0.001000,0.001000,0.001000,0.001000
1010.615385,0.011749,0.001000,0.001000,0.001000,0.001000,0.001000
1010.634615,0.012873,0.001000,0.001000,0.001000,0.001000,0.001000
1010.653846,0.013990,0.001000,0.001000,0.001000,0.001000,0.001000
1010.673077,0.015100,0.001000,0.001000,0.001000,0.001000,0.001000
1010.692308,0.016201,0.001000,0.001000,0.001000,0.001000,0.001000
1010.711538,0.017294,0.001000,0.001000,0.001000,0.001000,0.001000
1010.730769,0.018377,0.001000,0.001000,0.001000,0.001000,0.001000
1010.750000,0.019451,0.001000,0.001000,0.001000,0.001000,0.001000
1010.769231,0.020514,0.001000,0.001000,0.001000,0.001000,0.001000
1010.788462,0.021566,0.001000,0.001000,0.001000,0.001000,0.001000
1010.807692,0.022606,0.001000,0.001000,0.001000,0.001000,0.001000
1010.826923,0.023635,0.001000,0.001000,0.001000,0.001000,0.001000
1010.846154,0.024650,0.001000,0.001000,0.001000,0.001000,0.001000
1010.865385,0.025653,0.001000,0.001000,0.001000,0.001000,0.001000
1010.884615,0.026641,0.001000,0.001000,0.001000,0.001000,0.001000
1010.903846,0.027615,0.001000,0.001000,0.001000,0.001000,0.001000
1010.923077,0.028574,0.001000,0.001000,0.001000,0.001000,0.001000
1010.942308,0.029518,0.001000,0.001000,0.001000,0.001000,0.001000
1010.961538,0.030446,0.001000,0.001000,0.001000,0.001000,0.001000
1010.980769,0.031358,0.001000,0.001000,0.001000,0.001000,0.001000
1011.000000,0.032253,0.001000,0.001000,0.001000,0.001000,0.001000
1011.019231,0.033130,0.001000,0.001000,0.001000,0.001000,0.001000
1011.038462,0.033990,0.001000,0.001000,0.001000,0.001000,0.001000
1011.057692,0.034831,0.001000,0.001000,0.001000,0.001000,0.001000
1011.076923,0.035654,0.001000,0.001000,0.001000,0.001000,0.001000
1011.096154,0.036457,0.001000,0.001000,0.001000,0.001000,0.001000
1011.115385,0.037241,0.001000,0.001000,0.001000,0.001000,0.001000
1011.134615,0.038005,0.001000,0.001000,0.001000,0.001000,0.001000
1011.153846,0.038748,0.001000,0.001000,0.001000,0.001000,0.001000
1011.173077,0.039471,0.001000,0.001000,0.001000,0.001000,0.001000
1011.192308,0.040172,0.001000,0.001000,0.001000,0.001000,0.001000
1011.211538,0.040852,0.001000,0.001000,0.001000,0.001000,0.001000
1011.230769,0.041509,0.001000,0.001000,0.001000,0.001000,0.001000
1011.250000,0.042145,0.001000,0.001000,0.001000,0.001000,0.001000
1011.269231,0.042757,0.001000,0.001000,0.001000,0.001000,0.001000
1011.288462,0.043347,0.001000,0.001000,0.001000,0.001000,0.001000
1011.307692,0.043913,0.001000,0.001000,0.001000,0.001000,0.001000
1011.326923,0.044456,0.001000,0.001000,0.001000,0.001000,0.001000
1011.346154,0.044975,0.001000,0.001000,0.001000,0.001000,0.001000
1011.365385,0.045469,0.001000,0.001000,0.001000,0.001000,0.001000
1011.384615,0.045939,0.001000,0.001000,0.001000,0.001000,0.001000
1011.403846,0.046385,0.001000,0.001000,0.001000,0.001000,0.001000
1011.423077,0.046805,0.001000,0.001000,0.001000,0.001000,0.001000
1011.442308,0.047201,0.001000,0.001000,0.001000,0.001000,0.001000
1011.461538,0.047570,0.001000,0.001000,0.001000,0.001000,0.001000
1011.480769,0.047915,0.001000,0.001000,0.001000,0.001000,0.001000
1011.500000,0.048233,0.001000,0.001000,0.001000,0.001000,0.001000
1011.519231,0.048526,0.001000,0.001000,0.001000,0.001000,0.001000
1011.538462,0.048792,0.001000,0.001000,0.001000,0.001000,0.001000
1011.557692,0.049032,0.001000,0.001000,0.001000,0.001000,0.001000
1011.576923,0.049246,0.001000,0.001000,0.001000,0.001000,0.001000
1011.596154,0.049434,0.001000,0.001000,0.001000,0.001000,0.001000
1011.615385,0.049594,0.001000,0.001000,0.001000,0.001000,0.001000
1011.634615,0.049728,0.001000,0.001000,0.001000,0.001000,0.001000
1011.653846,0.049836,0.001000,0.001000,0.001000,0.001000,0.001000
1011.673077,0.049916,0.001000,0.001000,0.001000,0.001000,0.001000
1011.692308,0.049970,0.001000,0.001000,0.001000,0.001000,0.001000
1011.711538,0.049997,0.001000,0.001000,0.001000,0.001000,0.001000
1011.730769,0.049997,0.001000,0.001000,0.001000,0.001000,0.001000
1011.750000,0.049970,0.001000,0.001000,0.001000,0.001000,0.001000
1011.769231,0.049916,0.001000,0.001000,0.001000,0.001000,0.001000
1011.788462,0.049835,0.001000,0.001000,0.001000,0.001000,0.001000
1011.807692,0.049727,0.001000,0.001000,0.001000,0.001000,0.001000
1011.826923,0.049593,0.001000,0.001000,0.001000,0.001000,0.001000
1011.846154,0.049432,0.001000,0.001000,0.001000,0.001000,0.001000
1011.865385,0.049244,0.001000,0.001000,0.001000,0.001000,0.001000
1011.884615,0.049030,0.001000,0.001000,0.001000,0.001000,0.001000
1011.903846,0.048790,0.001000,0.001000,0.001000,0.001000,0.001000
1011.923077,0.048523,0.001000,0.001000,0.001000,0.001000,0.001000
1011.942308,0.048230,0.001000,0.001000,0.001000,0.001000,0.001000
1011.961538,0.047912,0.001000,0.001000,0.001000,0.001000,0.001000
1011.980769,0.047567,0.001000,0.001000,0.001000,0.001000,0.001000
1012.000000,0.047197,0.001000,0.001000,0.001000,0.001000,0.001000
1012.019231,0.046801,0.001000,0.001000,0.001000,0.001000,0.001000
1012.038462,0.046381,0.001000,0.001000,0.001000,0.001000,0.001000
1012.057692,0.045935,0.001000,0.001000,0.001000,0.001000,0.001000
1012.076923,0.045465,0.001000,0.001000,0.001000,0.001000,0.001000
1012.096154,0.044970,0.001000,0.001000,0.001000,0.001000,0.001000
1012.115385,0.044451,0.001000,0.001000,0.001000,0.001000,0.001000
1012.134615,0.043908,0.001000,0.001000,0.001000,0.001000,0.001000
1012.153846,0.043341,0.001000,0.001000,0.001000,0.001000,0.001000
1012.173077,0.042751,0.001000,0.001000,0.001000,0.001000,0.001000
1012.192308,0.042139,0.001000,0.001000,0.001000,0.001000,0.001000
1012.211538,0.041503,0.001000,0.001000,0.001000,0.001000,0.001000
1012.230769,0.040845,0.001000,0.001000,0.001000,0.001000,0.001000
1012.250000,0.040165,0.001000,0.001000,0.001000,0.001000,0.001000
1012.269231,0.039464,0.001000,0.001000,0.001000,0.001000,0.001000
1012.288462,0.038741,0.001000,0.001000,0.001000,0.001000,0.001000
1012.307692,0.037998,0.001000,0.001000,0.001000,0.001000,0.001000
1012.326923,0.037234,0.001000,0.001000,0.001000,0.001000,0.001000
1012.346154,0.036450,0.001000,0.001000,0.001000,0.001000,0.001000
1012.365385,0.035646,0.001000,0.001000,0.001000,0.001000,0.001000
1012.384615,0.034823,0.001000,0.001000,0.001000,0.001000,0.001000
1012.403846,0.033982,0.001000,0.001000,0.001000,0.001000,0.001000
1012.423077,0.033122,0.001000,0.001000,0.001000,0.001000,0.001000
1012.442308,0.032244,0.001000,0.001000,0.001000,0.001000,0.001000
1012.461538,0.031349,0.001000,0.001000,0.001000,0.001000,0.001000
1012.480769,0.030438,0.001000,0.001000,0.001000,0.001000,0.001000
1012.500000,0.029509,0.001000,0.001000,0.001000,0.001000,0.001000
1012.519231,0.028565,0.001000,0.001000,0.001000,0.001000,0.001000
1012.538462,0.027606,0.001000,0.001000,0.001000,0.001000,0.001000
1012.557692,0.026632,0.001000,0.001000,0.001000,0.001000,0.001000
1012.576923,0.025643,0.001000,0.001000,0.001000,0.001000,0.001000
1012.596154,0.024641,0.001000,0.001000,0.001000,0.001000,0.001000
1012.615385,0.023625,0.001000,0.001000,0.001000,0.001000,0.001000
1012.634615,0.022597,0.001000,0.001000,0.001000,0.001000,0.001000
1012.653846,0.021556,0.001000,0.001000,0.001000,0.001000,0.001000
1012.673077,0.020504,0.001000,0.001000,0.001000,0.001000,0.001000
1012.692308,0.019441,0.001000,0.001000,0.001000,0.001000,0.001000
1012.711538,0.018367,0.001000,0.001000,0.001000,0.001000,0.001000
1012.730769,0.017284,0.001000,0.001000,0.001000,0.001000,0.001000
1012.750000,0.016191,0.001000,0.001000,0.001000,0.001000,0.001000
1012.769231,0.015089,0.001000,0.001000,0.001000,0.001000,0.001000
1012.788462,0.013980,0.001000,0.001000,0.001000,0.001000,0.001000
1012.807692,0.012862,0.001000,0.001000,0.001000,0.001000,0.001000
1012.826923,0.011738,0.001000,0.001000,0.001000,0.001000,0.001000
1012.846154,0.010608,0.001000,0.001000,0.001000,0.001000,0.001000
1012.865385,0.009472,0.001000,0.001000,0.001000,0.001000,0.001000
1012.884615,0.008331,0.001000,0.001000,0.001000,0.001000,0.001000
1012.903846,0.007185,0.001000,0.001000,0.001000,0.001000,0.001000
1012.923077,0.006035,0.001000,0.001000,0.001000,0.001000,0.001000
1012.942308,0.004883,0.001000,0.001000,0.001000,0.001000,0.001000
1012.961538,0.003727,0.001000,0.001000,0.001000,0.001000,0.001000
1012.980769,0.002570,0.001000,0.001000,0.001000,0.001000,0.001000
1013.000000,0.001411,0.001000,0.001000,0.001000,0.001000,0.001000
1013.019231,0.000252,0.001000,0.001000,0.001000,0.001000,0.001000
1013.038462,-0.000908,0.001000,0.001000,0.001000,0.001000,0.001000
1013.057692,-0.002067,0.001000,0.001000,0.001000,0.001000,0.001000
1013.076923,-0.003225,0.001000,0.001000,0.001000,0.001000,0.001000
1013.096154,-0.004382,0.001000,0.001000,0.001000,0.001000,0.001000
1013.115385,-0.005536,0.001000,0.001000,0.001000,0.001000,0.001000
1013.134615,-0.006687,0.001000,0.001000,0.001000,0.001000,0.001000
1013.153846,-0.007834,0.001000,0.001000,0.001000,0.001000,0.001000
1013.173077,-0.008977,0.001000,0.001000,0.001000,0.001000,0.001000
1013.192308,-0.010116,0.001000,0.001000,0.001000,0.001000,0.001000
1013.211538,-0.011249,0.001000,0.001000,0.001000,0.001000,0.001000
1013.230769,-0.012376,0.001000,0.001000,0.001000,0.001000,0.001000
1013.250000,-0.013496,0.001000,0.001000,0.001000,0.001000,0.001000
1013.269231,-0.014609,0.001000,0.001000,0.001000,0.001000,0.001000
1013.288462,-0.015714,0.001000,0.001000,0.001000,0.001000,0.001000
1013.307692,-0.016811,0.001000,0.001000,0.001000,0.001000,0.001000
1013.326923,-0.017898,0.001000,0.001000,0.001000,0.001000,0.001000
1013.346154,-0.018976,0.001000,0.001000,0.001000,0.001000,0.001000
1013.365385,-0.020044,0.001000,0.001000,0.001000,0.001000,0.001000
1013.384615,-0.021101,0.001000,0.001000,0.001000,0.001000,0.001000
1013.403846,-0.022147,0.001000,0.001000,0.001000,0.001000,0.001000
1013.423077,-0.023180,0.001000,0.001000,0.001000,0.001000,0.001000
1013.442308,-0.024202,0.001000,0.001000,0.001000,0.001000,0.001000
1013.461538,-0.025210,0.001000,0.001000,0.001000,0.001000,0.001000
1013.480769,-0.026205,0.001000,0.001000,0.001000,0.001000,0.001000
1013.500000,-0.027185,0.001000,0.001000,0.001000,0.001000,0.001000
1013.519231,-0.028151,0.001000,0.001000,0.001000,0.001000,0.001000
1013.538462,-0.029102,0.001000,0.001000,0.001000,0.001000,0.001000
1013.557692,-0.030037,0.001000,0.001000,0.001000,0.001000,0.001000
1013.576923,-0.030956,0.001000,0.001000,0.001000,0.001000,0.001000
1013.596154,-0.031858,0.001000,0.001000,0.001000,0.001000,0.001000
1013.615385,-0.032744,0.001000,0.001000,0.001000,0.001000,0.001000
1013.634615,-0.033611,0.001000,0.001000,0.001000,0.001000,0.001000
1013.653846,-0.034461,0.001000,0.001000,0.001000,0.001000,0.001000
1013.673077,-0.035292,0.001000,0.001000,0.001000,0.001000,0.001000
1013.692308,-0.036104,0.001000,0.001000,0.001000,0.001000,0.001000
1013.711538,-0.036896,0.001000,0.001000,0.001000,0.001000,0.001000
1013.730769,-0.037669,0.001000,0.001000,0.001000,0.001000,0.001000
1013.750000,-0.038421,0.001000,0.001000,0.001000,0.001000,0.001000
1013.769231,-0.039153,0.001000,0.001000,0.001000,0.001000,0.001000
1013.788462,-0.039864,0.001000,0.001000,0.001000,0.001000,0.001000
1013.807692,-0.040553,0.001000,0.001000,0.001000,0.001000,0.001000
1013.826923,-0.041220,0.001000,0.001000,0.001000,0.001000,0.001000
1013.846154,-0.041866,0.001000,0.001000,0.001000,0.001000,0.001000
1013.865385,-0.042488,0.001000,0.001000,0.001000,0.001000,0.001000
1013.884615,-0.043088,0.001000,0.001000,0.001000,0.001000,0.001000
1013.903846,-0.043665,0.001000,0.001000,0.001000,0.001000,0.001000
1013.923077,-0.044218,0.001000,0.001000,0.001000,0.001000,0.001000
1013.942308,-0.044748,0.001000,0.001000,0.001000,0.001000,0.001000
1013.961538,-0.045253,0.001000,0.001000,0.001000,0.001000,0.001000
1013.980769,-0.045734,0.001000,0.001000,0.001000,0.001000,0.001000
1014.000000,-0.046190,0.001000,0.001000,0.001000,0.001000,0.001000
1014.019231,-0.046622,0.001000,0.001000,0.001000,0.001000,0.001000
1014.038462,-0.047028,0.001000,0.001000,0.001000,0.001000,0.001000
1014.057692,-0.047410,0.001000,0.001000,0.001000,0.001000,0.001000
1014.076923,-0.047765,0.001000,0.001000,0.001000,0.001000,0.001000
1014.096154,-0.048095,0.001000,0.001000,0.001000,0.001000,0.001000
1014.115385,-0.048399,0.001000,0.001000,0.001000,0.001000,0.001000
1014.134615,-0.048677,0.001000,0.001000,0.001000,0.001000,0.001000
1014.153846,-0.048929,0.001000,0.001000,0.001000,0.001000,0.001000
1014.173077,-0.049155,0.001000,0.001000,0.001000,0.001000,0.001000
1014.192308,-0.049354,0.001000,0.001000,0.001000,0.001000,0.001000
1014.211538,-0.049526,0.001000,0.001000,0.001000,0.001000,0.001000
1014.230769,-0.049672,0.001000,0.001000,0.001000,0.001000,0.001000
1014.250000,-0.049792,0.001000,0.001000,0.001000,0.001000,0.001000
1014.269231,-0.049884,0.001000,0.001000,0.001000,0.001000,0.001000
1014.288462,-0.049949,0.001000,0.001000,0.001000,0.001000,0.001000
1014.307692,-0.049988,0.001000,0.001000,0.001000,0.001000,0.001000
1014.326923,-0.050000,0.001000,0.001000,0.001000,0.001000,0.001000
1014.346154,-0.049985,0.001000,0.001000,0.001000,0.001000,0.001000
1014.365385,-0.049943,0.001000,0.001000,0.001000,0.001000,0.001000
1014.384615,-0.049874,0.001000,0.001000,0.001000,0.001000,0.001000
1014.403846,-0.049778,0.001000,0.001000,0.001000,0.001000,0.001000
1014.423077,-0.049656,0.001000,0.001000,0.001000,0.001000,0.001000
1014.442308,-0.049507,0.001000,0.001000,0.001000,0.001000,0.001000
1014.461538,-0.049331,0.001000,0.001000,0.001000,0.001000,0.001000
1014.480769,-0.049128,0.001000,0.001000,0.001000,0.001000,0.001000
1014.500000,-0.048900,0.001000,0.001000,0.001000,0.001000,0.001000
1014.519231,-0.048645,0.001000,0.001000,0.001000,0.001000,0.001000
1014.538462,-0.048363,0.001000,0.001000,0.001000,0.001000,0.001000
1014.557692,-0.048056,0.001000,0.001000,0.001000,0.001000,0.001000
1014.576923,-0.047723,0.001000,0.001000,0.001000,0.001000,0.001000
1014.596154,-0.047364,0.001000,0.001000,0.001000,0.001000,0.001000
1014.615385,-0.046980,0.001000,0.001000,0.001000,0.001000,0.001000
1014.634615,-0.046570,0.001000,0.001000,0.001000,0.001000,0.001000
1014.653846,-0.046136,0.001000,0.001000,0.001000,0.001000,0.001000
1014.673077,-0.045676,0.001000,0.001000,0.001000,0.001000,0.001000
1014.692308,-0.045192,0.001000,0.001000,0.001000,0.001000,0.001000
1014.711538,-0.044684,0.001000,0.001000,0.001000,0.001000,0.001000
1014.730769,-0.044151,0.001000,0.001000,0.001000,0.001000,0.001000
1014.750000,-0.043595,0.001000,0.001000,0.001000,0.001000,0.001000
1014.769231,-0.043016,0.001000,0.001000,0.001000,0.001000,0.001000
1014.788462,-0.042413,0.001000,0.001000,0.001000,0.001000,0.001000
1014.807692,-0.041788,0.001000,0.001000,0.001000,0.001000,0.001000
1014.826923,-0.041140,0.001000,0.001000,0.001000,0.001000,0.001000
1014.846154,-0.040469,0.001000,0.001000,0.001000,0.001000,0.001000
1014.865385,-0.039778,0.001000,0.001000,0.001000,0.001000,0.001000
1014.884615,-0.039064,0.001000,0.001000,0.001000,0.001000,0.001000
1014.903846,-0.038330,0.001000,0.001000,0.001000,0.001000,0.001000
1014.923077,-0.037575,0.001000,0.001000,0.001000,0.001000,0.001000
1014.942308,-0.036800,0.001000,0.001000,0.001000,0.001000,0.001000
1014.961538,-0.036005,0.001000,0.001000,0.001000,0.001000,0.001000
1014.980769,-0.035190,0.001000,0.001000,0.001000,0.001000,0.001000
1015.000000,-0.034357,0.001000,0.001000,0.001000,0.001000,0.001000
1015.019231,-0.033505,0.001000,0.001000,0.001000,0.001000,0.001000
1015.038462,-0.032636,0.001000,0.001000,0.001000,0.001000,0.001000
1015.057692,-0.031748,0.001000,0.001000,0.001000,0.001000,0.001000
1015.076923,-0.030844,0.001000,0.001000,0.001000,0.001000,0.001000
1015.096154,-0.029923,0.001000,0.001000,0.001000,0.001000,0.001000
1015.115385,-0.028986,0.001000,0.001000,0.001000,0.001000,0.001000
1015.134615,-0.028033,0.001000,0.001000,0.001000,0.001000,0.001000
1015.153846,-0.027065,0.001000,0.001000,0.001000,0.001000,0.001000
1015.173077,-0.026083,0.001000,0.001000,0.001000,0.001000,0.001000
1015.192308,-0.025087,0.001000,0.001000,0.001000,0.001000,0.001000
1015.211538,-0.024077,0.001000,0.001000,0.001000,0.001000,0.001000
1015.230769,-0.023054,0.001000,0.001000,0.001000,0.001000,0.001000
1015.250000,-0.022019,0.001000,0.001000,0.001000,0.001000,0.001000
1015.269231,-0.020972,0.001000,0.001000,0.001000,0.001000,0.001000
1015.288462,-0.019913,0.001000,0.001000,0.001000,0.001000,0.001000
1015.307692,-0.018844,0.001000,0.001000,0.001000,0.001000,0.001000
1015.326923,-0.017765,0.001000,0.001000,0.001000,0.001000,0.001000
1015.346154,-0.016676,0.001000,0.001000,0.001000,0.001000,0.001000
1015.365385,-0.015579,0.001000,0.001000,0.001000,0.001000,0.001000
1015.384615,-0.014473,0.001000,0.001000,0.001000,0.001000,0.001000
1015.403846,-0.013359,0.001000,0.001000,0.001000,0.001000,0.001000
1015.423077,-0.012238,0.001000,0.001000,0.001000,0.001000,0.001000
1015.442308,-0.011110,0.001000,0.001000,0.001000,0.001000,0.001000
1015.461538,-0.009976,0.001000,0.001000,0.001000,0.001000,0.001000
1015.480769,-0.008837,0.001000,0.001000,0.001000,0.001000,0.001000
1015.500000,-0.007694,0.001000,0.001000,0.001000,0.001000,0.001000
1015.519231,-0.006546,0.001000,0.001000,0.001000,0.001000,0.001000
1015.538462,-0.005394,0.001000,0.001000,0.001000,0.001000,0.001000
1015.557692,-0.004240,0.001000,0.001000,0.001000,0.001000,0.001000
1015.576923,-0.003083,0.001000,0.001000,0.001000,0.001000,0.001000
1015.596154,-0.001925,0.001000,0.001000,0.001000,0.001000,0.001000
1015.615385,-0.000766,0.001000,0.001000,0.001000,0.001000,0.001000
1015.634615,0.000394,0.001000,0.001000,0.001000,0.001000,0.001000
1015.653846,0.001554,0.001000,0.001000,0.001000,0.001000,0.001000
1015.673077,0.002712,0.001000,0.001000,0.001000,0.001000,0.001000
1015.692308,0.003869,0.001000,0.001000,0.001000,0.001000,0.001000
1015.711538,0.005024,0.001000,0.001000,0.001000,0.001000,0.001000
1015.730769,0.006177,0.001000,0.001000,0.001000,0.001000,0.001000
1015.750000,0.007326,0.001000,0.001000,0.001000,0.001000,0.001000
1015.769231,0.008471,0.001000,0.001000,0.001000,0.001000,0.001000
1015.788462,0.009612,0.001000,0.001000,0.001000,0.001000,0.001000
1015.807692,0.010747,0.001000,0.001000,0.001000,0.001000,0.001000
1015.826923,0.011877,0.001000,0.001000,0.001000,0.001000,0.001000
1015.846154,0.013000,0.001000,0.001000,0.001000,0.001000,0.001000
1015.865385,0.014116,0.001000,0.001000,0.001000,0.001000,0.001000
1015.884615,0.015225,0.001000,0.001000,0.001000,0.001000,0.001000
1015.903846,0.016325,0.001000,0.001000,0.001000,0.001000,0.001000
1015.923077,0.017417,0.001000,0.001000,0.001000,0.001000,0.001000
1015.942308,0.018499,0.001000,0.001000,0.001000,0.001000,0.001000
1015.961538,0.019572,0.001000,0.001000,0.001000,0.001000,0.001000
1015.980769,0.020634,0.001000,0.001000,0.001000,0.001000,0.001000
1016.000000,0.021684,0.001000,0.001000,0.001000,0.001000,0.001000
1016.019231,0.022724,0.001000,0.001000,0.001000,0.001000,0.001000
1016.038462,0.023750,0.001000,0.001000,0.001000,0.001000,0.001000
1016.057692,0.024764,0.001000,0.001000,0.001000,0.001000,0.001000
1016.076923,0.025765,0.001000,0.001000,0.001000,0.001000,0.001000
1016.096154,0.026752,0.001000,0.001000,0.001000,0.001000,0.001000
1016.115385,0.027725,0.001000,0.001000,0.001000,0.001000,0.001000
1016.134615,0.028682,0.001000,0.001000,0.001000,0.001000,0.001000
1016.153846,0.029624,0.001000,0.001000,0.001000,0.001000,0.001000
1016.173077,0.030551,0.001000,0.001000,0.001000,0.001000,0.001000
1016.192308,0.031460,0.001000,0.001000,0.001000,0.001000,0.001000
1016.211538,0.032353,0.001000,0.001000,0.001000,0.001000,0.001000
1016.230769,0.033229,0.001000,0.001000,0.001000,0.001000,0.001000
1016.250000,0.034086,0.001000,0.001000,0.001000,0.001000,0.001000
1016.269231,0.034925,0.001000,0.001000,0.001000,0.001000,0.001000
1016.288462,0.035746,0.001000,0.001000,0.001000,0.001000,0.001000
1016.307692,0.036547,0.001000,0.001000,0.001000,0.001000,0.001000
1016.326923,0.037329,0.001000,0.001000,0.001000,0.001000,0.001000
1016.346154,0.038090,0.001000,0.001000,0.001000,0.001000,0.001000
1016.365385,0.038831,0.001000,0.001000,0.001000,0.001000,0.001000
1016.384615,0.039551,0.001000,0.001000,0.001000,0.001000,0.001000
1016.403846,0.040250,0.001000,0.001000,0.001000,0.001000,0.001000
1016.423077,0.040927,0.001000,0.001000,0.001000,0.001000,0.001000
1016.442308,0.041582,0.001000,0.001000,0.001000,0.001000,0.001000
1016.461538,0.042215,0.001000,0.001000,0.001000,0.001000,0.001000
1016.480769,0.042825,0.001000,0.001000,0.001000,0.001000,0.001000
1016.500000,0.043412,0.001000,0.001000,0.001000,0.001000,0.001000
1016.519231,0.043976,0.001000,0.001000,0.001000,0.001000,0.001000
1016.538462,0.044516,0.001000,0.001000,0.001000,0.001000,0.001000
1016.557692,0.045032,0.001000,0.001000,0.001000,0.001000,0.001000
1016.576923,0.045524,0.001000,0.001000,0.001000,0.001000,0.001000
1016.596154,0.045991,0.001000,0.001000,0.001000,0.001000,0.001000
1016.615385,0.046434,0.001000,0.001000,0.001000,0.001000,0.001000
1016.634615,0.046851,0.001000,0.001000,0.001000,0.001000,0.001000
1016.653846,0.047244,0.001000,0.001000,0.001000,0.001000,0.001000
1016.673077,0.047611,0.001000,0.001000,0.001000,0.001000,0.001000
1016.692308,0.047952,0.001000,0.001000,0.001000,0.001000,0.001000
1016.711538,0.048268,0.001000,0.001000,0.001000,0.001000,0.001000
1016.730769,0.048557,0.001000,0.001000,0.001000,0.001000,0.001000
1016.750000,0.048821,0.001000,0.001000,0.001000,0.001000,0.001000
1016.769231,0.049058,0.001000,0.001000,0.001000,0.001000,0.001000
1016.788462,0.049269,0.001000,0.001000,0.001000,0.001000,0.001000
1016.807692,0.049453,0.001000,0.001000,0.001000,0.001000,0.001000
1016.826923,0.049611,0.001000,0.001000,0.001000,0.001000,0.001000
1016.846154,0.049742,0.001000,0.001000,0.001000,0.001000,0.001000
1016.865385,0.049846,0.001000,0.001000,0.001000,0.001000,0.001000
1016.884615,0.049924,0.001000,0.001000,0.001000,0.001000,0.001000
1016.903846,0.049974,0.001000,0.001000,0.001000,0.001000,0.001000
1016.923077,0.049998,0.001000,0.001000,0.001000,0.001000,0.001000
1016.942308,0.049995,0.001000,0.001000,0.001000,0.001000,0.001000
1016.961538,0.049965,0.001000,0.001000,0.001000,0.001000,0.001000
1016.980769,0.049908,0.001000,0.001000,0.001000,0.001000,0.001000
1017.000000,0.049824,0.001000,0.001000,0.001000,0.001000,0.001000
1017.019231,0.049713,0.001000,0.001000,0.001000,0.001000,0.001000
1017.038462,0.049576,0.001000,0.001000,0.001000,0.001000,0.001000
1017.057692,0.049412,0.001000,0.001000,0.001000,0.001000,0.001000
1017.076923,0.049221,0.001000,0.001000,0.001000,0.001000,0.001000
1017.096154,0.049004,0.001000,0.001000,0.001000,0.001000,0.001000
1017.115385,0.048761,0.001000,0.001000,0.001000,0.001000,0.001000
1017.134615,0.048491,0.001000,0.001000,0.001000,0.001000,0.001000
1017.153846,0.048195,0.001000,0.001000,0.001000,0.001000,0.001000
1017.173077,0.047874,0.001000,0.001000,0.001000,0.001000,0.001000
1017.192308,0.047526,0.001000,0.001000,0.001000,0.001000,0.001000
1017.211538,0.047153,0.001000,0.001000,0.001000,0.001000,0.001000
1017.230769,0.046755,0.001000,0.001000,0.001000,0.001000,0.001000
1017.250000,0.046331,0.001000,0.001000,0.001000,0.001000,0.001000
1017.269231,0.045883,0.001000,0.001000,0.001000,0.001000,0.001000
1017.288462,0.045410,0.001000,0.001000,0.001000,0.001000,0.001000
1017.307692,0.044912,0.001000,0.001000,0.001000,0.001000,0.001000
1017.326923,0.044390,0.001000,0.001000,0.001000,0.001000,0.001000
1017.346154,0.043845,0.001000,0.001000,0.001000,0.001000,0.001000
1017.365385,0.043276,0.001000,0.001000,0.001000,0.001000,0.001000
1017.384615,0.042683,0.001000,0.001000,0.001000,0.001000,0.001000
1017.403846,0.042068,0.001000,0.001000,0.001000,0.001000,0.001000
1017.423077,0.041430,0.001000,0.001000,0.001000,0.001000,0.001000
1017.442308,0.040769,0.001000,0.001000,0.001000,0.001000,0.001000
1017.461538,0.040087,0.001000,0.001000,0.001000,0.001000,0.001000
1017.480769,0.039383,0.001000,0.001000,0.001000,0.001000,0.001000
1017.500000,0.038658,0.001000,0.001000,0.001000,0.001000,0.001000
1017.519231,0.037912,0.001000,0.001000,0.001000,0.001000,0.001000
1017.538462,0.037146,0.001000,0.001000,0.001000,0.001000,0.001000
1017.557692,0.036360,0.001000,0.001000,0.001000,0.001000,0.001000
1017.576923,0.035554,0.001000,0.001000,0.001000,0.001000,0.001000
1017.596154,0.034729,0.001000,0.001000,0.001000,0.001000,0.001000
1017.615385,0.033885,0.001000,0.001000,0.001000,0.001000,0.001000
1017.634615,0.033024,0.001000,0.001000,0.001000,0.001000,0.001000
1017.653846,0.032144,0.001000,0.001000,0.001000,0.001000,0.001000
1017.673077,0.031247,0.001000,0.001000,0.001000,0.001000,0.001000
1017.692308,0.030333,0.001000,0.001000,0.001000,0.001000,0.001000
1017.711538,0.029403,0.001000,0.001000,0.001000,0.001000,0.001000
1017.730769,0.028457,0.001000,0.001000,0.001000,0.001000,0.001000
1017.750000,0.027496,0.001000,0.001000,0.001000,0.001000,0.001000
1017.769231,0.026520,0.001000,0.001000,0.001000,0.001000,0.001000
1017.788462,0.025530,0.001000,0.001000,0.001000,0.001000,0.001000
1017.807692,0.024526,0.001000,0.001000,0.001000,0.001000,0.001000
1017.826923,0.023509,0.001000,0.001000,0.001000,0.001000,0.001000
1017.846154,0.022479,0.001000,0.001000,0.001000,0.001000,0.001000
1017.865385,0.021437,0.001000,0.001000,0.001000,0.001000,0.001000
1017.884615,0.020384,0.001000,0.001000,0.001000,0.001000,0.001000
1017.903846,0.019320,0.001000,0.001000,0.001000,0.001000,0.001000
1017.923077,0.018245,0.001000,0.001000,0.001000,0.001000,0.001000
1017.942308,0.017160,0.001000,0.001000,0.001000,0.001000,0.001000
1017.961538,0.016066,0.001000,0.001000,0.001000,0.001000,0.001000
1017.980769,0.014964,0.001000,0.001000,0.001000,0.001000,0.001000
1018.000000,0.013853,0.001000,0.001000,0.001000,0.001000,0.001000
1018.019231,0.012735,0.001000,0.001000,0.001000,0.001000,0.001000
1018.038462,0.011611,0.001000,0.001000,0.001000,0.001000,0.001000
1018.057692,0.010480,0.001000,0.001000,0.001000,0.001000,0.001000
1018.076923,0.009343,0.001000,0.001000,0.001000,0.001000,0.001000
1018.096154,0.008201,0.001000,0.001000,0.001000,0.001000,0.001000
1018.115385,0.007055,0.001000,0.001000,0.001000,0.001000,0.001000
1018.134615,0.005905,0.001000,0.001000,0.001000,0.001000,0.001000
1018.153846,0.004752,0.001000,0.001000,0.001000,0.001000,0.001000
1018.173077,0.003596,0.001000,0.001000,0.001000,0.001000,0.001000
1018.192308,0.002439,0.001000,0.001000,0.001000,0.001000,0.001000
1018.211538,0.001280,0.001000,0.001000,0.001000,0.001000,0.001000
1018.230769,0.000120,0.001000,0.001000,0.001000,0.001000,0.001000
1018.250000,-0.001039,0.001000,0.001000,0.001000,0.001000,0.001000
1018.269231,-0.002199,0.001000,0.001000,0.001000,0.001000,0.001000
1018.288462,-0.003357,0.001000,0.001000,0.001000,0.001000,0.001000
1018.307692,-0.004513,0.001000,0.001000,0.001000,0.001000,0.001000
1018.326923,-0.005666,0.001000,0.001000,0.001000,0.001000,0.001000
1018.346154,-0.006817,0.001000,0.001000,0.001000,0.001000,0.001000
1018.365385,-0.007964,0.001000,0.001000,0.001000,0.001000,0.001000
1018.384615,-0.009107,0.001000,0.001000,0.001000,0.001000,0.001000
1018.403846,-0.010244,0.001000,0.001000,0.001000,0.001000,0.001000
1018.423077,-0.011377,0.001000,0.001000,0.001000,0.001000,0.001000
1018.442308,-0.012503,0.001000,0.001000,0.001000,0.001000,0.001000
1018.461538,-0.013622,0.001000,0.001000,0.001000,0.001000,0.001000
1018.480769,-0.014734,0.001000,0.001000,0.001000,0.001000,0.001000
1018.500000,-0.015839,0.001000,0.001000,0.001000,0.001000,0.001000
1018.519231,-0.016934,0.001000,0.001000,0.001000,0.001000,0.001000
1018.538462,-0.018021,0.001000,0.001000,0.001000,0.001000,0.001000
1018.557692,-0.019098,0.001000,0.001000,0.001000,0.001000,0.001000
1018.576923,-0.020164,0.001000,0.001000,0.001000,0.001000,0.001000
1018.596154,-0.021220,0.001000,0.001000,0.001000,0.001000,0.001000
1018.615385,-0.022264,0.001000,0.001000,0.001000,0.001000,0.001000
1018.634615,-0.023297,0.001000,0.001000,0.001000,0.001000,0.001000
1018.653846,-0.024316,0.001000,0.001000,0.001000,0.001000,0.001000
1018.673077,-0.025323,0.001000,0.001000,0.001000,0.001000,0.001000
1018.692308,-0.026316,0.001000,0.001000,0.001000,0.001000,0.001000
1018.711538,-0.027295,0.001000,0.001000,0.001000,0.001000,0.001000
1018.730769,-0.028259,0.001000,0.001000,0.001000,0.001000,0.001000
1018.750000,-0.029209,0.001000,0.001000,0.001000,0.001000,0.001000
1018.769231,-0.030142,0.001000,0.001000,0.001000,0.001000,0.001000
1018.788462,-0.031059,0.001000,0.001000,0.001000,0.001000,0.001000
1018.807692,-0.031959,0.001000,0.001000,0.001000,0.001000,0.001000
1018.826923,-0.032843,0.001000,0.001000,0.001000,0.001000,0.001000
1018.846154,-0.033708,0.001000,0.001000,0.001000,0.001000,0.001000
1018.865385,-0.034556,0.001000,0.001000,0.001000,0.001000,0.001000
1018.884615,-0.035384,0.001000,0.001000,0.001000,0.001000,0.001000
1018.903846,-0.036194,0.001000,0.001000,0.001000,0.001000,0.001000
1018.923077,-0.036985,0.001000,0.001000,0.001000,0.001000,0.001000
1018.942308,-0.037755,0.001000,0.001000,0.001000,0.001000,0.001000
1018.961538,-0.038505,0.001000,0.001000,0.001000,0.001000,0.001000
1018.980769,-0.039235,0.001000,0.001000,0.001000,0.001000,0.001000
1019.000000,-0.039943,0.001000,0.001000,0.001000,0.001000,0.001000
1019.019231,-0.040630,0.001000,0.001000,0.001000,0.001000,0.001000
1019.038462,-0.041295,0.001000,0.001000,0.001000,0.001000,0.001000
1019.057692,-0.041937,0.001000,0.001000,0.001000,0.001000,0.001000
1019.076923,-0.042557,0.001000,0.001000,0.001000,0.001000,0.001000
1019.096154,-0.043155,0.001000,0.001000,0.001000,0.001000,0.001000
1019.115385,-0.043729,0.001000,0.001000,0.001000,0.001000,0.001000
1019.134615,-0.044279,0.001000,0.001000,0.001000,0.001000,0.001000
1019.153846,-0.044806,0.001000,0.001000,0.001000,0.001000,0.001000
1019.173077,-0.045309,0.001000,0.001000,0.001000,0.001000,0.001000
1019.192308,-0.045787,0.001000,0.001000,0.001000,0.001000,0.001000
1019.211538,-0.046240,0.001000,0.001000,0.001000,0.001000,0.001000
1019.230769,-0.046669,0.001000,0.001000,0.001000,0.001000,0.001000
1019.250000,-0.047073,0.001000,0.001000,0.001000,0.001000,0.001000
1019.269231,-0.047451,0.001000,0.001000,0.001000,0.001000,0.001000
1019.288462,-0.047804,0.001000,0.001000,0.001000,0.001000,0.001000
1019.307692,-0.048131,0.001000,0.001000,0.001000,0.001000,0.001000
1019.326923,-0.048432,0.001000,0.001000,0.001000,0.001000,0.001000
1019.346154,-0.048707,0.001000,0.001000,0.001000,0.001000,0.001000
1019.365385,-0.048956,0.001000,0.001000,0.001000,0.001000,0.001000
1019.384615,-0.049179,0.001000,0.001000,0.001000,0.001000,0.001000
1019.403846,-0.049375,0.001000,0.001000,0.001000,0.001000,0.001000
1019.423077,-0.049544,0.001000,0.001000,0.001000,0.001000,0.001000
1019.442308,-0.049687,0.001000,0.001000,0.001000,0.001000,0.001000
1019.461538,-0.049803,0.001000,0.001000,0.001000,0.001000,0.001000
1019.480769,-0.049893,0.001000,0.001000,0.001000,0.001000,0.001000
1019.500000,-0.049955,0.001000,0.001000,0.001000,0.001000,0.001000
1019.519231,-0.049991,0.001000,0.001000,0.001000,0.001000,0.001000
1019.538462,-0.050000,0.001000,0.001000,0.001000,0.001000,0.001000
1019.557692,-0.049981,0.001000,0.001000,0.001000,0.001000,0.001000
1019.576923,-0.049936,0.001000,0.001000,0.001000,0.001000,0.001000
1019.596154,-0.049865,0.001000,0.001000,0.001000,0.001000,0.001000
1019.615385,-0.049766,0.001000,0.001000,0.001000,0.001000,0.001000
1019.634615,-0.049640,0.001000,0.001000,0.001000,0.001000,0.001000
1019.653846,-0.049488,0.001000,0.001000,0.001000,0.001000,0.001000
1019.673077,-0.049309,0.001000,0.001000,0.001000,0.001000,0.001000
1019.692308,-0.049104,0.001000,0.001000,0.001000,0.001000,0.001000
1019.711538,-0.048872,0.001000,0.001000,0.001000,0.001000,0.001000
1019.730769,-0.048614,0.001000,0.001000,0.001000,0.001000,0.001000
1019.750000,-0.048330,0.001000,0.001000,0.001000,0.001000,0.001000
1019.769231,-0.048020,0.001000,0.001000,0.001000,0.001000,0.001000
1019.788462,-0.047684,0.001000,0.001000,0.001000,0.001000,0.001000
1019.807692,-0.047322,0.001000,0.001000,0.001000,0.001000,0.001000
1019.826923,-0.046935,0.001000,0.001000,0.001000,0.001000,0.001000
1019.846154,-0.046522,0.001000,0.001000,0.001000,0.001000,0.001000
1019.865385,-0.046085,0.001000,0.001000,0.001000,0.001000,0.001000
1019.884615,-0.045623,0.001000,0.001000,0.001000,0.001000,0.001000
1019.903846,-0.045136,0.001000,0.001000,0.001000,0.001000,0.001000
1019.923077,-0.044625,0.001000,0.001000,0.001000,0.001000,0.001000
1019.942308,-0.044090,0.001000,0.001000,0.001000,0.001000,0.001000
1019.961538,-0.043531,0.001000,0.001000,0.001000,0.001000,0.001000
1019.980769,-0.042949,0.001000,0.001000,0.001000,0.001000,0.001000
1020.000000,-0.042343,0.001000,0.001000,0.001000,0.001000,0.001000
1020.019231,-0.041715,0.001000,0.001000,0.001000,0.001000,0.001000
1020.038462,-0.041065,0.001000,0.001000,0.001000,0.001000,0.001000
1020.057692,-0.040392,0.001000,0.001000,0.001000,0.001000,0.001000
1020.076923,-0.039698,0.001000,0.001000,0.001000,0.001000,0.001000
1020.096154,-0.038982,0.001000,0.001000,0.001000,0.001000,0.001000
1020.115385,-0.038245,0.001000,0.001000,0.001000,0.001000,0.001000
1020.134615,-0.037488,0.001000,0.001000,0.001000,0.001000,0.001000
1020.153846,-0.036711,0.001000,0.001000,0.001000,0.001000,0.001000
1020.173077,-0.035914,0.001000,0.001000,0.001000,0.001000,0.001000
1020.192308,-0.035097,0.001000,0.001000,0.001000,0.001000,0.001000
1020.211538,-0.034262,0.001000,0.001000,0.001000,0.001000,0.001000
1020.230769,-0.033408,0.001000,0.001000,0.001000,0.001000,0.001000
1020.250000,-0.032536,0.001000,0.001000,0.001000,0.001000,0.001000
1020.269231,-0.031647,0.001000,0.001000,0.001000,0.001000,0.001000
1020.288462,-0.030740,0.001000,0.001000,0.001000,0.001000,0.001000
1020.307692,-0.029818,0.001000,0.001000,0.001000,0.001000,0.001000
1020.326923,-0.028879,0.001000,0.001000,0.001000,0.001000,0.001000
1020.346154,-0.027924,0.001000,0.001000,0.001000,0.001000,0.001000
1020.365385,-0.026955,0.001000,0.001000,0.001000,0.001000,0.001000
1020.384615,-0.025971,0.001000,0.001000,0.001000,0.001000,0.001000
1020.403846,-0.024973,0.001000,0.001000,0.001000,0.001000,0.001000
1020.423077,-0.023962,0.001000,0.001000,0.001000,0.001000,0.001000
1020.442308,-0.022937,0.001000,0.001000,0.001000,0.001000,0.001000
1020.461538,-0.021901,0.001000,0.001000,0.001000,0.001000,0.001000
1020.480769,-0.020852,0.001000,0.001000,0.001000,0.001000,0.001000
1020.500000,-0.019793,0.001000,0.001000,0.001000,0.001000,0.001000
1020.519231,-0.018723,0.001000,0.001000,0.001000,0.001000,0.001000
1020.538462,-0.017642,0.001000,0.001000,0.001000,0.001000,0.001000
1020.557692,-0.016553,0.001000,0.001000,0.001000,0.001000,0.001000
1020.576923,-0.015454,0.001000,0.001000,0.001000,0.001000,0.001000
1020.596154,-0.014347,0.001000,0.001000,0.001000,0.001000,0.001000
1020.615385,-0.013232,0.001000,0.001000,0.001000,0.001000,0.001000
1020.634615,-0.012110,0.001000,0.001000,0.001000,0.001000,0.001000
1020.653846,-0.010982,0.001000,0.001000,0.001000,0.001000,0.001000
1020.673077,-0.009848,0.001000,0.001000,0.001000,0.001000,0.001000
1020.692308,-0.008708,0.001000,0.001000,0.001000,0.001000,0.001000
1020.711538,-0.007564,0.001000,0.001000,0.001000,0.001000,0.001000
1020.730769,-0.006415,0.001000,0.001000,0.001000,0.001000,0.001000
1020.750000,-0.005264,0.001000,0.001000,0.001000,0.001000,0.001000
1020.769231,-0.004109,0.001000,0.001000,0.001000,0.001000,0.001000
1020.788462,-0.002952,0.001000,0.001000,0.001000,0.001000,0.001000
1020.807692,-0.001794,0.001000,0.001000,0.001000,0.001000,0.001000
1020.826923,-0.000634,0.001000,0.001000,0.001000,0.001000,0.001000
1020.846154,0.000525,0.001000,0.001000,0.001000,0.001000,0.001000
1020.865385,0.001685,0.001000,0.001000,0.001000,0.001000,0.001000
1020.884615,0.002843,0.001000,0.001000,0.001000,0.001000,0.001000
1020.903846,0.004000,0.001000,0.001000,0.001000,0.001000,0.001000
1020.923077,0.005155,0.001000,0.001000,0.001000,0.001000,0.001000
1020.942308,0.006307,0.001000,0.001000,0.001000,0.001000,0.001000
1020.961538,0.007456,0.001000,0.001000,0.001000,0.001000,0.001000
1020.980769,0.008601,0.001000,0.001000,0.001000,0.001000,0.001000
1021.000000,0.009741,0.001000,0.001000,0.001000,0.001000,0.001000
1021.019231,0.010875,0.001000,0.001000,0.001000,0.001000,0.001000
1021.038462,0.012004,0.001000,0.001000,0.001000,0.001000,0.001000
1021.057692,0.013127,0.001000,0.001000,0.001000,0.001000,0.001000
1021.076923,0.014242,0.001000,0.001000,0.001000,0.001000,0.001000
1021.096154,0.015350,0.001000,0.001000,0.001000,0.001000,0.001000
1021.115385,0.016450,0.001000,0.001000,0.001000,0.001000,0.001000
1021.134615,0.017540,0.001000,0.001000,0.001000,0.001000,0.001000
1021.153846,0.018621,0.001000,0.001000,0.001000,0.001000,0.001000
1021.173077,0.019693,0.001000,0.001000,0.001000,0.001000,0.001000
1021.192308,0.020753,0.001000,0.001000,0.001000,0.001000,0.001000
1021.211538,0.021803,0.001000,0.001000,0.001000,0.001000,0.001000
1021.230769,0.022840,0.001000,0.001000,0.001000,0.001000,0.001000
1021.250000,0.023866,0.001000,0.001000,0.001000,0.001000,0.001000
1021.269231,0.024878,0.001000,0.001000,0.001000,0.001000,0.001000
1021.288462,0.025878,0.001000,0.001000,0.001000,0.001000,0.001000
1021.307692,0.026863,0.001000,0.001000,0.001000,0.001000,0.001000
1021.326923,0.027834,0.001000,0.001000,0.001000,0.001000,0.001000
1021.346154,0.028790,0.001000,0.001000,0.001000,0.001000,0.001000
1021.365385,0.029730,0.001000,0.001000,0.001000,0.001000,0.001000
1021.384615,0.030654,0.001000,0.001000,0.001000,0.001000,0.001000
1021.403846,0.031562,0.001000,0.001000,0.001000,0.001000,0.001000
1021.423077,0.032453,0.001000,0.001000,0.001000,0.001000,0.001000
1021.442308,0.033327,0.001000,0.001000,0.001000,0.001000,0.001000
1021.461538,0.034182,0.001000,0.001000,0.001000,0.001000,0.001000
1021.480769,0.035019,0.001000,0.001000,0.001000,0.001000,0.001000
1021.500000,0.035838,0.001000,0.001000,0.001000,0.001000,0.001000
1021.519231,0.036637,0.001000,0.001000,0.001000,0.001000,0.001000
1021.538462,0.037416,0.001000,0.001000,0.001000,0.001000,0.001000
1021.557692,0.038175,0.001000,0.001000,0.001000,0.001000,0.001000
1021.576923,0.038914,0.001000,0.001000,0.001000,0.001000,0.001000
1021.596154,0.039631,0.001000,0.001000,0.001000,0.001000,0.001000
1021.615385,0.040328,0.001000,0.001000,0.001000,0.001000,0.001000
1021.634615,0.041002,0.001000,0.001000,0.001000,0.001000,0.001000
1021.653846,0.041655,0.001000,0.001000,0.001000,0.001000,0.001000
1021.673077,0.042285,0.001000,0.001000,0.001000,0.001000,0.001000
1021.692308,0.042893,0.001000,0.001000,0.001000,0.001000,0.001000
1021.711538,0.043477,0.001000,0.001000,0.001000,0.001000,0.001000
1021.730769,0.044038,0.001000,0.001000,0.001000,0.001000,0.001000
1021.750000,0.044575,0.001000,0.001000,0.001000,0.001000,0.001000
1021.769231,0.045089,0.001000,0.001000,0.001000,0.001000,0.001000
1021.788462,0.045578,0.001000,0.001000,0.001000,0.001000,0.001000
1021.807692,0.046042,0.001000,0.001000,0.001000,0.001000,0.001000
1021.826923,0.046482,0.001000,0.001000,0.001000,0.001000,0.001000
1021.846154,0.046897,0.001000,0.001000,0.001000,0.001000,0.001000
1021.865385,0.047287,0.001000,0.001000,0.001000,0.001000,0.001000
1021.884615,0.047651,0.001000,0.001000,0.001000,0.001000,0.001000
1021.903846,0.047989,0.001000,0.001000,0.001000,0.001000,0.001000
1021.923077,0.048302,0.001000,0.001000,0.001000,0.001000,0.001000
1021.942308,0.048588,0.001000,0.001000,0.001000,0.001000,0.001000
1021.961538,0.048849,0.001000,0.001000,0.001000,0.001000,0.001000
1021.980769,0.049083,0.001000,0.001000,0.001000,0.001000,0.001000
1022.000000,0.049291,0.001000,0.001000,0.001000,0.001000,0.001000
1022.019231,0.049472,0.001000,0.001000,0.001000,0.001000,0.001000
1022.038462,0.049627,0.001000,0.001000,0.001000,0.001000,0.001000
1022.057692,0.049755,0.001000,0.001000,0.001000,0.001000,0.001000
1022.076923,0.049856,0.001000,0.001000,0.001000,0.001000,0.001000
1022.096154,0.049931,0.001000,0.001000,0.001000,0.001000,0.001000
1022.115385,0.049978,0.001000,0.001000,0.001000,0.001000,0.001000
1022.134615,0.049999,0.001000,0.001000,0.001000,0.001000,0.001000
1022.153846,0.049993,0.001000,0.001000,0.001000,0.001000,0.001000
1022.173077,0.049960,0.001000,0.001000,0.001000,0.001000,0.001000
1022.192308,0.049900,0.001000,0.001000,0.001000,0.001000,0.001000
1022.211538,0.049813,0.001000,0.001000,0.001000,0.001000,0.001000
1022.230769,0.049699,0.001000,0.001000,0.001000,0.001000,0.001000
1022.250000,0.049559,0.001000,0.001000,0.001000,0.001000,0.001000
1022.269231,0.049392,0.001000,0.001000,0.001000,0.001000,0.001000
1022.288462,0.049198,0.001000,0.001000,0.001000,0.001000,0.001000
1022.307692,0.048978,0.001000,0.001000,0.001000,0.001000,0.001000
1022.326923,0.048732,0.001000,0.001000,0.001000,0.001000,0.001000
1022.346154,0.048459,0.001000,0.001000,0.001000,0.001000,0.001000
1022.365385,0.048160,0.001000,0.001000,0.001000,0.001000,0.001000
1022.384615,0.047836,0.001000,0.001000,0.001000,0.001000,0.001000
1022.403846,0.047485,0.001000,0.001000,0.001000,0.001000,0.001000
1022.423077,0.047109,0.001000,0.001000,0.001000,0.001000,0.001000
1022.442308,0.046708,0.001000,0.001000,0.001000,0.001000,0.001000
1022.461538,0.046282,0.001000,0.001000,0.001000,0.001000,0.001000
1022.480769,0.045831,0.001000,0.001000,0.001000,0.001000,0.001000
1022.500000,0.045355,0.001000,0.001000,0.001000,0.001000,0.001000
1022.519231,0.044854,0.001000,0.001000,0.001000,0.001000,0.001000
1022.538462,0.044330,0.001000,0.001000,0.001000,0.001000,0.001000
1022.557692,0.043782,0.001000,0.001000,0.001000,0.001000,0.001000
1022.576923,0.043210,0.001000,0.001000,0.001000,0.001000,0.001000
1022.596154,0.042615,0.001000,0.001000,0.001000,0.001000,0.001000
1022.615385,0.041997,0.001000,0.001000,0.001000,0.001000,0.001000
1022.634615,0.041356,0.001000,0.001000,0.001000,0.001000,0.001000
1022.653846,0.040693,0.001000,0.001000,0.001000,0.001000,0.001000
1022.673077,0.040008,0.001000,0.001000,0.001000,0.001000,0.001000
1022.692308,0.039302,0.001000,0.001000,0.001000,0.001000,0.001000
1022.711538,0.038575,0.001000,0.001000,0.001000,0.001000,0.001000
1022.730769,0.037826,0.001000,0.001000,0.001000,0.001000,0.001000
1022.750000,0.037058,0.001000,0.001000,0.001000,0.001000,0.001000
1022.769231,0.036269,0.001000,0.001000,0.001000,0.001000,0.001000
1022.788462,0.035461,0.001000,0.001000,0.001000,0.001000,0.001000
1022.807692,0.034634,0.001000,0.001000,0.001000,0.001000,0.001000
1022.826923,0.033789,0.001000,0.001000,0.001000,0.001000,0.001000
1022.846154,0.032925,0.001000,0.001000,0.001000,0.001000,0.001000
1022.865385,0.032043,0.001000,0.001000,0.001000,0.001000,0.001000
1022.884615,0.031144,0.001000,0.001000,0.001000,0.001000,0.001000
1022.903846,0.030229,0.001000,0.001000,0.001000,0.001000,0.001000
1022.923077,0.029297,0.001000,0.001000,0.001000,0.001000,0.001000
1022.942308,0.028349,0.001000,0.001000,0.001000,0.001000,0.001000
1022.961538,0.027387,0.001000,0.001000,0.001000,0.001000,0.001000
1022.980769,0.026409,0.001000,0.001000,0.001000,0.001000,0.001000
1023.000000,0.025417,0.001000,0.001000,0.001000,0.001000,0.001000
1023.019231,0.024412,0.001000,0.001000,0.001000,0.001000,0.001000
1023.038462,0.023393,0.001000,0.001000,0.001000,0.001000,0.001000
1023.057692,0.022362,0.001000,0.001000,0.001000,0.001000,0.001000
1023.076923,0.021319,0.001000,0.001000,0.001000,0.001000,0.001000
1023.096154,0.020264,0.001000,0.001000,0.001000,0.001000,0.001000
1023.115385,0.019198,0.001000,0.001000,0.001000,0.001000,0.001000
1023.134615,0.018122,0.001000,0.001000,0.001000,0.001000,0.001000
1023.153846,0.017037,0.001000,0.001000,0.001000,0.001000,0.001000
1023.173077,0.015942,0.001000,0.001000,0.001000,0.001000,0.001000
1023.192308,0.014839,0.001000,0.001000,0.001000,0.001000,0.001000
1023.211538,0.013727,0.001000,0.001000,0.001000,0.001000,0.001000
1023.230769,0.012608,0.001000,0.001000,0.001000,0.001000,0.001000
1023.250000,0.011483,0.001000,0.001000,0.001000,0.001000,0.001000
1023.269231,0.010351,0.001000,0.001000,0.001000,0.001000,0.001000
1023.288462,0.009214,0.001000,0.001000,0.001000,0.001000,0.001000
1023.307692,0.008072,0.001000,0.001000,0.001000,0.001000,0.001000
1023.326923,0.006925,0.001000,0.001000,0.001000,0.001000,0.001000
1023.346154,0.005775,0.001000,0.001000,0.001000,0.001000,0.001000
1023.365385,0.004621,0.001000,0.001000,0.001000,0.001000,0.001000
1023.384615,0.003465,0.001000,0.001000,0.001000,0.001000,0.001000
1023.403846,0.002308,0.001000,0.001000,0.001000,0.001000,0.001000
1023.423077,0.001149,0.001000,0.001000,0.001000,0.001000,0.001000
1023.442308,-0.000011,0.001000,0.001000,0.001000,0.001000,0.001000
1023.461538,-0.001171,0.001000,0.001000,0.001000,0.001000,0.001000
1023.480769,-0.002330,0.001000,0.001000,0.001000,0.001000,0.001000
1023.500000,-0.003488,0.001000,0.001000,0.001000,0.001000,0.001000
1023.519231,-0.004643,0.001000,0.001000,0.001000,0.001000,0.001000
1023.538462,-0.005797,0.001000,0.001000,0.001000,0.001000,0.001000
1023.557692,-0.006947,0.001000,0.001000,0.001000,0.001000,0.001000
1023.576923,-0.008094,0.001000,0.001000,0.001000,0.001000,0.001000
1023.596154,-0.009236,0.001000,0.001000,0.001000,0.001000,0.001000
1023.615385,-0.010373,0.001000,0.001000,0.001000,0.001000,0.001000
1023.634615,-0.011505,0.001000,0.001000,0.001000,0.001000,0.001000
1023.653846,-0.012630,0.001000,0.001000,0.001000,0.001000,0.001000
1023.673077,-0.013749,0.001000,0.001000,0.001000,0.001000,0.001000
1023.692308,-0.014860,0.001000,0.001000,0.001000,0.001000,0.001000
1023.711538,-0.015963,0.001000,0.001000,0.001000,0.001000,0.001000
1023.730769,-0.017058,0.001000,0.001000,0.001000,0.001000,0.001000
1023.750000,-0.018143,0.001000,0.001000,0.001000,0.001000,0.001000
1023.769231,-0.019219,0.001000,0.001000,0.001000,0.001000,0.001000
1023.788462,-0.020284,0.001000,0.001000,0.001000,0.001000,0.001000
1023.807692,-0.021339,0.001000,0.001000,0.001000,0.001000,0.001000
1023.826923,-0.022382,0.001000,0.001000,0.001000,0.001000,0.001000
1023.846154,-0.023413,0.001000,0.001000,0.001000,0.001000,0.001000
1023.865385,-0.024431,0.001000,0.001000,0.001000,0.001000,0.001000
1023.884615,-0.025436,0.001000,0.001000,0.001000,0.001000,0.001000
1023.903846,-0.026428,0.001000,0.001000,0.001000,0.001000,0.001000
1023.923077,-0.027405,0.001000,0.001000,0.001000,0.001000,0.001000
1023.942308,-0.028368,0.001000,0.001000,0.001000,0.001000,0.001000
1023.961538,-0.029315,0.001000,0.001000,0.001000,0.001000,0.001000
1023.980769,-0.030247,0.001000,0.001000,0.001000,0.001000,0.001000
1024.000000,-0.031162,0.001000,0.001000,0.001000,0.001000,0.001000
1024.019231,-0.032060,0.001000,0.001000,0.001000,0.001000,0.001000
1024.038462,-0.032942,0.001000,0.001000,0.001000,0.001000,0.001000
1024.057692,-0.033805,0.001000,0.001000,0.001000,0.001000,0.001000
1024.076923,-0.034650,0.001000,0.001000,0.001000,0.001000,0.001000
1024.096154,-0.035477,0.001000,0.001000,0.001000,0.001000,0.001000
1024.115385,-0.036285,0.001000,0.001000,0.001000,0.001000,0.001000
1024.134615,-0.037073,0.001000,0.001000,0.001000,0.001000,0.001000
1024.153846,-0.037841,0.001000,0.001000,0.001000,0.001000,0.001000
1024.173077,-0.038589,0.001000,0.001000,0.001000,0.001000,0.001000
1024.192308,-0.039316,0.001000,0.001000,0.001000,0.001000,0.001000
1024.211538,-0.040022,0.001000,0.001000,0.001000,0.001000,0.001000
1024.230769,-0.040706,0.001000,0.001000,0.001000,0.001000,0.001000
1024.250000,-0.041368,0.001000,0.001000,0.001000,0.001000,0.001000
1024.269231,-0.042009,0.001000,0.001000,0.001000,0.001000,0.001000
1024.288462,-0.042626,0.001000,0.001000,0.001000,0.001000,0.001000
1024.307692,-0.043221,0.001000,0.001000,0.001000,0.001000,0.001000
1024.326923,-0.043792,0.001000,0.001000,0.001000,0.001000,0.001000
1024.346154,-0.044340,0.001000,0.001000,0.001000,0.001000,0.001000
1024.365385,-0.044864,0.001000,0.001000,0.001000,0.001000,0.001000
1024.384615,-0.045364,0.001000,0.001000,0.001000,0.001000,0.001000
1024.403846,-0.045839,0.001000,0.001000,0.001000,0.001000,0.001000
1024.423077,-0.046290,0.001000,0.001000,0.001000,0.001000,0.001000
1024.442308,-0.046716,0.001000,0.001000,0.001000,0.001000,0.001000
1024.461538,-0.047117,0.001000,0.001000,0.001000,0.001000,0.001000
1024.480769,-0.047492,0.001000,0.001000,0.001000,0.001000,0.001000
1024.500000,-0.047842,0.001000,0.001000,0.001000,0.001000,0.001000
1024.519231,-0.048166,0.001000,0.001000,0.001000,0.001000,0.001000
1024.538462,-0.048465,0.001000,0.001000,0.001000,0.001000,0.001000
1024.557692,-0.048737,0.001000,0.001000,0.001000,0.001000,0.001000
1024.576923,-0.048983,0.001000,0.001000,0.001000,0.001000,0.001000
1024.596154,-0.049202,0.001000,0.001000,0.001000,0.001000,0.001000
1024.615385,-0.049395,0.001000,0.001000,0.001000,0.001000,0.001000
1024.634615,-0.049562,0.001000,0.001000,0.001000,0.001000,0.001000
1024.653846,-0.049702,0.001000,0.001000,0.001000,0.001000,0.001000
1024.673077,-0.049815,0.001000,0.001000,0.001000,0.001000,0.001000
1024.692308,-0.049901,0.001000,0.001000,0.001000,0.001000,0.001000
1024.711538,-0.049961,0.001000,0.001000,0.001000,0.001000,0.001000
1024.730769,-0.049993,0.001000,0.001000,0.001000,0.001000,0.001000
1024.750000,-0.049999,0.001000,0.001000,0.001000,0.001000,0.001000
1024.769231,-0.049978,0.001000,0.001000,0.001000,0.001000,0.001000
1024.788462,-0.049930,0.001000,0.001000,0.001000,0.001000,0.001000
1024.807692,-0.049855,0.001000,0.001000,0.001000,0.001000,0.001000
1024.826923,-0.049753,0.001000,0.001000,0.001000,0.001000,0.001000
1024.846154,-0.049624,0.001000,0.001000,0.001000,0.001000,0.001000
1024.865385,-0.049469,0.001000,0.001000,0.001000,0.001000,0.001000
1024.884615,-0.049287,0.001000,0.001000,0.001000,0.001000,0.001000
1024.903846,-0.049079,0.001000,0.001000,0.001000,0.001000,0.001000
1024.923077,-0.048844,0.001000,0.001000,0.001000,0.001000,0.001000
1024.942308,-0.048583,0.001000,0.001000,0.001000,0.001000,0.001000
1024.961538,-0.048296,0.001000,0.001000,0.001000,0.001000,0.001000
1024.980769,-0.047983,0.001000,0.001000,0.001000,0.001000,0.001000
1025.000000,-0.047644,0.001000,0.001000,0.001000,0.001000,0.001000
1025.019231,-0.047279,0.001000,0.001000,0.001000,0.001000,0.001000
1025.038462,-0.046889,0.001000,0.001000,0.001000,0.001000,0.001000
1025.057692,-0.046474,0.001000,0.001000,0.001000,0.001000,0.001000
1025.076923,-0.046034,0.001000,0.001000,0.001000,0.001000,0.001000
1025.096154,-0.045569,0.001000,0.001000,0.001000,0.001000,0.001000
1025.115385,-0.045079,0.001000,0.001000,0.001000,0.001000,0.001000
1025.134615,-0.044565,0.001000,0.001000,0.001000,0.001000,0.001000
1025.153846,-0.044028,0.001000,0.001000,0.001000,0.001000,0.001000
1025.173077,-0.043466,0.001000,0.001000,0.001000,0.001000,0.001000
1025.192308,-0.042881,0.001000,0.001000,0.001000,0.001000,0.001000
1025.211538,-0.042273,0.001000,0.001000,0.001000,0.001000,0.001000
1025.230769,-0.041643,0.001000,0.001000,0.001000,0.001000,0.001000
1025.250000,-0.040990,0.001000,0.001000,0.001000,0.001000,0.001000
1025.269231,-0.040315,0.001000,0.001000,0.001000,0.001000,0.001000
1025.288462,-0.039618,0.001000,0.001000,0.001000,0.001000,0.001000
1025.307692,-0.038900,0.001000,0.001000,0.001000,0.001000,0.001000
1025.326923,-0.038161,0.001000,0.001000,0.001000,0.001000,0.001000
1025.346154,-0.037401,0.001000,0.001000,0.001000,0.001000,0.001000
1025.365385,-0.036621,0.001000,0.001000,0.001000,0.001000,0.001000
1025.384615,-0.035822,0.001000,0.001000,0.001000,0.001000,0.001000
1025.403846,-0.035003,0.001000,0.001000,0.001000,0.001000,0.001000
1025.423077,-0.034166,0.001000,0.001000,0.001000,0.001000,0.001000
1025.442308,-0.033310,0.001000,0.001000,0.001000,0.001000,0.001000
1025.461538,-0.032436,0.001000,0.001000,0.001000,0.001000,0.001000
1025.480769,-0.031545,0.001000,0.001000,0.001000,0.001000,0.001000
1025.500000,-0.030637,0.001000,0.001000,0.001000,0.001000,0.001000
1025.519231,-0.029712,0.001000,0.001000,0.001000,0.001000,0.001000
1025.538462,-0.028771,0.001000,0.001000,0.001000,0.001000,0.001000
1025.557692,-0.027815,0.001000,0.001000,0.001000,0.001000,0.001000
1025.576923,-0.026844,0.001000,0.001000,0.001000,0.001000,0.001000
1025.596154,-0.025859,0.001000,0.001000,0.001000,0.001000,0.001000
1025.615385,-0.024859,0.001000,0.001000,0.001000,0.001000,0.001000
1025.634615,-0.023846,0.001000,0.001000,0.001000,0.001000,0.001000
1025.653846,-0.022821,0.001000,0.001000,0.001000,0.001000,0.001000
1025.673077,-0.021783,0.001000,0.001000,0.001000,0.001000,0.001000
1025.692308,-0.020733,0.001000,0.001000,0.001000,0.001000,0.001000
1025.711538,-0.019672,0.001000,0.001000,0.001000,0.001000,0.001000
1025.730769,-0.018601,0.001000,0.001000,0.001000,0.001000,0.001000
1025.750000,-0.017519,0.001000,0.001000,0.001000,0.001000,0.001000
1025.769231,-0.016429,0.001000,0.001000,0.001000,0.001000,0.001000
1025.788462,-0.015329,0.001000,0.001000,0.001000,0.001000,0.001000
1025.807692,-0.014221,0.001000,0.001000,0.001000,0.001000,0.001000
1025.826923,-0.013105,0.001000,0.001000,0.001000,0.001000,0.001000
1025.846154,-0.011983,0.001000,0.001000,0.001000,0.001000,0.001000
1025.865385,-0.010854,0.001000,0.001000,0.001000,0.001000,0.001000
1025.884615,-0.009719,0.001000,0.001000,0.001000,0.001000,0.001000
1025.903846,-0.008579,0.001000,0.001000,0.001000,0.001000,0.001000
1025.923077,-0.007434,0.001000,0.001000,0.001000,0.001000,0.001000
1025.942308,-0.006285,0.001000,0.001000,0.001000,0.001000,0.001000
1025.961538,-0.005133,0.001000,0.001000,0.001000,0.001000,0.001000
1025.980769,-0.003978,0.001000,0.001000,0.001000,0.001000,0.001000
1026.000000,-0.002821,0.001000,0.001000,0.001000,0.001000,0.001000
1026.019231,-0.001662,0.001000,0.001000,0.001000,0.001000,0.001000
1026.038462,-0.000503,0.001000,0.001000,0.001000,0.001000,0.001000
1026.057692,0.000657,0.001000,0.001000,0.001000,0.001000,0.001000
1026.076923,0.001816,0.001000,0.001000,0.001000,0.001000,0.001000
1026.096154,0.002974,0.001000,0.001000,0.001000,0.001000,0.001000
1026.115385,0.004131,0.001000,0.001000,0.001000,0.001000,0.001000
1026.134615,0.005286,0.001000,0.001000,0.001000,0.001000,0.001000
1026.153846,0.006437,0.001000,0.001000,0.001000,0.001000,0.001000
1026.173077,0.007586,0.001000,0.001000,0.001000,0.001000,0.001000
1026.192308,0.008730,0.001000,0.001000,0.001000,0.001000,0.001000
1026.211538,0.009869,0.001000,0.001000,0.001000,0.001000,0.001000
1026.230769,0.011004,0.001000,0.001000,0.001000,0.001000,0.001000
1026.250000,0.012132,0.001000,0.001000,0.001000,0.001000,0.001000
1026.269231,0.013254,0.001000,0.001000,0.001000,0.001000,0.001000
1026.288462,0.014368,0.001000,0.001000,0.001000,0.001000,0.001000
1026.307692,0.015475,0.001000,0.001000,0.001000,0.001000,0.001000
1026.326923,0.016574,0.001000,0.001000,0.001000,0.001000,0.001000
1026.346154,0.017663,0.001000,0.001000,0.001000,0.001000,0.001000
1026.365385,0.018743,0.001000,0.001000,0.001000,0.001000,0.001000
1026.384615,0.019813,0.001000,0.001000,0.001000,0.001000,0.001000
1026.403846,0.020873,0.001000,0.001000,0.001000,0.001000,0.001000
1026.423077,0.021921,0.001000,0.001000,0.001000,0.001000,0.001000
1026.442308,0.022957,0.001000,0.001000,0.001000,0.001000,0.001000
1026.461538,0.023981,0.001000,0.001000,0.001000,0.001000,0.001000
1026.480769,0.024992,0.001000,0.001000,0.001000,0.001000,0.001000
1026.500000,0.025990,0.001000,0.001000,0.001000,0.001000,0.001000
1026.519231,0.026974,0.001000,0.001000,0.001000,0.001000,0.001000
1026.538462,0.027943,0.001000,0.001000,0.001000,0.001000,0.001000
1026.557692,0.028897,0.001000,0.001000,0.001000,0.001000,0.001000
1026.576923,0.029836,0.001000,0.001000,0.001000,0.001000,0.001000
1026.596154,0.030758,0.001000,0.001000,0.001000,0.001000,0.001000
1026.615385,0.031664,0.001000,0.001000,0.001000,0.001000,0.001000
1026.634615,0.032553,0.001000,0.001000,0.001000,0.001000,0.001000
1026.653846,0.033424,0.001000,0.001000,0.001000,0.001000,0.001000
1026.673077,0.034278,0.001000,0.001000,0.001000,0.001000,0.001000
1026.692308,0.035113,0.001000,0.001000,0.001000,0.001000,0.001000
1026.711538,0.035929,0.001000,0.001000,0.001000,0.001000,0.001000
1026.730769,0.036726,0.001000,0.001000,0.001000,0.001000,0.001000
1026.750000,0.037503,0.001000,0.001000,0.001000,0.001000,0.001000
1026.769231,0.038260,0.001000,0.001000,0.001000,0.001000,0.001000
1026.788462,0.038996,0.001000,0.001000,0.001000,0.001000,0.001000
1026.807692,0.039711,0.001000,0.001000,0.001000,0.001000,0.001000
1026.826923,0.040405,0.001000,0.001000,0.001000,0.001000,0.001000
1026.846154,0.041077,0.001000,0.001000,0.001000,0.001000,0.001000
1026.865385,0.041728,0.001000,0.001000,0.001000,0.001000,0.001000
1026.884615,0.042355,0.001000,0.001000,0.001000,0.001000,0.001000
1026.903846,0.042960,0.001000,0.001000,0.001000,0.001000,0.001000
1026.923077,0.043542,0.001000,0.001000,0.001000,0.001000,0.001000
1026.942308,0.044100,0.001000,0.001000,0.001000,0.001000,0.001000
1026.961538,0.044635,0.001000,0.001000,0.001000,0.001000,0.001000
1026.980769,0.045145,0.001000,0.001000,0.001000,0.001000,0.001000
1027.000000,0.045632,0.001000,0.001000,0.001000,0.001000,0.001000
1027.019231,0.046093,0.001000,0.001000,0.001000,0.001000,0.001000
1027.038462,0.046530,0.001000,0.001000,0.001000,0.001000,0.001000
1027.057692,0.046942,0.001000,0.001000,0.001000,0.001000,0.001000
1027.076923,0.047329,0.001000,0.001000,0.001000,0.001000,0.001000
1027.096154,0.047690,0.001000,0.001000,0.001000,0.001000,0.001000
1027.115385,0.048026,0.001000,0.001000,0.001000,0.001000,0.001000
1027.134615,0.048336,0.001000,0.001000,0.001000,0.001000,0.001000
1027.153846,0.048619,0.001000,0.001000,0.001000,0.001000,0.001000
1027.173077,0.048877,0.001000,0.001000,0.001000,0.001000,0.001000
1027.192308,0.049108,0.001000,0.001000,0.001000,0.001000,0.001000
1027.211538,0.049313,0.001000,0.001000,0.001000,0.001000,0.001000
1027.230769,0.049491,0.001000,0.001000,0.001000,0.001000,0.001000
1027.250000,0.049643,0.001000,0.001000,0.001000,0.001000,0.001000
1027.269231,0.049768,0.001000,0.001000,0.001000,0.001000,0.001000
1027.288462,0.049866,0.001000,0.001000,0.001000,0.001000,0.001000
1027.307692,0.049938,0.001000,0.001000,0.001000,0.001000,0.001000
1027.326923,0.049982,0.001000,0.001000,0.001000,0.001000,0.001000
1027.346154,0.050000,0.001000,0.001000,0.001000,0.001000,0.001000
1027.365385,0.049990,0.001000,0.001000,0.001000,0.001000,0.001000
1027.384615,0.049954,0.001000,0.001000,0.001000,0.001000,0.001000
1027.403846,0.049891,0.001000,0.001000,0.001000,0.001000,0.001000
1027.423077,0.049801,0.001000,0.001000,0.001000,0.001000,0.001000
1027.442308,0.049685,0.001000,0.001000,0.001000,0.001000,0.001000
1027.461538,0.049541,0.001000,0.001000,0.001000,0.001000,0.001000
1027.480769,0.049371,0.001000,0.001000,0.001000,0.001000,0.001000
1027.500000,0.049175,0.001000,0.001000,0.001000,0.001000,0.001000
1027.519231,0.048952,0.001000,0.001000,0.001000,0.001000,0.001000
1027.538462,0.048702,0.001000,0.001000,0.001000,0.001000,0.001000
1027.557692,0.048427,0.001000,0.001000,0.001000,0.001000,0.001000
1027.576923,0.048125,0.001000,0.001000,0.001000,0.001000,0.001000
1027.596154,0.047797,0.001000,0.001000,0.001000,0.001000,0.001000
1027.615385,0.047444,0.001000,0.001000,0.001000,0.001000,0.001000
1027.634615,0.047065,0.001000,0.001000,0.001000,0.001000,0.001000
1027.653846,0.046661,0.001000,0.001000,0.001000,0.001000,0.001000
1027.673077,0.046232,0.001000,0.001000,0.001000,0.001000,0.001000
1027.692308,0.045778,0.001000,0.001000,0.001000,0.001000,0.001000
1027.711538,0.045299,0.001000,0.001000,0.001000,0.001000,0.001000
1027.730769,0.044796,0.001000,0.001000,0.001000,0.001000,0.001000
1027.750000,0.044269,0.001000,0.001000,0.001000,0.001000,0.001000
1027.769231,0.043718,0.001000,0.001000,0.001000,0.001000,0.001000
1027.788462,0.043143,0.001000,0.001000,0.001000,0.001000,0.001000
1027.807692,0.042546,0.001000,0.001000,0.001000,0.001000,0.001000
1027.826923,0.041925,0.001000,0.001000,0.001000,0.001000,0.001000
1027.846154,0.041282,0.001000,0.001000,0.001000,0.001000,0.001000
1027.865385,0.040617,0.001000,0.001000,0.001000,0.001000,0.001000
1027.884615,0.039929,0.001000,0.001000,0.001000,0.001000,0.001000
1027.903846,0.039221,0.001000,0.001000,0.001000,0.001000,0.001000
1027.923077,0.038491,0.001000,0.001000,0.001000,0.001000,0.001000
1027.942308,0.037740,0.001000,0.001000,0.001000,0.001000,0.001000
1027.961538,0.036970,0.001000,0.001000,0.001000,0.001000,0.001000
1027.980769,0.036179,0.001000,0.001000,0.001000,0.001000,0.001000
1028.000000,0.035369,0.001000,0.001000,0.001000,0.001000,0.001000
1028.019231,0.034540,0.001000,0.001000,0.001000,0.001000,0.001000
1028.038462,0.033692,0.001000,0.001000,0.001000,0.001000,0.001000
1028.057692,0.032826,0.001000,0.001000,0.001000,0.001000,0.001000
1028.076923,0.031942,0.001000,0.001000,0.001000,0.001000,0.001000
1028.096154,0.031042,0.001000,0.001000,0.001000,0.001000,0.001000
1028.115385,0.030124,0.001000,0.001000,0.001000,0.001000,0.001000
1028.134615,0.029190,0.001000,0.001000,0.001000,0.001000,0.001000
1028.153846,0.028241,0.001000,0.001000,0.001000,0.001000,0.001000
1028.173077,0.027277,0.001000,0.001000,0.001000,0.001000,0.001000
1028.192308,0.026297,0.001000,0.001000,0.001000,0.001000,0.001000
1028.211538,0.025304,0.001000,0.001000,0.001000,0.001000,0.001000
1028.230769,0.024297,0.001000,0.001000,0.001000,0.001000,0.001000
1028.250000,0.023277,0.001000,0.001000,0.001000,0.001000,0.001000
1028.269231,0.022244,0.001000,0.001000,0.001000,0.001000,0.001000
1028.288462,0.021200,0.001000,0.001000,0.001000,0.001000,0.001000
1028.307692,0.020144,0.001000,0.001000,0.001000,0.001000,0.001000
1028.326923,0.019077,0.001000,0.001000,0.001000,0.001000,0.001000
1028.346154,0.018000,0.001000,0.001000,0.001000,0.001000,0.001000
1028.365385,0.016913,0.001000,0.001000,0.001000,0.001000,0.001000
1028.384615,0.015817,0.001000,0.001000,0.001000,0.001000,0.001000
1028.403846,0.014713,0.001000,0.001000,0.001000,0.001000,0.001000
1028.423077,0.013601,0.001000,0.001000,0.001000,0.001000,0.001000
1028.442308,0.012481,0.001000,0.001000,0.001000,0.001000,0.001000
1028.461538,0.011355,0.001000,0.001000,0.001000,0.001000,0.001000
1028.480769,0.010223,0.001000,0.001000,0.001000,0.001000,0.001000
1028.500000,0.009085,0.001000,0.001000,0.001000,0.001000,0.001000
1028.519231,0.007942,0.001000,0.001000,0.001000,0.001000,0.001000
1028.538462,0.006795,0.001000,0.001000,0.001000,0.001000,0.001000
1028.557692,0.005644,0.001000,0.001000,0.001000,0.001000,0.001000
1028.576923,0.004490,0.001000,0.001000,0.001000,0.001000,0.001000
1028.596154,0.003334,0.001000,0.001000,0.001000,0.001000,0.001000
1028.615385,0.002176,0.001000,0.001000,0.001000,0.001000,0.001000
1028.634615,0.001017,0.001000,0.001000,0.001000,0.001000,0.001000
1028.653846,-0.000142,0.001000,0.001000,0.001000,0.001000,0.001000
1028.673077,-0.001302,0.001000,0.001000,0.001000,0.001000,0.001000
1028.692308,-0.002461,0.001000,0.001000,0.001000,0.001000,0.001000
1028.711538,-0.003619,0.001000,0.001000,0.001000,0.001000,0.001000
1028.730769,-0.004774,0.001000,0.001000,0.001000,0.001000,0.001000
1028.750000,-0.005927,0.001000,0.001000,0.001000,0.001000,0.001000
1028.769231,-0.007077,0.001000,0.001000,0.001000,0.001000,0.001000
1028.788462,-0.008223,0.001000,0.001000,0.001000,0.001000,0.001000
1028.807692,-0.009365,0.001000,0.001000,0.001000,0.001000,0.001000
1028.826923,-0.010501,0.001000,0.001000,0.001000,0.001000,0.001000
1028.846154,-0.011632,0.001000,0.001000,0.001000,0.001000,0.001000
1028.865385,-0.012757,0.001000,0.001000,0.001000,0.001000,0.001000
1028.884615,-0.013875,0.001000,0.001000,0.001000,0.001000,0.001000
1028.903846,-0.014985,0.001000,0.001000,0.001000,0.001000,0.001000
1028.923077,-0.016088,0.001000,0.001000,0.001000,0.001000,0.001000
1028.942308,-0.017181,0.001000,0.001000,0.001000,0.001000,0.001000
1028.961538,-0.018266,0.001000,0.001000,0.001000,0.001000,0.001000
1028.980769,-0.019340,0.001000,0.001000,0.001000,0.001000,0.001000
1029.000000,-0.020404,0.001000,0.001000,0.001000,0.001000,0.001000
1029.019231,-0.021458,0.001000,0.001000,0.001000,0.001000,0.001000
1029.038462,-0.022499,0.001000,0.001000,0.001000,0.001000,0.001000
1029.057692,-0.023529,0.001000,0.001000,0.001000,0.001000,0.001000
1029.076923,-0.024546,0.001000,0.001000,0.001000,0.001000,0.001000
1029.096154,-0.025549,0.001000,0.001000,0.001000,0.001000,0.001000
1029.115385,-0.026539,0.001000,0.001000,0.001000,0.001000,0.001000
1029.134615,-0.027515,0.001000,0.001000,0.001000,0.001000,0.001000
1029.153846,-0.028476,0.001000,0.001000,0.001000,0.001000,0.001000
1029.173077,-0.029421,0.001000,0.001000,0.001000,0.001000,0.001000
1029.192308,-0.030351,0.001000,0.001000,0.001000,0.001000,0.001000
1029.211538,-0.031264,0.001000,0.001000,0.001000,0.001000,0.001000
1029.230769,-0.032161,0.001000,0.001000,0.001000,0.001000,0.001000
1029.250000,-0.033040,0.001000,0.001000,0.001000,0.001000,0.001000
1029.269231,-0.033902,0.001000,0.001000,0.001000,0.001000,0.001000
1029.288462,-0.034745,0.001000,0.001000,0.001000,0.001000,0.001000
1029.307692,-0.035570,0.001000,0.001000,0.001000,0.001000,0.001000
1029.326923,-0.036375,0.001000,0.001000,0.001000,0.001000,0.001000
1029.346154,-0.037161,0.001000,0.001000,0.001000,0.001000,0.001000
1029.365385,-0.037927,0.001000,0.001000,0.001000,0.001000,0.001000
1029.384615,-0.038672,0.001000,0.001000,0.001000,0.001000,0.001000
1029.403846,-0.039397,0.001000,0.001000,0.001000,0.001000,0.001000
1029.423077,-0.040100,0.001000,0.001000,0.001000,0.001000,0.001000
1029.442308,-0.040782,0.001000,0.001000,0.001000,0.001000,0.001000
1029.461538,-0.041442,0.001000,0.001000,0.001000,0.001000,0.001000
1029.480769,-0.042080,0.001000,0.001000,0.001000,0.001000,0.001000
1029.500000,-0.042695,0.001000,0.001000,0.001000,0.001000,0.001000
1029.519231,-0.043287,0.001000,0.001000,0.001000,0.001000,0.001000
1029.538462,-0.043856,0.001000,0.001000,0.001000,0.001000,0.001000
1029.557692,-0.044401,0.001000,0.001000,0.001000,0.001000,0.001000
1029.576923,-0.044922,0.001000,0.001000,0.001000,0.001000,0.001000
1029.596154,-0.045419,0.001000,0.001000,0.001000,0.001000,0.001000
1029.615385,-0.045892,0.001000,0.001000,0.001000,0.001000,0.001000
1029.634615,-0.046340,0.001000,0.001000,0.001000,0.001000,0.001000
1029.653846,-0.046763,0.001000,0.001000,0.001000,0.001000,0.001000
1029.673077,-0.047161,0.001000,0.001000,0.001000,0.001000,0.001000
1029.692308,-0.047533,0.001000,0.001000,0.001000,0.001000,0.001000
1029.711538,-0.047880,0.001000,0.001000,0.001000,0.001000,0.001000
1029.730769,-0.048201,0.001000,0.001000,0.001000,0.001000,0.001000
1029.750000,-0.048497,0.001000,0.001000,0.001000,0.001000,0.001000
1029.769231,-0.048766,0.001000,0.001000,0.001000,0.001000,0.001000
1029.788462,-0.049009,0.001000,0.001000,0.001000,0.001000,0.001000
1029.807692,-0.049225,0.001000,0.001000,0.001000,0.001000,0.001000
1029.826923,-0.049415,0.001000,0.001000,0.001000,0.001000,0.001000
1029.846154,-0.049579,0.001000,0.001000,0.001000,0.001000,0.001000
1029.865385,-0.049716,0.001000,0.001000,0.001000,0.001000,0.001000
1029.884615,-0.049826,0.001000,0.001000,0.001000,0.001000,0.001000
1029.903846,-0.049909,0.001000,0.001000,0.001000,0.001000,0.001000
1029.923077,-0.049966,0.001000,0.001000,0.001000,0.001000,0.001000
1029.942308,-0.049995,0.001000,0.001000,0.001000,0.001000,0.001000
1029.961538,-0.049998,0.001000,0.001000,0.001000,0.001000,0.001000
1029.980769,-0.049974,0.001000,0.001000,0.001000,0.001000,0.001000
1030.000000,0.000000,0.001000,0.001000,0.001000,0.001000,0.001000
1030.019231,0.001125,0.001000,0.001000,0.001000,0.001000,0.001000
1030.038462,0.002250,0.001000,0.001000,0.001000,0.001000,0.001000
1030.057692,0.003374,0.001000,0.001000,0.001000,0.001000,0.001000
1030.076923,0.004496,0.001000,0.001000,0.001000,0.001000,0.001000
1030.096154,0.005616,0.001000,0.001000,0.001000,0.001000,0.001000
1030.115385,0.006733,0.001000,0.001000,0.001000,0.001000,0.001000
1030.134615,0.007847,0.001000,0.001000,0.001000,0.001000,0.001000
1030.153846,0.008956,0.001000,0.001000,0.001000,0.001000,0.001000
1030.173077,0.010061,0.001000,0.001000,0.001000,0.001000,0.001000
1030.192308,0.011161,0.001000,0.001000,0.001000,0.001000,0.001000
1030.211538,0.012255,0.001000,0.001000,0.001000,0.001000,0.001000
1030.230769,0.013343,0.001000,0.001000,0.001000,0.001000,0.001000
1030.250000,0.014425,0.001000,0.001000,0.001000,0.001000,0.001000
1030.269231,0.015499,0.001000,0.001000,0.001000,0.001000,0.001000
1030.288462,0.016565,0.001000,0.001000,0.001000,0.001000,0.001000
1030.307692,0.017623,0.001000,0.001000,0.001000,0.001000,0.001000
1030.326923,0.018671,0.001000,0.001000,0.001000,0.001000,0.001000
1030.346154,0.019711,0.001000,0.001000,0.001000,0.001000,0.001000
1030.365385,0.020740,0.001000,0.001000,0.001000,0.001000,0.001000
1030.384615,0.021759,0.001000,0.001000,0.001000,0.001000,0.001000
1030.403846,0.022767,0.001000,0.001000,0.001000,0.001000,0.001000
1030.423077,0.023763,0.001000,0.001000,0.001000,0.001000,0.001000
1030.442308,0.024747,0.001000,0.001000,0.001000,0.001000,0.001000
1030.461538,0.025719,0.001000,0.001000,0.001000,0.001000,0.001000
1030.480769,0.026678,0.001000,0.001000,0.001000,0.001000,0.001000
1030.500000,0.027623,0.001000,0.001000,0.001000,0.001000,0.001000
1030.519231,0.028554,0.001000,0.001000,0.001000,0.001000,0.001000
1030.538462,0.029471,0.001000,0.001000,0.001000,0.001000,0.001000
1030.557692,0.030372,0.001000,0.001000,0.001000,0.001000,0.001000
1030.576923,0.031259,0.001000,0.001000,0.001000,0.001000,0.001000
1030.596154,0.032129,0.001000,0.001000,0.001000,0.001000,0.001000
1030.615385,0.032983,0.001000,0.001000,0.001000,0.001000,0.001000
1030.634615,0.033821,0.001000,0.001000,0.001000,0.001000,0.001000
1030.653846,0.034641,0.001000,0.001000,0.001000,0.001000,0.001000
1030.673077,0.035444,0.001000,0.001000,0.001000,0.001000,0.001000
1030.692308,0.036229,0.001000,0.001000,0.001000,0.001000,0.001000
1030.711538,0.036996,0.001000,0.001000,0.001000,0.001000,0.001000
1030.730769,0.037743,0.001000,0.001000,0.001000,0.001000,0.001000
1030.750000,0.038472,0.001000,0.001000,0.001000,0.001000,0.001000
1030.769231,0.039181,0.001000,0.001000,0.001000,0.001000,0.001000
1030.788462,0.039870,0.001000,0.001000,0.001000,0.001000,0.001000
1030.807692,0.040539,0.001000,0.001000,0.001000,0.001000,0.001000
1030.826923,0.041188,0.001000,0.001000,0.001000,0.001000,0.001000
1030.846154,0.041816,0.001000,0.001000,0.001000,0.001000,0.001000
1030.865385,0.042422,0.001000,0.001000,0.001000,0.001000,0.001000
1030.884615,0.043007,0.001000,0.001000,0.001000,0.001000,0.001000
1030.903846,0.043570,0.001000,0.001000,0.001000,0.001000,0.001000
1030.923077,0.044111,0.001000,0.001000,0.001000,0.001000,0.001000
1030.942308,0.044630,0.001000,0.001000,0.001000,0.001000,0.001000
1030.961538,0.045126,0.001000,0.001000,0.001000,0.001000,0.001000
1030.980769,0.045599,0.001000,0.001000,0.001000,0.001000,0.001000
1031.000000,0.046050,0.001000,0.001000,0.001000,0.001000,0.001000
1031.019231,0.046476,0.001000,0.001000,0.001000,0.001000,0.001000
1031.038462,0.046880,0.001000,0.001000,0.001000,0.001000,0.001000
1031.057692,0.047259,0.001000,0.001000,0.001000,0.001000,0.001000
1031.076923,0.047615,0.001000,0.001000,0.001000,0.001000,0.001000
1031.096154,0.047946,0.001000,0.001000,0.001000,0.001000,0.001000
1031.115385,0.048253,0.001000,0.001000,0.001000,0.001000,0.001000
1031.134615,0.048536,0.001000,0.001000,0.001000,0.001000,0.001000
1031.153846,0.048794,0.001000,0.001000,0.001000,0.001000,0.001000
1031.173077,0.049027,0.001000,0.001000,0.001000,0.001000,0.001000
1031.192308,0.049236,0.001000,0.001000,0.001000,0.001000,0.001000
1031.211538,0.049419,0.001000,0.001000,0.001000,0.001000,0.001000
1031.230769,0.049578,0.001000,0.001000,0.001000,0.001000,0.001000
1031.250000,0.049711,0.001000,0.001000,0.001000,0.001000,0.001000
1031.269231,0.049819,0.001000,0.001000,0.001000,0.001000,0.001000
1031.288462,0.049902,0.001000,0.001000,0.001000,0.001000,0.001000
1031.307692,0.049960,0.001000,0.001000,0.001000,0.001000,0.001000
1031.326923,0.049992,0.001000,0.001000,0.001000,0.001000,0.001000
1031.346154,0.049999,0.001000,0.001000,0.001000,0.001000,0.001000
1031.365385,0.049981,0.001000,0.001000,0.001000,0.001000,0.001000
1031.384615,0.049937,0.001000,0.001000,0.001000,0.001000,0.001000
1031.403846,0.049868,0.001000,0.001000,0.001000,0.001000,0.001000
1031.423077,0.049774,0.001000,0.001000,0.001000,0.001000,0.001000
1031.442308,0.049655,0.001000,0.001000,0.001000,0.001000,0.001000
1031.461538,0.049510,0.001000,0.001000,0.001000,0.001000,0.001000
1031.480769,0.049340,0.001000,0.001000,0.001000,0.001000,0.001000
1031.500000,0.049146,0.001000,0.001000,0.001000,0.001000,0.001000
1031.519231,0.048926,0.001000,0.001000,0.001000,0.001000,0.001000
1031.538462,0.048682,0.001000,0.001000,0.001000,0.001000,0.001000
1031.557692,0.048412,0.001000,0.001000,0.001000,0.001000,0.001000
1031.576923,0.048119,0.001000,0.001000,0.001000,0.001000,0.001000
1031.596154,0.047801,0.001000,0.001000,0.001000,0.001000,0.001000
1031.615385,0.047459,0.001000,0.001000,0.001000,0.001000,0.001000
1031.634615,0.047092,0.001000,0.001000,0.001000,0.001000,0.001000
1031.653846,0.046702,0.001000,0.001000,0.001000,0.001000,0.001000
1031.673077,0.046288,0.001000,0.001000,0.001000,0.001000,0.001000
1031.692308,0.045851,0.001000,0.001000,0.001000,0.001000,0.001000
1031.711538,0.045391,0.001000,0.001000,0.001000,0.001000,0.001000
1031.730769,0.044907,0.001000,0.001000,0.001000,0.001000,0.001000
1031.750000,0.044401,0.001000,0.001000,0.001000,0.001000,0.001000
1031.769231,0.043872,0.001000,0.001000,0.001000,0.001000,0.001000
1031.788462,0.043321,0.001000,0.001000,0.001000,0.001000,0.001000
1031.807692,0.042748,0.001000,0.001000,0.001000,0.001000,0.001000
1031.826923,0.042153,0.001000,0.001000,0.001000,0.001000,0.001000
1031.846154,0.041538,0.001000,0.001000,0.001000,0.001000,0.001000
1031.865385,0.040900,0.001000,0.001000,0.001000,0.001000,0.001000
1031.884615,0.040243,0.001000,0.001000,0.001000,0.001000,0.001000
1031.903846,0.039565,0.001000,0.001000,0.001000,0.001000,0.001000
1031.923077,0.038866,0.001000,0.001000,0.001000,0.001000,0.001000
1031.942308,0.038148,0.001000,0.001000,0.001000,0.001000,0.001000
1031.961538,0.037411,0.001000,0.001000,0.001000,0.001000,0.001000
1031.980769,0.036655,0.001000,0.001000,0.001000,0.001000,0.001000
1032.000000,0.035880,0.001000,0.001000,0.001000,0.001000,0.001000
1032.019231,0.035087,0.001000,0.001000,0.001000,0.001000,0.001000
1032.038462,0.034277,0.001000,0.001000,0.001000,0.001000,0.001000
1032.057692,0.033449,0.001000,0.001000,0.001000,0.001000,0.001000
1032.076923,0.032604,0.001000,0.001000,0.001000,0.001000,0.001000
1032.096154,0.031742,0.001000,0.001000,0.001000,0.001000,0.001000
1032.115385,0.030864,0.001000,0.001000,0.001000,0.001000,0.001000
1032.134615,0.029971,0.001000,0.001000,0.001000,0.001000,0.001000
1032.153846,0.029063,0.001000,0.001000,0.001000,0.001000,0.001000
1032.173077,0.028139,0.001000,0.001000,0.001000,0.001000,0.001000
1032.192308,0.027202,0.001000,0.001000,0.001000,0.001000,0.001000
1032.211538,0.026251,0.001000,0.001000,0.001000,0.001000,0.001000
1032.230769,0.025286,0.001000,0.001000,0.001000,0.001000,0.001000
1032.250000,0.024309,0.001000,0.001000,0.001000,0.001000,0.001000
1032.269231,0.023319,0.001000,0.001000,0.001000,0.001000,0.001000
1032.288462,0.022317,0.001000,0.001000,0.001000,0.001000,0.001000
1032.307692,0.021305,0.001000,0.001000,0.001000,0.001000,0.001000
1032.326923,0.020281,0.001000,0.001000,0.001000,0.001000,0.001000
1032.346154,0.019247,0.001000,0.001000,0.001000,0.001000,0.001000
1032.365385,0.018204,0.001000,0.001000,0.001000,0.001000,0.001000
1032.384615,0.017151,0.001000,0.001000,0.001000,0.001000,0.001000
1032.403846,0.016089,0.001000,0.001000,0.001000,0.001000,0.001000
1032.423077,0.015019,0.001000,0.001000,0.001000,0.001000,0.001000
1032.442308,0.013942,0.001000,0.001000,0.001000,0.001000,0.001000
1032.461538,0.012858,0.001000,0.001000,0.001000,0.001000,0.001000
1032.480769,0.011767,0.001000,0.001000,0.001000,0.001000,0.001000
1032.500000,0.010670,0.001000,0.001000,0.001000,0.001000,0.001000
1032.519231,0.009568,0.001000,0.001000,0.001000,0.001000,0.001000
1032.538462,0.008460,0.001000,0.001000,0.001000,0.001000,0.001000
1032.557692,0.007349,0.001000,0.001000,0.001000,0.001000,0.001000
1032.576923,0.006234,0.001000,0.001000,0.001000,0.001000,0.001000
1032.596154,0.005116,0.001000,0.001000,0.001000,0.001000,0.001000
1032.615385,0.003995,0.001000,0.001000,0.001000,0.001000,0.001000
1032.634615,0.002872,0.001000,0.001000,0.001000,0.001000,0.001000
1032.653846,0.001747,0.001000,0.001000,0.001000,0.001000,0.001000
1032.673077,0.000622,0.001000,0.001000,0.001000,0.001000,0.001000
1032.692308,-0.000503,0.001000,0.001000,0.001000,0.001000,0.001000
1032.711538,-0.001629,0.001000,0.001000,0.001000,0.001000,0.001000
1032.730769,-0.002753,0.001000,0.001000,0.001000,0.001000,0.001000
1032.750000,-0.003876,0.001000,0.001000,0.001000,0.001000,0.001000
1032.769231,-0.004997,0.001000,0.001000,0.001000,0.001000,0.001000
1032.788462,-0.006116,0.001000,0.001000,0.001000,0.001000,0.001000
1032.807692,-0.007231,0.001000,0.001000,0.001000,0.001000,0.001000
1032.826923,-0.008343,0.001000,0.001000,0.001000,0.001000,0.001000
1032.846154,-0.009451,0.001000,0.001000,0.001000,0.001000,0.001000
1032.865385,-0.010554,0.001000,0.001000,0.001000,0.001000,0.001000
1032.884615,-0.011651,0.001000,0.001000,0.001000,0.001000,0.001000
1032.903846,-0.012743,0.001000,0.001000,0.001000,0.001000,0.001000
1032.923077,-0.013828,0.001000,0.001000,0.001000,0.001000,0.001000
1032.942308,-0.014906,0.001000,0.001000,0.001000,0.001000,0.001000
1032.961538,-0.015976,0.001000,0.001000,0.001000,0.001000,0.001000
1032.980769,-0.017039,0.001000,0.001000,0.001000,0.001000,0.001000
1033.000000,-0.018093,0.001000,0.001000,0.001000,0.001000,0.001000
1033.019231,-0.019137,0.001000,0.001000,0.001000,0.001000,0.001000
1033.038462,-0.020172,0.001000,0.001000,0.001000,0.001000,0.001000
1033.057692,-0.021197,0.001000,0.001000,0.001000,0.001000,0.001000
1033.076923,-0.022211,0.001000,0.001000,0.001000,0.001000,0.001000
1033.096154,-0.023214,0.001000,0.001000,0.001000,0.001000,0.001000
1033.115385,-0.024205,0.001000,0.001000,0.001000,0.001000,0.001000
1033.134615,-0.025183,0.001000,0.001000,0.001000,0.001000,0.001000
1033.153846,-0.026149,0.001000,0.001000,0.001000,0.001000,0.001000
1033.173077,-0.027102,0.001000,0.001000,0.001000,0.001000,0.001000
1033.192308,-0.028041,0.001000,0.001000,0.001000,0.001000,0.001000
1033.211538,-0.028966,0.001000,0.001000,0.001000,0.001000,0.001000
1033.230769,-0.029876,0.001000,0.001000,0.001000,0.001000,0.001000
1033.250000,-0.030771,0.001000,0.001000,0.001000,0.001000,0.001000
1033.269231,-0.031650,0.001000,0.001000,0.001000,0.001000,0.001000
1033.288462,-0.032513,0.001000,0.001000,0.001000,0.001000,0.001000
1033.307692,-0.033360,0.001000,0.001000,0.001000,0.001000,0.001000
1033.326923,-0.034190,0.001000,0.001000,0.001000,0.001000,0.001000
1033.346154,-0.035003,0.001000,0.001000,0.001000,0.001000,0.001000
1033.365385,-0.035797,0.001000,0.001000,0.001000,0.001000,0.001000
1033.384615,-0.036574,0.001000,0.001000,0.001000,0.001000,0.001000
1033.403846,-0.037332,0.001000,0.001000,0.001000,0.001000,0.001000
1033.423077,-0.038072,0.001000,0.001000,0.001000,0.001000,0.001000
1033.442308,-0.038792,0.001000,0.001000,0.001000,0.001000,0.001000
1033.461538,-0.039492,0.001000,0.001000,0.001000,0.001000,0.001000
1033.480769,-0.040172,0.001000,0.001000,0.001000,0.001000,0.001000
1033.500000,-0.040832,0.001000,0.001000,0.001000,0.001000,0.001000
1033.519231,-0.041471,0.001000,0.001000,0.001000,0.001000,0.001000
1033.538462,-0.042089,0.001000,0.001000,0.001000,0.001000,0.001000
1033.557692,-0.042686,0.001000,0.001000,0.001000,0.001000,0.001000
1033.576923,-0.043262,0.001000,0.001000,0.001000,0.001000,0.001000
1033.596154,-0.043815,0.001000,0.001000,0.001000,0.001000,0.001000
1033.615385,-0.044346,0.001000,0.001000,0.001000,0.001000,0.001000
1033.634615,-0.044855,0.001000,0.001000,0.001000,0.001000,0.001000
1033.653846,-0.045341,0.001000,0.001000,0.001000,0.001000,0.001000
1033.673077,-0.045804,0.001000,0.001000,0.001000,0.001000,0.001000
1033.692308,-0.046243,0.001000,0.001000,0.001000,0.001000,0.001000
1033.711538,-0.046660,0.001000,0.001000,0.001000,0.001000,0.001000
1033.730769,-0.047052,0.001000,0.001000,0.001000,0.001000,0.001000
1033.750000,-0.047421,0.001000,0.001000,0.001000,0.001000,0.001000
1033.769231,-0.047766,0.001000,0.001000,0.001000,0.001000,0.001000
1033.788462,-0.048086,0.001000,0.001000,0.001000,0.001000,0.001000
1033.807692,-0.048383,0.001000,0.001000,0.001000,0.001000,0.001000
1033.826923,-0.048654,0.001000,0.001000,0.001000,0.001000,0.001000
1033.846154,-0.048901,0.001000,0.001000,0.001000,0.001000,0.001000
1033.865385,-0.049124,0.001000,0.001000,0.001000,0.001000,0.001000
1033.884615,-0.049321,0.001000,0.001000,0.001000,0.001000,0.001000
1033.903846,-0.049493,0.001000,0.001000,0.001000,0.001000,0.001000
1033.923077,-0.049641,0.001000,0.001000,0.001000,0.001000,0.001000
1033.942308,-0.049763,0.001000,0.001000,0.001000,0.001000,0.001000
1033.961538,-0.049860,0.001000,0.001000,0.001000,0.001000,0.001000
1033.980769,-0.049931,0.001000,0.001000,0.001000,0.001000,0.001000
1034.000000,-0.049978,0.001000,0.001000,0.001000,0.001000,0.001000
1034.019231,-0.049999,0.001000,0.001000,0.001000,0.001000,0.001000
1034.038462,-0.049994,0.001000,0.001000,0.001000,0.001000,0.001000
1034.057692,-0.049965,0.001000,0.001000,0.001000,0.001000,0.001000
1034.076923,-0.049910,0.001000,0.001000,0.001000,0.001000,0.001000
1034.096154,-0.049829,0.001000,0.001000,0.001000,0.001000,0.001000
1034.115385,-0.049724,0.001000,0.001000,0.001000,0.001000,0.001000
1034.134615,-0.049593,0.001000,0.001000,0.001000,0.001000,0.001000
1034.153846,-0.049437,0.001000,0.001000,0.001000,0.001000,0.001000
1034.173077,-0.049256,0.001000,0.001000,0.001000,0.001000,0.001000
1034.192308,-0.049050,0.001000,0.001000,0.001000,0.001000,0.001000
1034.211538,-0.048820,0.001000,0.001000,0.001000,0.001000,0.001000
1034.230769,-0.048564,0.001000,0.001000,0.001000,0.001000,0.001000
1034.250000,-0.048284,0.001000,0.001000,0.001000,0.001000,0.001000
1034.269231,-0.047980,0.001000,0.001000,0.001000,0.001000,0.001000
1034.288462,-0.047651,0.001000,0.001000,0.001000,0.001000,0.001000
1034.307692,-0.047298,0.001000,0.001000,0.001000,0.001000,0.001000
1034.326923,-0.046921,0.001000,0.001000,0.001000,0.001000,0.001000
1034.346154,-0.046520,0.001000,0.001000,0.001000,0.001000,0.001000
1034.365385,-0.046096,0.001000,0.001000,0.001000,0.001000,0.001000
1034.384615,-0.045648,0.001000,0.001000,0.001000,0.001000,0.001000
1034.403846,-0.045177,0.001000,0.001000,0.001000,0.001000,0.001000
1034.423077,-0.044683,0.001000,0.001000,0.001000,0.001000,0.001000
1034.442308,-0.044167,0.001000,0.001000,0.001000,0.001000,0.001000
1034.461538,-0.043628,0.001000,0.001000,0.001000,0.001000,0.001000
1034.480769,-0.043068,0.001000,0.001000,0.001000,0.001000,0.001000
1034.500000,-0.042485,0.001000,0.001000,0.001000,0.001000,0.001000
1034.519231,-0.041881,0.001000,0.001000,0.001000,0.001000,0.001000
1034.538462,-0.041255,0.001000,0.001000,0.001000,0.001000,0.001000
1034.557692,-0.040609,0.001000,0.001000,0.001000,0.001000,0.001000
1034.576923,-0.039942,0.001000,0.001000,0.001000,0.001000,0.001000
1034.596154,-0.039255,0.001000,0.001000,0.001000,0.001000,0.001000
1034.615385,-0.038548,0.001000,0.001000,0.001000,0.001000,0.001000
1034.634615,-0.037821,0.001000,0.001000,0.001000,0.001000,0.001000
1034.653846,-0.037075,0.001000,0.001000,0.001000,0.001000,0.001000
1034.673077,-0.036311,0.001000,0.001000,0.001000,0.001000,0.001000
