timestamp,ax,ay,az,gx,gy,gz
1000.000000,0.000000,0.001000,0.001000,0.001000,0.001000,0.001000
1000.019231,0.001163,0.001000,0.001000,0.001000,0.001000,0.001000
1000.038462,0.002326,0.001000,0.001000,0.001000,0.001000,0.001000
1000.057692,0.003487,0.001000,0.001000,0.001000,0.001000,0.001000
1000.076923,0.004646,0.001000,0.001000,0.001000,0.001000,0.001000
1000.096154,0.005803,0.001000,0.001000,0.001000,0.001000,0.001000
1000.115385,0.006957,0.001000,0.001000,0.001000,0.001000,0.001000
1000.134615,0.008106,0.001000,0.001000,0.001000,0.001000,0.001000
1000.153846,0.009252,0.001000,0.001000,0.001000,0.001000,0.001000
1000.173077,0.010392,0.001000,0.001000,0.001000,0.001000,0.001000
1000.192308,0.011527,0.001000,0.001000,0.001000,0.001000,0.001000
1000.211538,0.012656,0.001000,0.001000,0.001000,0.001000,0.001000
1000.230769,0.013778,0.001000,0.001000,0.001000,0.001000,0.001000
1000.250000,0.014892,0.001000,0.001000,0.001000,0.001000,0.001000
1000.269231,0.015998,0.001000,0.001000,0.001000,0.001000,0.001000
1000.288462,0.017096,0.001000,0.001000,0.001000,0.001000,0.001000
1000.307692,0.018184,0.001000,0.001000,0.001000,0.001000,0.001000
1000.326923,0.019263,0.001000,0.001000,0.001000,0.001000,0.001000
1000.346154,0.020331,0.001000,0.001000,0.001000,0.001000,0.001000
1000.365385,0.021388,0.001000,0.001000,0.001000,0.001000,0.001000
1000.384615,0.022434,0.001000,0.001000,0.001000,0.001000,0.001000
1000.403846,0.023467,0.001000,0.001000,0.001000,0.001000,0.001000
1000.423077,0.024488,0.001000,0.001000,0.001000,0.001000,0.001000
1000.442308,0.025495,0.001000,0.001000,0.001000,0.001000,0.001000
1000.461538,0.026489,0.001000,0.001000,0.001000,0.001000,0.001000
1000.480769,0.027468,0.001000,0.001000,0.001000,0.001000,0.001000
1000.500000,0.028432,0.001000,0.001000,0.001000,0.001000,0.001000
1000.519231,0.029381,0.001000,0.001000,0.001000,0.001000,0.001000
1000.538462,0.030315,0.001000,0.001000,0.001000,0.001000,0.001000
1000.557692,0.031231,0.001000,0.001000,0.001000,0.001000,0.001000
1000.576923,0.032131,0.001000,0.001000,0.001000,0.001000,0.001000
1000.596154,0.033014,0.001000,0.001000,0.001000,0.001000,0.001000
1000.615385,0.033878,0.001000,0.001000,0.001000,0.001000,0.001000
1000.634615,0.034724,0.001000,0.001000,0.001000,0.001000,0.001000
1000.653846,0.035552,0.001000,0.001000,0.001000,0.001000,0.001000
1000.673077,0.036360,0.001000,0.001000,0.001000,0.001000,0.001000
1000.692308,0.037149,0.001000,0.001000,0.001000,0.001000,0.001000
1000.711538,0.037917,0.001000,0.001000,0.001000,0.001000,0.001000
1000.730769,0.038665,0.001000,0.001000,0.001000,0.001000,0.001000
1000.750000,0.039392,0.001000,0.001000,0.001000,0.001000,0.001000
1000.769231,0.040098,0.001000,0.001000,0.001000,0.001000,0.001000
1000.788462,0.040782,0.001000,0.001000,0.001000,0.001000,0.001000
1000.807692,0.041444,0.001000,0.001000,0.001000,0.001000,0.001000
1000.826923,0.042083,0.001000,0.001000,0.001000,0.001000,0.001000
1000.846154,0.042700,0.001000,0.001000,0.001000,0.001000,0.001000
1000.865385,0.043293,0.001000,0.001000,0.001000,0.001000,0.001000
1000.884615,0.043863,0.001000,0.001000,0.001000,0.001000,0.001000
1000.903846,0.044410,0.001000,0.001000,0.001000,0.001000,0.001000
1000.923077,0.044932,0.001000,0.001000,0.001000,0.001000,0.001000
1000.942308,0.045430,0.001000,0.001000,0.001000,0.001000,0.001000
1000.961538,0.045904,0.001000,0.001000,0.001000,0.001000,0.001000
1000.980769,0.046352,0.001000,0.001000,0.001000,0.001000,0.001000
1001.000000,0.046776,0.001000,0.001000,0.001000,0.001000,0.001000
1001.019231,0.047174,0.001000,0.001000,0.001000,0.001000,0.001000
1001.038462,0.047547,0.001000,0.001000,0.001000,0.001000,0.001000
1001.057692,0.047894,0.001000,0.001000,0.001000,0.001000,0.001000
1001.076923,0.048215,0.001000,0.001000,0.001000,0.001000,0.001000
1001.096154,0.048510,0.001000,0.001000,0.001000,0.001000,0.001000
1001.115385,0.048779,0.001000,0.001000,0.001000,0.001000,0.001000
1001.134615,0.049021,0.001000,0.001000,0.001000,0.001000,0.001000
1001.153846,0.049237,0.001000,0.001000,0.001000,0.001000,0.001000
1001.173077,0.049426,0.001000,0.001000,0.001000,0.001000,0.001000
1001.192308,0.049588,0.001000,0.001000,0.001000,0.001000,0.001000
1001.211538,0.049724,0.001000,0.001000,0.001000,0.001000,0.001000
1001.230769,0.049832,0.001000,0.001000,0.001000,0.001000,0.001000
1001.250000,0.049914,0.001000,0.001000,0.001000,0.001000,0.001000
1001.269231,0.049969,0.001000,0.001000,0.001000,0.001000,0.001000
1001.288462,0.049996,0.001000,0.001000,0.001000,0.001000,0.001000
1001.307692,0.049997,0.001000,0.001000,0.001000,0.001000,0.001000
1001.326923,0.049970,0.001000,0.001000,0.001000,0.001000,0.001000
1001.346154,0.049917,0.001000,0.001000,0.001000,0.001000,0.001000
1001.365385,0.049836,0.001000,0.001000,0.001000,0.001000,0.001000
1001.384615,0.049729,0.001000,0.001000,0.001000,0.001000,0.001000
1001.403846,0.049594,0.001000,0.001000,0.001000,0.001000,0.001000
1001.423077,0.049433,0.001000,0.001000,0.001000,0.001000,0.001000
1001.442308,0.049245,0.001000,0.001000,0.001000,0.001000,0.001000
1001.461538,0.049030,0.001000,0.001000,0.001000,0.001000,0.001000
1001.480769,0.048789,0.001000,0.001000,0.001000,0.001000,0.001000
1001.500000,0.048522,0.001000,0.001000,0.001000,0.001000,0.001000
1001.519231,0.048228,0.001000,0.001000,0.001000,0.001000,0.001000
1001.538462,0.047908,0.001000,0.001000,0.001000,0.001000,0.001000
1001.557692,0.047562,0.001000,0.001000,0.001000,0.001000,0.001000
1001.576923,0.047190,0.001000,0.001000,0.001000,0.001000,0.001000
1001.596154,0.046793,0.001000,0.001000,0.001000,0.001000,0.001000
1001.615385,0.046370,0.001000,0.001000,0.001000,0.001000,0.001000
1001.634615,0.045923,0.001000,0.001000,0.001000,0.001000,0.001000
1001.653846,0.045450,0.001000,0.001000,0.001000,0.001000,0.001000
1001.673077,0.044953,0.001000,0.001000,0.001000,0.001000,0.001000
1001.692308,0.044432,0.001000,0.001000,0.001000,0.001000,0.001000
1001.711538,0.043886,0.001000,0.001000,0.001000,0.001000,0.001000
1001.730769,0.043317,0.001000,0.001000,0.001000,0.001000,0.001000
1001.750000,0.042725,0.001000,0.001000,0.001000,0.001000,0.001000
1001.769231,0.042109,0.001000,0.001000,0.001000,0.001000,0.001000
1001.788462,0.041470,0.001000,0.001000,0.001000,0.001000,0.001000
1001.807692,0.040809,0.001000,0.001000,0.001000,0.001000,0.001000
1001.826923,0.040126,0.001000,0.001000,0.001000,0.001000,0.001000
1001.846154,0.039422,0.001000,0.001000,0.001000,0.001000,0.001000
1001.865385,0.038695,0.001000,0.001000,0.001000,0.001000,0.001000
1001.884615,0.037948,0.001000,0.001000,0.001000,0.001000,0.001000
1001.903846,0.037181,0.001000,0.001000,0.001000,0.001000,0.001000
1001.923077,0.036393,0.001000,0.001000,0.001000,0.001000,0.001000
1001.942308,0.035586,0.001000,0.001000,0.001000,0.001000,0.001000
1001.961538,0.034759,0.001000,0.001000,0.001000,0.001000,0.001000
1001.980769,0.033914,0.001000,0.001000,0.001000,0.001000,0.001000
1002.000000,0.033050,0.001000,0.001000,0.001000,0.001000,0.001000
1002.019231,0.032168,0.001000,0.001000,0.001000,0.001000,0.001000
1002.038462,0.031269,0.001000,0.001000,0.001000,0.001000,0.001000
1002.057692,0.030353,0.001000,0.001000,0.001000,0.001000,0.001000
1002.076923,0.029420,0.001000,0.001000,0.001000,0.001000,0.001000
1002.096154,0.028472,0.001000,0.001000,0.001000,0.001000,0.001000
1002.115385,0.027508,0.001000,0.001000,0.001000,0.001000,0.001000
1002.134615,0.026529,0.001000,0.001000,0.001000,0.001000,0.001000
1002.153846,0.025536,0.001000,0.001000,0.001000,0.001000,0.001000
1002.173077,0.024530,0.001000,0.001000,0.001000,0.001000,0.001000
1002.192308,0.023509,0.001000,0.001000,0.001000,0.001000,0.001000
1002.211538,0.022477,0.001000,0.001000,0.001000,0.001000,0.001000
1002.230769,0.021432,0.001000,0.001000,0.001000,0.001000,0.001000
1002.250000,0.020375,0.001000,0.001000,0.001000,0.001000,0.001000
1002.269231,0.019307,0.001000,0.001000,0.001000,0.001000,0.001000
1002.288462,0.018229,0.001000,0.001000,0.001000,0.001000,0.001000
1002.307692,0.017141,0.001000,0.001000,0.001000,0.001000,0.001000
1002.326923,0.016044,0.001000,0.001000,0.001000,0.001000,0.001000
1002.346154,0.014938,0.001000,0.001000,0.001000,0.001000,0.001000
1002.365385,0.013824,0.001000,0.001000,0.001000,0.001000,0.001000
1002.384615,0.012702,0.001000,0.001000,0.001000,0.001000,0.001000
1002.403846,0.011574,0.001000,0.001000,0.001000,0.001000,0.001000
1002.423077,0.010439,0.001000,0.001000,0.001000,0.001000,0.001000
1002.442308,0.009299,0.001000,0.001000,0.001000,0.001000,0.001000
1002.461538,0.008154,0.001000,0.001000,0.001000,0.001000,0.001000
1002.480769,0.007004,0.001000,0.001000,0.001000,0.001000,0.001000
1002.500000,0.005851,0.001000,0.001000,0.001000,0.001000,0.001000
1002.519231,0.004694,0.001000,0.001000,0.001000,0.001000,0.001000
1002.538462,0.003535,0.001000,0.001000,0.001000,0.001000,0.001000
1002.557692,0.002374,0.001000,0.001000,0.001000,0.001000,0.001000
1002.576923,0.001211,0.001000,0.001000,0.001000,0.001000,0.001000
1002.596154,0.000048,0.001000,0.001000,0.001000,0.001000,0.001000
1002.615385,-0.001115,0.001000,0.001000,0.001000,0.001000,0.001000
1002.634615,-0.002278,0.001000,0.001000,0.001000,0.001000,0.001000
1002.653846,-0.003439,0.001000,0.001000,0.001000,0.001000,0.001000
1002.673077,-0.004598,0.001000,0.001000,0.001000,0.001000,0.001000
1002.692308,-0.005755,0.001000,0.001000,0.001000,0.001000,0.001000
1002.711538,-0.006909,0.001000,0.001000,0.001000,0.001000,0.001000
1002.730769,-0.008059,0.001000,0.001000,0.001000,0.001000,0.001000
1002.750000,-0.009205,0.001000,0.001000,0.001000,0.001000,0.001000
1002.769231,-0.010345,0.001000,0.001000,0.001000,0.001000,0.001000
1002.788462,-0.011481,0.001000,0.001000,0.001000,0.001000,0.001000
1002.807692,-0.012609,0.001000,0.001000,0.001000,0.001000,0.001000
1002.826923,-0.013732,0.001000,0.001000,0.001000,0.001000,0.001000
1002.846154,-0.014846,0.001000,0.001000,0.001000,0.001000,0.001000
1002.865385,-0.015953,0.001000,0.001000,0.001000,0.001000,0.001000
1002.884615,-0.017051,0.001000,0.001000,0.001000,0.001000,0.001000
1002.903846,-0.018140,0.001000,0.001000,0.001000,0.001000,0.001000
1002.923077,-0.019218,0.001000,0.001000,0.001000,0.001000,0.001000
1002.942308,-0.020287,0.001000,0.001000,0.001000,0.001000,0.001000
1002.961538,-0.021345,0.001000,0.001000,0.001000,0.001000,0.001000
1002.980769,-0.022391,0.001000,0.001000,0.001000,0.001000,0.001000
1003.000000,-0.023424,0.001000,0.001000,0.001000,0.001000,0.001000
1003.019231,-0.024446,0.001000,0.001000,0.001000,0.001000,0.001000
1003.038462,-0.025454,0.001000,0.001000,0.001000,0.001000,0.001000
1003.057692,-0.026448,0.001000,0.001000,0.001000,0.001000,0.001000
1003.076923,-0.027428,0.001000,0.001000,0.001000,0.001000,0.001000
1003.096154,-0.028393,0.001000,0.001000,0.001000,0.001000,0.001000
1003.115385,-0.029343,0.001000,0.001000,0.001000,0.001000,0.001000
1003.134615,-0.030276,0.001000,0.001000,0.001000,0.001000,0.001000
1003.153846,-0.031194,0.001000,0.001000,0.001000,0.001000,0.001000
1003.173077,-0.032094,0.001000,0.001000,0.001000,0.001000,0.001000
1003.192308,-0.032977,0.001000,0.001000,0.001000,0.001000,0.001000
1003.211538,-0.033843,0.001000,0.001000,0.001000,0.001000,0.001000
1003.230769,-0.034690,0.001000,0.001000,0.001000,0.001000,0.001000
1003.250000,-0.035518,0.001000,0.001000,0.001000,0.001000,0.001000
1003.269231,-0.036327,0.001000,0.001000,0.001000,0.001000,0.001000
1003.288462,-0.037116,0.001000,0.001000,0.001000,0.001000,0.001000
1003.307692,-0.037886,0.001000,0.001000,0.001000,0.001000,0.001000
1003.326923,-0.038634,0.001000,0.001000,0.001000,0.001000,0.001000
1003.346154,-0.039362,0.001000,0.001000,0.001000,0.001000,0.001000
1003.365385,-0.040069,0.001000,0.001000,0.001000,0.001000,0.001000
1003.384615,-0.040754,0.001000,0.001000,0.001000,0.001000,0.001000
1003.403846,-0.041417,0.001000,0.001000,0.001000,0.001000,0.001000
1003.423077,-0.042057,0.001000,0.001000,0.001000,0.001000,0.001000
1003.442308,-0.042675,0.001000,0.001000,0.001000,0.001000,0.001000
1003.461538,-0.043269,0.001000,0.001000,0.001000,0.001000,0.001000
1003.480769,-0.043840,0.001000,0.001000,0.001000,0.001000,0.001000
1003.500000,-0.044388,0.001000,0.001000,0.001000,0.001000,0.001000
1003.519231,-0.044911,0.001000,0.001000,0.001000,0.001000,0.001000
1003.538462,-0.045410,0.001000,0.001000,0.001000,0.001000,0.001000
1003.557692,-0.045885,0.001000,0.001000,0.001000,0.001000,0.001000
1003.576923,-0.046334,0.001000,0.001000,0.001000,0.001000,0.001000
1003.596154,-0.046759,0.001000,0.001000,0.001000,0.001000,0.001000
1003.615385,-0.047158,0.001000,0.001000,0.001000,0.001000,0.001000
1003.634615,-0.047532,0.001000,0.001000,0.001000,0.001000,0.001000
1003.653846,-0.047880,0.001000,0.001000,0.001000,0.001000,0.001000
1003.673077,-0.048202,0.001000,0.001000,0.001000,0.001000,0.001000
1003.692308,-0.048498,0.001000,0.001000,0.001000,0.001000,0.001000
1003.711538,-0.048768,0.001000,0.001000,0.001000,0.001000,0.001000
1003.730769,-0.049011,0.001000,0.001000,0.001000,0.001000,0.001000
1003.750000,-0.049228,0.001000,0.001000,0.001000,0.001000,0.001000
1003.769231,-0.049419,0.001000,0.001000,0.001000,0.001000,0.001000
1003.788462,-0.049582,0.001000,0.001000,0.001000,0.001000,0.001000
1003.807692,-0.049719,0.001000,0.001000,0.001000,0.001000,0.001000
1003.826923,-0.049828,0.001000,0.001000,0.001000,0.001000,0.001000
1003.846154,-0.049911,0.001000,0.001000,0.001000,0.001000,0.001000
1003.865385,-0.049967,0.001000,0.001000,0.001000,0.001000,0.001000
1003.884615,-0.049996,0.001000,0.001000,0.001000,0.001000,0.001000
1003.903846,-0.049997,0.001000,0.001000,0.001000,0.001000,0.001000
1003.923077,-0.049972,0.001000,0.001000,0.001000,0.001000,0.001000
1003.942308,-0.049920,0.001000,0.001000,0.001000,0.001000,0.001000
1003.961538,-0.049840,0.001000,0.001000,0.001000,0.001000,0.001000
1003.980769,-0.049734,0.001000,0.001000,0.001000,0.001000,0.001000
1004.000000,-0.049600,0.001000,0.001000,0.001000,0.001000,0.001000
1004.019231,-0.049440,0.001000,0.001000,0.001000,0.001000,0.001000
1004.038462,-0.049253,0.001000,0.001000,0.001000,0.001000,0.001000
1004.057692,-0.049040,0.001000,0.001000,0.001000,0.001000,0.001000
1004.076923,-0.048800,0.001000,0.001000,0.001000,0.001000,0.001000
1004.096154,-0.048533,0.001000,0.001000,0.001000,0.001000,0.001000
1004.115385,-0.048240,0.001000,0.001000,0.001000,0.001000,0.001000
1004.134615,-0.047921,0.001000,0.001000,0.001000,0.001000,0.001000
1004.153846,-0.047577,0.001000,0.001000,0.001000,0.001000,0.001000
1004.173077,-0.047206,0.001000,0.001000,0.001000,0.001000,0.001000
1004.192308,-0.046810,0.001000,0.001000,0.001000,0.001000,0.001000
1004.211538,-0.046388,0.001000,0.001000,0.001000,0.001000,0.001000
1004.230769,-0.045942,0.001000,0.001000,0.001000,0.001000,0.001000
1004.250000,-0.045470,0.001000,0.001000,0.001000,0.001000,0.001000
1004.269231,-0.044974,0.001000,0.001000,0.001000,0.001000,0.001000
1004.288462,-0.044454,0.001000,0.001000,0.001000,0.001000,0.001000
1004.307692,-0.043909,0.001000,0.001000,0.001000,0.001000,0.001000
1004.326923,-0.043341,0.001000,0.001000,0.001000,0.001000,0.001000
1004.346154,-0.042750,0.001000,0.001000,0.001000,0.001000,0.001000
1004.365385,-0.042135,0.001000,0.001000,0.001000,0.001000,0.001000
1004.384615,-0.041497,0.001000,0.001000,0.001000,0.001000,0.001000
1004.403846,-0.040837,0.001000,0.001000,0.001000,0.001000,0.001000
1004.423077,-0.040155,0.001000,0.001000,0.001000,0.001000,0.001000
1004.442308,-0.039451,0.001000,0.001000,0.001000,0.001000,0.001000
1004.461538,-0.038726,0.001000,0.001000,0.001000,0.001000,0.001000
1004.480769,-0.037980,0.001000,0.001000,0.001000,0.001000,0.001000
1004.500000,-0.037213,0.001000,0.001000,0.001000,0.001000,0.001000
1004.519231,-0.036426,0.001000,0.001000,0.001000,0.001000,0.001000
1004.538462,-0.035619,0.001000,0.001000,0.001000,0.001000,0.001000
1004.557692,-0.034794,0.001000,0.001000,0.001000,0.001000,0.001000
1004.576923,-0.033949,0.001000,0.001000,0.001000,0.001000,0.001000
1004.596154,-0.033086,0.001000,0.001000,0.001000,0.001000,0.001000
1004.615385,-0.032205,0.001000,0.001000,0.001000,0.001000,0.001000
1004.634615,-0.031306,0.001000,0.001000,0.001000,0.001000,0.001000
1004.653846,-0.030391,0.001000,0.001000,0.001000,0.001000,0.001000
1004.673077,-0.029459,0.001000,0.001000,0.001000,0.001000,0.001000
1004.692308,-0.028512,0.001000,0.001000,0.001000,0.001000,0.001000
1004.711538,-0.027548,0.001000,0.001000,0.001000,0.001000,0.001000
1004.730769,-0.026570,0.001000,0.001000,0.001000,0.001000,0.001000
1004.750000,-0.025578,0.001000,0.001000,0.001000,0.001000,0.001000
1004.769231,-0.024571,0.001000,0.001000,0.001000,0.001000,0.001000
1004.788462,-0.023552,0.001000,0.001000,0.001000,0.001000,0.001000
1004.807692,-0.022520,0.001000,0.001000,0.001000,0.001000,0.001000
1004.826923,-0.021475,0.001000,0.001000,0.001000,0.001000,0.001000
1004.846154,-0.020419,0.001000,0.001000,0.001000,0.001000,0.001000
1004.865385,-0.019352,0.001000,0.001000,0.001000,0.001000,0.001000
1004.884615,-0.018274,0.001000,0.001000,0.001000,0.001000,0.001000
1004.903846,-0.017186,0.001000,0.001000,0.001000,0.001000,0.001000
1004.923077,-0.016089,0.001000,0.001000,0.001000,0.001000,0.001000
1004.942308,-0.014984,0.001000,0.001000,0.001000,0.001000,0.001000
1004.961538,-0.013870,0.001000,0.001000,0.001000,0.001000,0.001000
1004.980769,-0.012749,0.001000,0.001000,0.001000,0.001000,0.001000
1005.000000,-0.011621,0.001000,0.001000,0.001000,0.001000,0.001000
1005.019231,-0.010487,0.001000,0.001000,0.001000,0.001000,0.001000
1005.038462,-0.009346,0.001000,0.001000,0.001000,0.001000,0.001000
1005.057692,-0.008201,0.001000,0.001000,0.001000,0.001000,0.001000
1005.076923,-0.007052,0.001000,0.001000,0.001000,0.001000,0.001000
1005.096154,-0.005898,0.001000,0.001000,0.001000,0.001000,0.001000
1005.115385,-0.004742,0.001000,0.001000,0.001000,0.001000,0.001000
1005.134615,-0.003583,0.001000,0.001000,0.001000,0.001000,0.001000
1005.153846,-0.002422,0.001000,0.001000,0.001000,0.001000,0.001000
1005.173077,-0.001259,0.001000,0.001000,0.001000,0.001000,0.001000
1005.192308,-0.000096,0.001000,0.001000,0.001000,0.001000,0.001000
1005.211538,0.001067,0.001000,0.001000,0.001000,0.001000,0.001000
1005.230769,0.002229,0.001000,0.001000,0.001000,0.001000,0.001000
1005.250000,0.003391,0.001000,0.001000,0.001000,0.001000,0.001000
1005.269231,0.004550,0.001000,0.001000,0.001000,0.001000,0.001000
1005.288462,0.005707,0.001000,0.001000,0.001000,0.001000,0.001000
1005.307692,0.006861,0.001000,0.001000,0.001000,0.001000,0.001000
1005.326923,0.008011,0.001000,0.001000,0.001000,0.001000,0.001000
1005.346154,0.009157,0.001000,0.001000,0.001000,0.001000,0.001000
1005.365385,0.010298,0.001000,0.001000,0.001000,0.001000,0.001000
1005.384615,0.011434,0.001000,0.001000,0.001000,0.001000,0.001000
1005.403846,0.012563,0.001000,0.001000,0.001000,0.001000,0.001000
1005.423077,0.013685,0.001000,0.001000,0.001000,0.001000,0.001000
1005.442308,0.014800,0.001000,0.001000,0.001000,0.001000,0.001000
1005.461538,0.015907,0.001000,0.001000,0.001000,0.001000,0.001000
1005.480769,0.017006,0.001000,0.001000,0.001000,0.001000,0.001000
1005.500000,0.018095,0.001000,0.001000,0.001000,0.001000,0.001000
1005.519231,0.019174,0.001000,0.001000,0.001000,0.001000,0.001000
1005.538462,0.020243,0.001000,0.001000,0.001000,0.001000,0.001000
1005.557692,0.021301,0.001000,0.001000,0.001000,0.001000,0.001000
1005.576923,0.022348,0.001000,0.001000,0.001000,0.001000,0.001000
1005.596154,0.023382,0.001000,0.001000,0.001000,0.001000,0.001000
1005.615385,0.024404,0.001000,0.001000,0.001000,0.001000,0.001000
1005.634615,0.025412,0.001000,0.001000,0.001000,0.001000,0.001000
1005.653846,0.026407,0.001000,0.001000,0.001000,0.001000,0.001000
1005.673077,0.027388,0.001000,0.001000,0.001000,0.001000,0.001000
1005.692308,0.028353,0.001000,0.001000,0.001000,0.001000,0.001000
1005.711538,0.029304,0.001000,0.001000,0.001000,0.001000,0.001000
1005.730769,0.030238,0.001000,0.001000,0.001000,0.001000,0.001000
1005.750000,0.031156,0.001000,0.001000,0.001000,0.001000,0.001000
1005.769231,0.032057,0.001000,0.001000,0.001000,0.001000,0.001000
1005.788462,0.032941,0.001000,0.001000,0.001000,0.001000,0.001000
1005.807692,0.033807,0.001000,0.001000,0.001000,0.001000,0.001000
1005.826923,0.034655,0.001000,0.001000,0.001000,0.001000,0.001000
1005.846154,0.035484,0.001000,0.001000,0.001000,0.001000,0.001000
1005.865385,0.036294,0.001000,0.001000,0.001000,0.001000,0.001000
1005.884615,0.037084,0.001000,0.001000,0.001000,0.001000,0.001000
1005.903846,0.037854,0.001000,0.001000,0.001000,0.001000,0.001000
1005.923077,0.038604,0.001000,0.001000,0.001000,0.001000,0.001000
1005.942308,0.039333,0.001000,0.001000,0.001000,0.001000,0.001000
1005.961538,0.040040,0.001000,0.001000,0.001000,0.001000,0.001000
1005.980769,0.040726,0.001000,0.001000,0.001000,0.001000,0.001000
1006.000000,0.041390,0.001000,0.001000,0.001000,0.001000,0.001000
1006.019231,0.042031,0.001000,0.001000,0.001000,0.001000,0.001000
1006.038462,0.042650,0.001000,0.001000,0.001000,0.001000,0.001000
1006.057692,0.043245,0.001000,0.001000,0.001000,0.001000,0.001000
1006.076923,0.043817,0.001000,0.001000,0.001000,0.001000,0.001000
1006.096154,0.044366,0.001000,0.001000,0.001000,0.001000,0.001000
1006.115385,0.044890,0.001000,0.001000,0.001000,0.001000,0.001000
1006.134615,0.045390,0.001000,0.001000,0.001000,0.001000,0.001000
1006.153846,0.045866,0.001000,0.001000,0.001000,0.001000,0.001000
1006.173077,0.046316,0.001000,0.001000,0.001000,0.001000,0.001000
1006.192308,0.046742,0.001000,0.001000,0.001000,0.001000,0.001000
1006.211538,0.047142,0.001000,0.001000,0.001000,0.001000,0.001000
1006.230769,0.047517,0.001000,0.001000,0.001000,0.001000,0.001000
1006.250000,0.047866,0.001000,0.001000,0.001000,0.001000,0.001000
1006.269231,0.048189,0.001000,0.001000,0.001000,0.001000,0.001000
1006.288462,0.048486,0.001000,0.001000,0.001000,0.001000,0.001000
1006.307692,0.048757,0.001000,0.001000,0.001000,0.001000,0.001000
1006.326923,0.049002,0.001000,0.001000,0.001000,0.001000,0.001000
1006.346154,0.049220,0.001000,0.001000,0.001000,0.001000,0.001000
1006.365385,0.049411,0.001000,0.001000,0.001000,0.001000,0.001000
1006.384615,0.049576,0.001000,0.001000,0.001000,0.001000,0.001000
1006.403846,0.049714,0.001000,0.001000,0.001000,0.001000,0.001000
1006.423077,0.049824,0.001000,0.001000,0.001000,0.001000,0.001000
1006.442308,0.049908,0.001000,0.001000,0.001000,0.001000,0.001000
1006.461538,0.049965,0.001000,0.001000,0.001000,0.001000,0.001000
1006.480769,0.049995,0.001000,0.001000,0.001000,0.001000,0.001000
1006.500000,0.049998,0.001000,0.001000,0.001000,0.001000,0.001000
1006.519231,0.049974,0.001000,0.001000,0.001000,0.001000,0.001000
1006.538462,0.049922,0.001000,0.001000,0.001000,0.001000,0.001000
1006.557692,0.049844,0.001000,0.001000,0.001000,0.001000,0.001000
1006.576923,0.049739,0.001000,0.001000,0.001000,0.001000,0.001000
1006.596154,0.049606,0.001000,0.001000,0.001000,0.001000,0.001000
1006.615385,0.049447,0.001000,0.001000,0.001000,0.001000,0.001000
1006.634615,0.049262,0.001000,0.001000,0.001000,0.001000,0.001000
1006.653846,0.049049,0.001000,0.001000,0.001000,0.001000,0.001000
1006.673077,0.048810,0.001000,0.001000,0.001000,0.001000,0.001000
1006.692308,0.048545,0.001000,0.001000,0.001000,0.001000,0.001000
1006.711538,0.048253,0.001000,0.001000,0.001000,0.001000,0.001000
1006.730769,0.047935,0.001000,0.001000,0.001000,0.001000,0.001000
1006.750000,0.047591,0.001000,0.001000,0.001000,0.001000,0.001000
1006.769231,0.047222,0.001000,0.001000,0.001000,0.001000,0.001000
1006.788462,0.046827,0.001000,0.001000,0.001000,0.001000,0.001000
1006.807692,0.046406,0.001000,0.001000,0.001000,0.001000,0.001000
1006.826923,0.045961,0.001000,0.001000,0.001000,0.001000,0.001000
1006.846154,0.045490,0.001000,0.001000,0.001000,0.001000,0.001000
1006.865385,0.044995,0.001000,0.001000,0.001000,0.001000,0.001000
1006.884615,0.044476,0.001000,0.001000,0.001000,0.001000,0.001000
1006.903846,0.043932,0.001000,0.001000,0.001000,0.001000,0.001000
1006.923077,0.043365,0.001000,0.001000,0.001000,0.001000,0.001000
1006.942308,0.042775,0.001000,0.001000,0.001000,0.001000,0.001000
1006.961538,0.042161,0.001000,0.001000,0.001000,0.001000,0.001000
1006.980769,0.041524,0.001000,0.001000,0.001000,0.001000,0.001000
1007.000000,0.040865,0.001000,0.001000,0.001000,0.001000,0.001000
1007.019231,0.040184,0.001000,0.001000,0.001000,0.001000,0.001000
1007.038462,0.039481,0.001000,0.001000,0.001000,0.001000,0.001000
1007.057692,0.038756,0.001000,0.001000,0.001000,0.001000,0.001000
1007.076923,0.038011,0.001000,0.001000,0.001000,0.001000,0.001000
1007.096154,0.037245,0.001000,0.001000,0.001000,0.001000,0.001000
1007.115385,0.036459,0.001000,0.001000,0.001000,0.001000,0.001000
1007.134615,0.035653,0.001000,0.001000,0.001000,0.001000,0.001000
1007.153846,0.034828,0.001000,0.001000,0.001000,0.001000,0.001000
1007.173077,0.033984,0.001000,0.001000,0.001000,0.001000,0.001000
1007.192308,0.033122,0.001000,0.001000,0.001000,0.001000,0.001000
1007.211538,0.032242,0.001000,0.001000,0.001000,0.001000,0.001000
1007.230769,0.031344,0.001000,0.001000,0.001000,0.001000,0.001000
1007.250000,0.030429,0.001000,0.001000,0.001000,0.001000,0.001000
1007.269231,0.029498,0.001000,0.001000,0.001000,0.001000,0.001000
1007.288462,0.028551,0.001000,0.001000,0.001000,0.001000,0.001000
1007.307692,0.027588,0.001000,0.001000,0.001000,0.001000,0.001000
1007.326923,0.026611,0.001000,0.001000,0.001000,0.001000,0.001000
1007.346154,0.025619,0.001000,0.001000,0.001000,0.001000,0.001000
1007.365385,0.024613,0.001000,0.001000,0.001000,0.001000,0.001000
1007.384615,0.023594,0.001000,0.001000,0.001000,0.001000,0.001000
1007.403846,0.022562,0.001000,0.001000,0.001000,0.001000,0.001000
1007.423077,0.021518,0.001000,0.001000,0.001000,0.001000,0.001000
1007.442308,0.020463,0.001000,0.001000,0.001000,0.001000,0.001000
1007.461538,0.019396,0.001000,0.001000,0.001000,0.001000,0.001000
1007.480769,0.018319,0.001000,0.001000,0.001000,0.001000,0.001000
1007.500000,0.017232,0.001000,0.001000,0.001000,0.001000,0.001000
1007.519231,0.016135,0.001000,0.001000,0.001000,0.001000,0.001000
1007.538462,0.015030,0.001000,0.001000,0.001000,0.001000,0.001000
1007.557692,0.013916,0.001000,0.001000,0.001000,0.001000,0.001000
1007.576923,0.012796,0.001000,0.001000,0.001000,0.001000,0.001000
1007.596154,0.011668,0.001000,0.001000,0.001000,0.001000,0.001000
1007.615385,0.010534,0.001000,0.001000,0.001000,0.001000,0.001000
1007.634615,0.009394,0.001000,0.001000,0.001000,0.001000,0.001000
1007.653846,0.008249,0.001000,0.001000,0.001000,0.001000,0.001000
1007.673077,0.007099,0.001000,0.001000,0.001000,0.001000,0.001000
1007.692308,0.005946,0.001000,0.001000,0.001000,0.001000,0.001000
1007.711538,0.004790,0.001000,0.001000,0.001000,0.001000,0.001000
1007.730769,0.003631,0.001000,0.001000,0.001000,0.001000,0.001000
1007.750000,0.002470,0.001000,0.001000,0.001000,0.001000,0.001000
1007.769231,0.001307,0.001000,0.001000,0.001000,0.001000,0.001000
1007.788462,0.000144,0.001000,0.001000,0.001000,0.001000,0.001000
1007.807692,-0.001019,0.001000,0.001000,0.001000,0.001000,0.001000
1007.826923,-0.002181,0.001000,0.001000,0.001000,0.001000,0.001000
1007.846154,-0.003343,0.001000,0.001000,0.001000,0.001000,0.001000
1007.865385,-0.004502,0.001000,0.001000,0.001000,0.001000,0.001000
1007.884615,-0.005660,0.001000,0.001000,0.001000,0.001000,0.001000
1007.903846,-0.006814,0.001000,0.001000,0.001000,0.001000,0.001000
1007.923077,-0.007964,0.001000,0.001000,0.001000,0.001000,0.001000
1007.942308,-0.009110,0.001000,0.001000,0.001000,0.001000,0.001000
1007.961538,-0.010251,0.001000,0.001000,0.001000,0.001000,0.001000
1007.980769,-0.011387,0.001000,0.001000,0.001000,0.001000,0.001000
1008.000000,-0.012516,0.001000,0.001000,0.001000,0.001000,0.001000
1008.019231,-0.013639,0.001000,0.001000,0.001000,0.001000,0.001000
1008.038462,-0.014754,0.001000,0.001000,0.001000,0.001000,0.001000
1008.057692,-0.015862,0.001000,0.001000,0.001000,0.001000,0.001000
1008.076923,-0.016960,0.001000,0.001000,0.001000,0.001000,0.001000
1008.096154,-0.018050,0.001000,0.001000,0.001000,0.001000,0.001000
1008.115385,-0.019130,0.001000,0.001000,0.001000,0.001000,0.001000
1008.134615,-0.020199,0.001000,0.001000,0.001000,0.001000,0.001000
1008.153846,-0.021258,0.001000,0.001000,0.001000,0.001000,0.001000
1008.173077,-0.022305,0.001000,0.001000,0.001000,0.001000,0.001000
1008.192308,-0.023339,0.001000,0.001000,0.001000,0.001000,0.001000
1008.211538,-0.024362,0.001000,0.001000,0.001000,0.001000,0.001000
1008.230769,-0.025371,0.001000,0.001000,0.001000,0.001000,0.001000
1008.250000,-0.026366,0.001000,0.001000,0.001000,0.001000,0.001000
1008.269231,-0.027347,0.001000,0.001000,0.001000,0.001000,0.001000
1008.288462,-0.028314,0.001000,0.001000,0.001000,0.001000,0.001000
1008.307692,-0.029265,0.001000,0.001000,0.001000,0.001000,0.001000
1008.326923,-0.030200,0.001000,0.001000,0.001000,0.001000,0.001000
1008.346154,-0.031119,0.001000,0.001000,0.001000,0.001000,0.001000
1008.365385,-0.032021,0.001000,0.001000,0.001000,0.001000,0.001000
1008.384615,-0.032905,0.001000,0.001000,0.001000,0.001000,0.001000
1008.403846,-0.033772,0.001000,0.001000,0.001000,0.001000,0.001000
1008.423077,-0.034620,0.001000,0.001000,0.001000,0.001000,0.001000
1008.442308,-0.035450,0.001000,0.001000,0.001000,0.001000,0.001000
1008.461538,-0.036261,0.001000,0.001000,0.001000,0.001000,0.001000
1008.480769,-0.037052,0.001000,0.001000,0.001000,0.001000,0.001000
1008.500000,-0.037823,0.001000,0.001000,0.001000,0.001000,0.001000
1008.519231,-0.038573,0.001000,0.001000,0.001000,0.001000,0.001000
1008.538462,-0.039303,0.001000,0.001000,0.001000,0.001000,0.001000
1008.557692,-0.040011,0.001000,0.001000,0.001000,0.001000,0.001000
1008.576923,-0.040698,0.001000,0.001000,0.001000,0.001000,0.001000
1008.596154,-0.041363,0.001000,0.001000,0.001000,0.001000,0.001000
1008.615385,-0.042005,0.001000,0.001000,0.001000,0.001000,0.001000
1008.634615,-0.042624,0.001000,0.001000,0.001000,0.001000,0.001000
1008.653846,-0.043221,0.001000,0.001000,0.001000,0.001000,0.001000
1008.673077,-0.043794,0.001000,0.001000,0.001000,0.001000,0.001000
1008.692308,-0.044343,0.001000,0.001000,0.001000,0.001000,0.001000
1008.711538,-0.044869,0.001000,0.001000,0.001000,0.001000,0.001000
1008.730769,-0.045370,0.001000,0.001000,0.001000,0.001000,0.001000
1008.750000,-0.045846,0.001000,0.001000,0.001000,0.001000,0.001000
1008.769231,-0.046298,0.001000,0.001000,0.001000,0.001000,0.001000
1008.788462,-0.046725,0.001000,0.001000,0.001000,0.001000,0.001000
1008.807692,-0.047126,0.001000,0.001000,0.001000,0.001000,0.001000
1008.826923,-0.047502,0.001000,0.001000,0.001000,0.001000,0.001000
1008.846154,-0.047852,0.001000,0.001000,0.001000,0.001000,0.001000
1008.865385,-0.048176,0.001000,0.001000,0.001000,0.001000,0.001000
1008.884615,-0.048475,0.001000,0.001000,0.001000,0.001000,0.001000
1008.903846,-0.048747,0.001000,0.001000,0.001000,0.001000,0.001000
1008.923077,-0.048992,0.001000,0.001000,0.001000,0.001000,0.001000
1008.942308,-0.049211,0.001000,0.001000,0.001000,0.001000,0.001000
1008.961538,-0.049404,0.001000,0.001000,0.001000,0.001000,0.001000
1008.980769,-0.049570,0.001000,0.001000,0.001000,0.001000,0.001000
1009.000000,-0.049708,0.001000,0.001000,0.001000,0.001000,0.001000
1009.019231,-0.049820,0.001000,0.001000,0.001000,0.001000,0.001000
1009.038462,-0.049905,0.001000,0.001000,0.001000,0.001000,0.001000
1009.057692,-0.049963,0.001000,0.001000,0.001000,0.001000,0.001000
1009.076923,-0.049994,0.001000,0.001000,0.001000,0.001000,0.001000
1009.096154,-0.049998,0.001000,0.001000,0.001000,0.001000,0.001000
1009.115385,-0.049975,0.001000,0.001000,0.001000,0.001000,0.001000
1009.134615,-0.049925,0.001000,0.001000,0.001000,0.001000,0.001000
1009.153846,-0.049848,0.001000,0.001000,0.001000,0.001000,0.001000
1009.173077,-0.049744,0.001000,0.001000,0.001000,0.001000,0.001000
1009.192308,-0.049612,0.001000,0.001000,0.001000,0.001000,0.001000
1009.211538,-0.049455,0.001000,0.001000,0.001000,0.001000,0.001000
1009.230769,-0.049270,0.001000,0.001000,0.001000,0.001000,0.001000
1009.250000,-0.049058,0.001000,0.001000,0.001000,0.001000,0.001000
1009.269231,-0.048820,0.001000,0.001000,0.001000,0.001000,0.001000
1009.288462,-0.048556,0.001000,0.001000,0.001000,0.001000,0.001000
1009.307692,-0.048265,0.001000,0.001000,0.001000,0.001000,0.001000
1009.326923,-0.047949,0.001000,0.001000,0.001000,0.001000,0.001000
1009.346154,-0.047606,0.001000,0.001000,0.001000,0.001000,0.001000
1009.365385,-0.047238,0.001000,0.001000,0.001000,0.001000,0.001000
1009.384615,-0.046844,0.001000,0.001000,0.001000,0.001000,0.001000
1009.403846,-0.046424,0.001000,0.001000,0.001000,0.001000,0.001000
1009.423077,-0.045980,0.001000,0.001000,0.001000,0.001000,0.001000
1009.442308,-0.045510,0.001000,0.001000,0.001000,0.001000,0.001000
1009.461538,-0.045016,0.001000,0.001000,0.001000,0.001000,0.001000
1009.480769,-0.044498,0.001000,0.001000,0.001000,0.001000,0.001000
1009.500000,-0.043955,0.001000,0.001000,0.001000,0.001000,0.001000
1009.519231,-0.043389,0.001000,0.001000,0.001000,0.001000,0.001000
1009.538462,-0.042799,0.001000,0.001000,0.001000,0.001000,0.001000
1009.557692,-0.042187,0.001000,0.001000,0.001000,0.001000,0.001000
1009.576923,-0.041551,0.001000,0.001000,0.001000,0.001000,0.001000
1009.596154,-0.040893,0.001000,0.001000,0.001000,0.001000,0.001000
1009.615385,-0.040212,0.001000,0.001000,0.001000,0.001000,0.001000
1009.634615,-0.039510,0.001000,0.001000,0.001000,0.001000,0.001000
1009.653846,-0.038787,0.001000,0.001000,0.001000,0.001000,0.001000
1009.673077,-0.038042,0.001000,0.001000,0.001000,0.001000,0.001000
1009.692308,-0.037277,0.001000,0.001000,0.001000,0.001000,0.001000
1009.711538,-0.036492,0.001000,0.001000,0.001000,0.001000,0.001000
1009.730769,-0.035687,0.001000,0.001000,0.001000,0.001000,0.001000
1009.750000,-0.034863,0.001000,0.001000,0.001000,0.001000,0.001000
1009.769231,-0.034019,0.001000,0.001000,0.001000,0.001000,0.001000
1009.788462,-0.033158,0.001000,0.001000,0.001000,0.001000,0.001000
1009.807692,-0.032278,0.001000,0.001000,0.001000,0.001000,0.001000
1009.826923,-0.031381,0.001000,0.001000,0.001000,0.001000,0.001000
1009.846154,-0.030467,0.001000,0.001000,0.001000,0.001000,0.001000
1009.865385,-0.029537,0.001000,0.001000,0.001000,0.001000,0.001000
1009.884615,-0.028590,0.001000,0.001000,0.001000,0.001000,0.001000
1009.903846,-0.027629,0.001000,0.001000,0.001000,0.001000,0.001000
1009.923077,-0.026652,0.001000,0.001000,0.001000,0.001000,0.001000
1009.942308,-0.025660,0.001000,0.001000,0.001000,0.001000,0.001000
1009.961538,-0.024655,0.001000,0.001000,0.001000,0.001000,0.001000
1009.980769,-0.023637,0.001000,0.001000,0.001000,0.001000,0.001000
1010.000000,-0.022605,0.001000,0.001000,0.001000,0.001000,0.001000
1010.019231,-0.021562,0.001000,0.001000,0.001000,0.001000,0.001000
1010.038462,-0.020507,0.001000,0.001000,0.001000,0.001000,0.001000
1010.057692,-0.019440,0.001000,0.001000,0.001000,0.001000,0.001000
1010.076923,-0.018363,0.001000,0.001000,0.001000,0.001000,0.001000
1010.096154,-0.017277,0.001000,0.001000,0.001000,0.001000,0.001000
1010.115385,-0.016181,0.001000,0.001000,0.001000,0.001000,0.001000
1010.134615,-0.015076,0.001000,0.001000,0.001000,0.001000,0.001000
1010.153846,-0.013963,0.001000,0.001000,0.001000,0.001000,0.001000
1010.173077,-0.012842,0.001000,0.001000,0.001000,0.001000,0.001000
1010.192308,-0.011714,0.001000,0.001000,0.001000,0.001000,0.001000
1010.211538,-0.010581,0.001000,0.001000,0.001000,0.001000,0.001000
1010.230769,-0.009441,0.001000,0.001000,0.001000,0.001000,0.001000
1010.250000,-0.008296,0.001000,0.001000,0.001000,0.001000,0.001000
1010.269231,-0.007147,0.001000,0.001000,0.001000,0.001000,0.001000
1010.288462,-0.005994,0.001000,0.001000,0.001000,0.001000,0.001000
1010.307692,-0.004838,0.001000,0.001000,0.001000,0.001000,0.001000
1010.326923,-0.003679,0.001000,0.001000,0.001000,0.001000,0.001000
1010.346154,-0.002518,0.001000,0.001000,0.001000,0.001000,0.001000
1010.365385,-0.001355,0.001000,0.001000,0.001000,0.001000,0.001000
1010.384615,-0.000192,0.001000,0.001000,0.001000,0.001000,0.001000
1010.403846,0.000971,0.001000,0.001000,0.001000,0.001000,0.001000
1010.423077,0.002133,0.001000,0.001000,0.001000,0.001000,0.001000
1010.442308,0.003295,0.001000,0.001000,0.001000,0.001000,0.001000
1010.461538,0.004454,0.001000,0.001000,0.001000,0.001000,0.001000
1010.480769,0.005612,0.001000,0.001000,0.001000,0.001000,0.001000
1010.500000,0.006766,0.001000,0.001000,0.001000,0.001000,0.001000
1010.519231,0.007917,0.001000,0.001000,0.001000,0.001000,0.001000
1010.538462,0.009063,0.001000,0.001000,0.001000,0.001000,0.001000
1010.557692,0.010204,0.001000,0.001000,0.001000,0.001000,0.001000
1010.576923,0.011340,0.001000,0.001000,0.001000,0.001000,0.001000
1010.596154,0.012470,0.001000,0.001000,0.001000,0.001000,0.001000
1010.615385,0.013593,0.001000,0.001000,0.001000,0.001000,0.001000
1010.634615,0.014708,0.001000,0.001000,0.001000,0.001000,0.001000
1010.653846,0.015816,0.001000,0.001000,0.001000,0.001000,0.001000
1010.673077,0.016915,0.001000,0.001000,0.001000,0.001000,0.001000
1010.692308,0.018005,0.001000,0.001000,0.001000,0.001000,0.001000
1010.711538,0.019085,0.001000,0.001000,0.001000,0.001000,0.001000
1010.730769,0.020155,0.001000,0.001000,0.001000,0.001000,0.001000
1010.750000,0.021214,0.001000,0.001000,0.001000,0.001000,0.001000
1010.769231,0.022261,0.001000,0.001000,0.001000,0.001000,0.001000
1010.788462,0.023297,0.001000,0.001000,0.001000,0.001000,0.001000
1010.807692,0.024320,0.001000,0.001000,0.001000,0.001000,0.001000
1010.826923,0.025329,0.001000,0.001000,0.001000,0.001000,0.001000
1010.846154,0.026325,0.001000,0.001000,0.001000,0.001000,0.001000
1010.865385,0.027307,0.001000,0.001000,0.001000,0.001000,0.001000
1010.884615,0.028274,0.001000,0.001000,0.001000,0.001000,0.001000
1010.903846,0.029226,0.001000,0.001000,0.001000,0.001000,0.001000
1010.923077,0.030161,0.001000,0.001000,0.001000,0.001000,0.001000
1010.942308,0.031081,0.001000,0.001000,0.001000,0.001000,0.001000
1010.961538,0.031984,0.001000,0.001000,0.001000,0.001000,0.001000
1010.980769,0.032869,0.001000,0.001000,0.001000,0.001000,0.001000
1011.000000,0.033736,0.001000,0.001000,0.001000,0.001000,0.001000
1011.019231,0.034586,0.001000,0.001000,0.001000,0.001000,0.001000
1011.038462,0.035416,0.001000,0.001000,0.001000,0.001000,0.001000
1011.057692,0.036228,0.001000,0.001000,0.001000,0.001000,0.001000
1011.076923,0.037020,0.001000,0.001000,0.001000,0.001000,0.001000
1011.096154,0.037791,0.001000,0.001000,0.001000,0.001000,0.001000
1011.115385,0.038543,0.001000,0.001000,0.001000,0.001000,0.001000
1011.134615,0.039273,0.001000,0.001000,0.001000,0.001000,0.001000
1011.153846,0.039982,0.001000,0.001000,0.001000,0.001000,0.001000
1011.173077,0.040670,0.001000,0.001000,0.001000,0.001000,0.001000
1011.192308,0.041336,0.001000,0.001000,0.001000,0.001000,0.001000
1011.211538,0.041979,0.001000,0.001000,0.001000,0.001000,0.001000
1011.230769,0.042599,0.001000,0.001000,0.001000,0.001000,0.001000
1011.250000,0.043197,0.001000,0.001000,0.001000,0.001000,0.001000
1011.269231,0.043771,0.001000,0.001000,0.001000,0.001000,0.001000
1011.288462,0.044321,0.001000,0.001000,0.001000,0.001000,0.001000
1011.307692,0.044847,0.001000,0.001000,0.001000,0.001000,0.001000
1011.326923,0.045350,0.001000,0.001000,0.001000,0.001000,0.001000
1011.346154,0.045827,0.001000,0.001000,0.001000,0.001000,0.001000
1011.365385,0.046280,0.001000,0.001000,0.001000,0.001000,0.001000
1011.384615,0.046708,0.001000,0.001000,0.001000,0.001000,0.001000
1011.403846,0.047110,0.001000,0.001000,0.001000,0.001000,0.001000
1011.423077,0.047487,0.001000,0.001000,0.001000,0.001000,0.001000
1011.442308,0.047838,0.001000,0.001000,0.001000,0.001000,0.001000
1011.461538,0.048164,0.001000,0.001000,0.001000,0.001000,0.001000
1011.480769,0.048463,0.001000,0.001000,0.001000,0.001000,0.001000
1011.500000,0.048736,0.001000,0.001000,0.001000,0.001000,0.001000
1011.519231,0.048983,0.001000,0.001000,0.001000,0.001000,0.001000
1011.538462,0.049203,0.001000,0.001000,0.001000,0.001000,0.001000
1011.557692,0.049396,0.001000,0.001000,0.001000,0.001000,0.001000
1011.576923,0.049563,0.001000,0.001000,0.001000,0.001000,0.001000
1011.596154,0.049703,0.001000,0.001000,0.001000,0.001000,0.001000
1011.615385,0.049816,0.001000,0.001000,0.001000,0.001000,0.001000
1011.634615,0.049902,0.001000,0.001000,0.001000,0.001000,0.001000
1011.653846,0.049962,0.001000,0.001000,0.001000,0.001000,0.001000
1011.673077,0.049994,0.001000,0.001000,0.001000,0.001000,0.001000
1011.692308,0.049999,0.001000,0.001000,0.001000,0.001000,0.001000
1011.711538,0.049977,0.001000,0.001000,0.001000,0.001000,0.001000
1011.730769,0.049928,0.001000,0.001000,0.001000,0.001000,0.001000
1011.750000,0.049851,0.001000,0.001000,0.001000,0.001000,0.001000
1011.769231,0.049748,0.001000,0.001000,0.001000,0.001000,0.001000
1011.788462,0.049618,0.001000,0.001000,0.001000,0.001000,0.001000
1011.807692,0.049462,0.001000,0.001000,0.001000,0.001000,0.001000
1011.826923,0.049278,0.001000,0.001000,0.001000,0.001000,0.001000
1011.846154,0.049068,0.001000,0.001000,0.001000,0.001000,0.001000
1011.865385,0.048831,0.001000,0.001000,0.001000,0.001000,0.001000
1011.884615,0.048568,0.001000,0.001000,0.001000,0.001000,0.001000
1011.903846,0.048278,0.001000,0.001000,0.001000,0.001000,0.001000
1011.923077,0.047962,0.001000,0.001000,0.001000,0.001000,0.001000
1011.942308,0.047621,0.001000,0.001000,0.001000,0.001000,0.001000
1011.961538,0.047253,0.001000,0.001000,0.001000,0.001000,0.001000
1011.980769,0.046860,0.001000,0.001000,0.001000,0.001000,0.001000
1012.000000,0.046442,0.001000,0.001000,0.001000,0.001000,0.001000
1012.019231,0.045999,0.001000,0.001000,0.001000,0.001000,0.001000
1012.038462,0.045530,0.001000,0.001000,0.001000,0.001000,0.001000
1012.057692,0.045037,0.001000,0.001000,0.001000,0.001000,0.001000
1012.076923,0.044520,0.001000,0.001000,0.001000,0.001000,0.001000
1012.096154,0.043978,0.001000,0.001000,0.001000,0.001000,0.001000
1012.115385,0.043413,0.001000,0.001000,0.001000,0.001000,0.001000
1012.134615,0.042824,0.001000,0.001000,0.001000,0.001000,0.001000
1012.153846,0.042212,0.001000,0.001000,0.001000,0.001000,0.001000
1012.173077,0.041578,0.001000,0.001000,0.001000,0.001000,0.001000
1012.192308,0.040920,0.001000,0.001000,0.001000,0.001000,0.001000
1012.211538,0.040241,0.001000,0.001000,0.001000,0.001000,0.001000
1012.230769,0.039540,0.001000,0.001000,0.001000,0.001000,0.001000
1012.250000,0.038817,0.001000,0.001000,0.001000,0.001000,0.001000
1012.269231,0.038073,0.001000,0.001000,0.001000,0.001000,0.001000
1012.288462,0.037309,0.001000,0.001000,0.001000,0.001000,0.001000
1012.307692,0.036525,0.001000,0.001000,0.001000,0.001000,0.001000
1012.326923,0.035721,0.001000,0.001000,0.001000,0.001000,0.001000
1012.346154,0.034897,0.001000,0.001000,0.001000,0.001000,0.001000
1012.365385,0.034055,0.001000,0.001000,0.001000,0.001000,0.001000
1012.384615,0.033194,0.001000,0.001000,0.001000,0.001000,0.001000
1012.403846,0.032315,0.001000,0.001000,0.001000,0.001000,0.001000
1012.423077,0.031419,0.001000,0.001000,0.001000,0.001000,0.001000
1012.442308,0.030506,0.001000,0.001000,0.001000,0.001000,0.001000
1012.461538,0.029576,0.001000,0.001000,0.001000,0.001000,0.001000
1012.480769,0.028630,0.001000,0.001000,0.001000,0.001000,0.001000
1012.500000,0.027669,0.001000,0.001000,0.001000,0.001000,0.001000
1012.519231,0.026692,0.001000,0.001000,0.001000,0.001000,0.001000
1012.538462,0.025702,0.001000,0.001000,0.001000,0.001000,0.001000
1012.557692,0.024697,0.001000,0.001000,0.001000,0.001000,0.001000
1012.576923,0.023679,0.001000,0.001000,0.001000,0.001000,0.001000
1012.596154,0.022648,0.001000,0.001000,0.001000,0.001000,0.001000
1012.615385,0.021605,0.001000,0.001000,0.001000,0.001000,0.001000
1012.634615,0.020550,0.001000,0.001000,0.001000,0.001000,0.001000
1012.653846,0.019485,0.001000,0.001000,0.001000,0.001000,0.001000
1012.673077,0.018408,0.001000,0.001000,0.001000,0.001000,0.001000
1012.692308,0.017322,0.001000,0.001000,0.001000,0.001000,0.001000
1012.711538,0.016226,0.001000,0.001000,0.001000,0.001000,0.001000
1012.730769,0.015121,0.001000,0.001000,0.001000,0.001000,0.001000
1012.750000,0.014009,0.001000,0.001000,0.001000,0.001000,0.001000
1012.769231,0.012888,0.001000,0.001000,0.001000,0.001000,0.001000
1012.788462,0.011761,0.001000,0.001000,0.001000,0.001000,0.001000
1012.807692,0.010628,0.001000,0.001000,0.001000,0.001000,0.001000
1012.826923,0.009488,0.001000,0.001000,0.001000,0.001000,0.001000
1012.846154,0.008344,0.001000,0.001000,0.001000,0.001000,0.001000
1012.865385,0.007195,0.001000,0.001000,0.001000,0.001000,0.001000
1012.884615,0.006042,0.001000,0.001000,0.001000,0.001000,0.001000
1012.903846,0.004885,0.001000,0.001000,0.001000,0.001000,0.001000
1012.923077,0.003727,0.001000,0.001000,0.001000,0.001000,0.001000
1012.942308,0.002566,0.001000,0.001000,0.001000,0.001000,0.001000
1012.961538,0.001404,0.001000,0.001000,0.001000,0.001000,0.001000
1012.980769,0.000240,0.001000,0.001000,0.001000,0.001000,0.001000
1013.000000,-0.000923,0.001000,0.001000,0.001000,0.001000,0.001000
1013.019231,-0.002085,0.001000,0.001000,0.001000,0.001000,0.001000
1013.038462,-0.003247,0.001000,0.001000,0.001000,0.001000,0.001000
1013.057692,-0.004407,0.001000,0.001000,0.001000,0.001000,0.001000
1013.076923,-0.005564,0.001000,0.001000,0.001000,0.001000,0.001000
1013.096154,-0.006718,0.001000,0.001000,0.001000,0.001000,0.001000
1013.115385,-0.007869,0.001000,0.001000,0.001000,0.001000,0.001000
1013.134615,-0.009016,0.001000,0.001000,0.001000,0.001000,0.001000
1013.153846,-0.010157,0.001000,0.001000,0.001000,0.001000,0.001000
1013.173077,-0.011293,0.001000,0.001000,0.001000,0.001000,0.001000
1013.192308,-0.012423,0.001000,0.001000,0.001000,0.001000,0.001000
1013.211538,-0.013546,0.001000,0.001000,0.001000,0.001000,0.001000
1013.230769,-0.014662,0.001000,0.001000,0.001000,0.001000,0.001000
1013.250000,-0.015770,0.001000,0.001000,0.001000,0.001000,0.001000
1013.269231,-0.016870,0.001000,0.001000,0.001000,0.001000,0.001000
1013.288462,-0.017960,0.001000,0.001000,0.001000,0.001000,0.001000
1013.307692,-0.019041,0.001000,0.001000,0.001000,0.001000,0.001000
1013.326923,-0.020111,0.001000,0.001000,0.001000,0.001000,0.001000
1013.346154,-0.021170,0.001000,0.001000,0.001000,0.001000,0.001000
1013.365385,-0.022218,0.001000,0.001000,0.001000,0.001000,0.001000
1013.384615,-0.023254,0.001000,0.001000,0.001000,0.001000,0.001000
1013.403846,-0.024278,0.001000,0.001000,0.001000,0.001000,0.001000
1013.423077,-0.025288,0.001000,0.001000,0.001000,0.001000,0.001000
1013.442308,-0.026284,0.001000,0.001000,0.001000,0.001000,0.001000
1013.461538,-0.027267,0.001000,0.001000,0.001000,0.001000,0.001000
1013.480769,-0.028234,0.001000,0.001000,0.001000,0.001000,0.001000
1013.500000,-0.029187,0.001000,0.001000,0.001000,0.001000,0.001000
1013.519231,-0.030123,0.001000,0.001000,0.001000,0.001000,0.001000
1013.538462,-0.031043,0.001000,0.001000,0.001000,0.001000,0.001000
1013.557692,-0.031947,0.001000,0.001000,0.001000,0.001000,0.001000
1013.576923,-0.032833,0.001000,0.001000,0.001000,0.001000,0.001000
1013.596154,-0.033701,0.001000,0.001000,0.001000,0.001000,0.001000
1013.615385,-0.034551,0.001000,0.001000,0.001000,0.001000,0.001000
1013.634615,-0.035382,0.001000,0.001000,0.001000,0.001000,0.001000
1013.653846,-0.036195,0.001000,0.001000,0.001000,0.001000,0.001000
1013.673077,-0.036987,0.001000,0.001000,0.001000,0.001000,0.001000
1013.692308,-0.037760,0.001000,0.001000,0.001000,0.001000,0.001000
1013.711538,-0.038512,0.001000,0.001000,0.001000,0.001000,0.001000
1013.730769,-0.039243,0.001000,0.001000,0.001000,0.001000,0.001000
1013.750000,-0.039954,0.001000,0.001000,0.001000,0.001000,0.001000
1013.769231,-0.040642,0.001000,0.001000,0.001000,0.001000,0.001000
1013.788462,-0.041308,0.001000,0.001000,0.001000,0.001000,0.001000
1013.807692,-0.041953,0.001000,0.001000,0.001000,0.001000,0.001000
1013.826923,-0.042574,0.001000,0.001000,0.001000,0.001000,0.001000
1013.846154,-0.043172,0.001000,0.001000,0.001000,0.001000,0.001000
1013.865385,-0.043747,0.001000,0.001000,0.001000,0.001000,0.001000
1013.884615,-0.044299,0.001000,0.001000,0.001000,0.001000,0.001000
1013.903846,-0.044826,0.001000,0.001000,0.001000,0.001000,0.001000
1013.923077,-0.045329,0.001000,0.001000,0.001000,0.001000,0.001000
1013.942308,-0.045808,0.001000,0.001000,0.001000,0.001000,0.001000
1013.961538,-0.046262,0.001000,0.001000,0.001000,0.001000,0.001000
1013.980769,-0.046690,0.001000,0.001000,0.001000,0.001000,0.001000
1014.000000,-0.047094,0.001000,0.001000,0.001000,0.001000,0.001000
1014.019231,-0.047472,0.001000,0.001000,0.001000,0.001000,0.001000
1014.038462,-0.047824,0.001000,0.001000,0.001000,0.001000,0.001000
1014.057692,-0.048151,0.001000,0.001000,0.001000,0.001000,0.001000
1014.076923,-0.048451,0.001000,0.001000,0.001000,0.001000,0.001000
1014.096154,-0.048725,0.001000,0.001000,0.001000,0.001000,0.001000
1014.115385,-0.048973,0.001000,0.001000,0.001000,0.001000,0.001000
1014.134615,-0.049194,0.001000,0.001000,0.001000,0.001000,0.001000
1014.153846,-0.049389,0.001000,0.001000,0.001000,0.001000,0.001000
1014.173077,-0.049557,0.001000,0.001000,0.001000,0.001000,0.001000
1014.192308,-0.049698,0.001000,0.001000,0.001000,0.001000,0.001000
1014.211538,-0.049812,0.001000,0.001000,0.001000,0.001000,0.001000
1014.230769,-0.049899,0.001000,0.001000,0.001000,0.001000,0.001000
1014.250000,-0.049960,0.001000,0.001000,0.001000,0.001000,0.001000
1014.269231,-0.049993,0.001000,0.001000,0.001000,0.001000,0.001000
1014.288462,-0.049999,0.001000,0.001000,0.001000,0.001000,0.001000
1014.307692,-0.049978,0.001000,0.001000,0.001000,0.001000,0.001000
1014.326923,-0.049930,0.001000,0.001000,0.001000,0.001000,0.001000
1014.346154,-0.049855,0.001000,0.001000,0.001000,0.001000,0.001000
1014.365385,-0.049753,0.001000,0.001000,0.001000,0.001000,0.001000
1014.384615,-0.049624,0.001000,0.001000,0.001000,0.001000,0.001000
1014.403846,-0.049469,0.001000,0.001000,0.001000,0.001000,0.001000
1014.423077,-0.049286,0.001000,0.001000,0.001000,0.001000,0.001000
1014.442308,-0.049077,0.001000,0.001000,0.001000,0.001000,0.001000
1014.461538,-0.048841,0.001000,0.001000,0.001000,0.001000,0.001000
1014.480769,-0.048579,0.001000,0.001000,0.001000,0.001000,0.001000
1014.500000,-0.048291,0.001000,0.001000,0.001000,0.001000,0.001000
1014.519231,-0.047976,0.001000,0.001000,0.001000,0.001000,0.001000
1014.538462,-0.047635,0.001000,0.001000,0.001000,0.001000,0.001000
1014.557692,-0.047269,0.001000,0.001000,0.001000,0.001000,0.001000
1014.576923,-0.046877,0.001000,0.001000,0.001000,0.001000,0.001000
1014.596154,-0.046460,0.001000,0.001000,0.001000,0.001000,0.001000
1014.615385,-0.046017,0.001000,0.001000,0.001000,0.001000,0.001000
1014.634615,-0.045550,0.001000,0.001000,0.001000,0.001000,0.001000
1014.653846,-0.045058,0.001000,0.001000,0.001000,0.001000,0.001000
1014.673077,-0.044542,0.001000,0.001000,0.001000,0.001000,0.001000
1014.692308,-0.044001,0.001000,0.001000,0.001000,0.001000,0.001000
1014.711538,-0.043437,0.001000,0.001000,0.001000,0.001000,0.001000
1014.730769,-0.042849,0.001000,0.001000,0.001000,0.001000,0.001000
1014.750000,-0.042238,0.001000,0.001000,0.001000,0.001000,0.001000
1014.769231,-0.041604,0.001000,0.001000,0.001000,0.001000,0.001000
1014.788462,-0.040948,0.001000,0.001000,0.001000,0.001000,0.001000
1014.807692,-0.040269,0.001000,0.001000,0.001000,0.001000,0.001000
1014.826923,-0.039569,0.001000,0.001000,0.001000,0.001000,0.001000
1014.846154,-0.038847,0.001000,0.001000,0.001000,0.001000,0.001000
1014.865385,-0.038105,0.001000,0.001000,0.001000,0.001000,0.001000
1014.884615,-0.037341,0.001000,0.001000,0.001000,0.001000,0.001000
1014.903846,-0.036558,0.001000,0.001000,0.001000,0.001000,0.001000
1014.923077,-0.035754,0.001000,0.001000,0.001000,0.001000,0.001000
1014.942308,-0.034932,0.001000,0.001000,0.001000,0.001000,0.001000
1014.961538,-0.034090,0.001000,0.001000,0.001000,0.001000,0.001000
1014.980769,-0.033230,0.001000,0.001000,0.001000,0.001000,0.001000
1015.000000,-0.032352,0.001000,0.001000,0.001000,0.001000,0.001000
1015.019231,-0.031456,0.001000,0.001000,0.001000,0.001000,0.001000
1015.038462,-0.030544,0.001000,0.001000,0.001000,0.001000,0.001000
1015.057692,-0.029614,0.001000,0.001000,0.001000,0.001000,0.001000
1015.076923,-0.028669,0.001000,0.001000,0.001000,0.001000,0.001000
1015.096154,-0.027709,0.001000,0.001000,0.001000,0.001000,0.001000
1015.115385,-0.026733,0.001000,0.001000,0.001000,0.001000,0.001000
1015.134615,-0.025743,0.001000,0.001000,0.001000,0.001000,0.001000
1015.153846,-0.024739,0.001000,0.001000,0.001000,0.001000,0.001000
1015.173077,-0.023721,0.001000,0.001000,0.001000,0.001000,0.001000
1015.192308,-0.022691,0.001000,0.001000,0.001000,0.001000,0.001000
1015.211538,-0.021649,0.001000,0.001000,0.001000,0.001000,0.001000
1015.230769,-0.020594,0.001000,0.001000,0.001000,0.001000,0.001000
1015.250000,-0.019529,0.001000,0.001000,0.001000,0.001000,0.001000
1015.269231,-0.018453,0.001000,0.001000,0.001000,0.001000,0.001000
1015.288462,-0.017367,0.001000,0.001000,0.001000,0.001000,0.001000
1015.307692,-0.016272,0.001000,0.001000,0.001000,0.001000,0.001000
1015.326923,-0.015167,0.001000,0.001000,0.001000,0.001000,0.001000
1015.346154,-0.014055,0.001000,0.001000,0.001000,0.001000,0.001000
1015.365385,-0.012935,0.001000,0.001000,0.001000,0.001000,0.001000
1015.384615,-0.011808,0.001000,0.001000,0.001000,0.001000,0.001000
1015.403846,-0.010675,0.001000,0.001000,0.001000,0.001000,0.001000
1015.423077,-0.009535,0.001000,0.001000,0.001000,0.001000,0.001000
1015.442308,-0.008391,0.001000,0.001000,0.001000,0.001000,0.001000
1015.461538,-0.007242,0.001000,0.001000,0.001000,0.001000,0.001000
1015.480769,-0.006089,0.001000,0.001000,0.001000,0.001000,0.001000
1015.500000,-0.004933,0.001000,0.001000,0.001000,0.001000,0.001000
1015.519231,-0.003775,0.001000,0.001000,0.001000,0.001000,0.001000
1015.538462,-0.002614,0.001000,0.001000,0.001000,0.001000,0.001000
1015.557692,-0.001452,0.001000,0.001000,0.001000,0.001000,0.001000
1015.576923,-0.000289,0.001000,0.001000,0.001000,0.001000,0.001000
1015.596154,0.000875,0.001000,0.001000,0.001000,0.001000,0.001000
1015.615385,0.002037,0.001000,0.001000,0.001000,0.001000,0.001000
1015.634615,0.003199,0.001000,0.001000,0.001000,0.001000,0.001000
1015.653846,0.004359,0.001000,0.001000,0.001000,0.001000,0.001000
1015.673077,0.005516,0.001000,0.001000,0.001000,0.001000,0.001000
1015.692308,0.006671,0.001000,0.001000,0.001000,0.001000,0.001000
1015.711538,0.007822,0.001000,0.001000,0.001000,0.001000,0.001000
1015.730769,0.008968,0.001000,0.001000,0.001000,0.001000,0.001000
1015.750000,0.010110,0.001000,0.001000,0.001000,0.001000,0.001000
1015.769231,0.011246,0.001000,0.001000,0.001000,0.001000,0.001000
1015.788462,0.012377,0.001000,0.001000,0.001000,0.001000,0.001000
1015.807692,0.013500,0.001000,0.001000,0.001000,0.001000,0.001000
1015.826923,0.014616,0.001000,0.001000,0.001000,0.001000,0.001000
1015.846154,0.015725,0.001000,0.001000,0.001000,0.001000,0.001000
1015.865385,0.016825,0.001000,0.001000,0.001000,0.001000,0.001000
1015.884615,0.017915,0.001000,0.001000,0.001000,0.001000,0.001000
1015.903846,0.018996,0.001000,0.001000,0.001000,0.001000,0.001000
1015.923077,0.020067,0.001000,0.001000,0.001000,0.001000,0.001000
1015.942308,0.021127,0.001000,0.001000,0.001000,0.001000,0.001000
1015.961538,0.022175,0.001000,0.001000,0.001000,0.001000,0.001000
1015.980769,0.023212,0.001000,0.001000,0.001000,0.001000,0.001000
1016.000000,0.024236,0.001000,0.001000,0.001000,0.001000,0.001000
1016.019231,0.025246,0.001000,0.001000,0.001000,0.001000,0.001000
1016.038462,0.026244,0.001000,0.001000,0.001000,0.001000,0.001000
1016.057692,0.027226,0.001000,0.001000,0.001000,0.001000,0.001000
1016.076923,0.028195,0.001000,0.001000,0.001000,0.001000,0.001000
1016.096154,0.029147,0.001000,0.001000,0.001000,0.001000,0.001000
1016.115385,0.030085,0.001000,0.001000,0.001000,0.001000,0.001000
1016.134615,0.031005,0.001000,0.001000,0.001000,0.001000,0.001000
1016.153846,0.031910,0.001000,0.001000,0.001000,0.001000,0.001000
1016.173077,0.032796,0.001000,0.001000,0.001000,0.001000,0.001000
1016.192308,0.033665,0.001000,0.001000,0.001000,0.001000,0.001000
1016.211538,0.034516,0.001000,0.001000,0.001000,0.001000,0.001000
1016.230769,0.035348,0.001000,0.001000,0.001000,0.001000,0.001000
1016.250000,0.036161,0.001000,0.001000,0.001000,0.001000,0.001000
1016.269231,0.036955,0.001000,0.001000,0.001000,0.001000,0.001000
1016.288462,0.037728,0.001000,0.001000,0.001000,0.001000,0.001000
1016.307692,0.038481,0.001000,0.001000,0.001000,0.001000,0.001000
1016.326923,0.039214,0.001000,0.001000,0.001000,0.001000,0.001000
1016.346154,0.039925,0.001000,0.001000,0.001000,0.001000,0.001000
1016.365385,0.040614,0.001000,0.001000,0.001000,0.001000,0.001000
1016.384615,0.041281,0.001000,0.001000,0.001000,0.001000,0.001000
1016.403846,0.041926,0.001000,0.001000,0.001000,0.001000,0.001000
1016.423077,0.042549,0.001000,0.001000,0.001000,0.001000,0.001000
1016.442308,0.043148,0.001000,0.001000,0.001000,0.001000,0.001000
1016.461538,0.043724,0.001000,0.001000,0.001000,0.001000,0.001000
1016.480769,0.044276,0.001000,0.001000,0.001000,0.001000,0.001000
1016.500000,0.044805,0.001000,0.001000,0.001000,0.001000,0.001000
1016.519231,0.045309,0.001000,0.001000,0.001000,0.001000,0.001000
1016.538462,0.045789,0.001000,0.001000,0.001000,0.001000,0.001000
1016.557692,0.046243,0.001000,0.001000,0.001000,0.001000,0.001000
1016.576923,0.046673,0.001000,0.001000,0.001000,0.001000,0.001000
1016.596154,0.047078,0.001000,0.001000,0.001000,0.001000,0.001000
1016.615385,0.047457,0.001000,0.001000,0.001000,0.001000,0.001000
1016.634615,0.047810,0.001000,0.001000,0.001000,0.001000,0.001000
1016.653846,0.048138,0.001000,0.001000,0.001000,0.001000,0.001000
1016.673077,0.048439,0.001000,0.001000,0.001000,0.001000,0.001000
1016.692308,0.048714,0.001000,0.001000,0.001000,0.001000,0.001000
1016.711538,0.048963,0.001000,0.001000,0.001000,0.001000,0.001000
1016.730769,0.049186,0.001000,0.001000,0.001000,0.001000,0.001000
1016.750000,0.049381,0.001000,0.001000,0.001000,0.001000,0.001000
1016.769231,0.049550,0.001000,0.001000,0.001000,0.001000,0.001000
1016.788462,0.049693,0.001000,0.001000,0.001000,0.001000,0.001000
1016.807692,0.049808,0.001000,0.001000,0.001000,0.001000,0.001000
1016.826923,0.049896,0.001000,0.001000,0.001000,0.001000,0.001000
1016.846154,0.049958,0.001000,0.001000,0.001000,0.001000,0.001000
1016.865385,0.049992,0.001000,0.001000,0.001000,0.001000,0.001000
1016.884615,0.049999,0.001000,0.001000,0.001000,0.001000,0.001000
1016.903846,0.049979,0.001000,0.001000,0.001000,0.001000,0.001000
1016.923077,0.049933,0.001000,0.001000,0.001000,0.001000,0.001000
1016.942308,0.049859,0.001000,0.001000,0.001000,0.001000,0.001000
1016.961538,0.049758,0.001000,0.001000,0.001000,0.001000,0.001000
1016.980769,0.049630,0.001000,0.001000,0.001000,0.001000,0.001000
1017.000000,0.049476,0.001000,0.001000,0.001000,0.001000,0.001000
1017.019231,0.049294,0.001000,0.001000,0.001000,0.001000,0.001000
1017.038462,0.049086,0.001000,0.001000,0.001000,0.001000,0.001000
1017.057692,0.048851,0.001000,0.001000,0.001000,0.001000,0.001000
1017.076923,0.048590,0.001000,0.001000,0.001000,0.001000,0.001000
1017.096154,0.048303,0.001000,0.001000,0.001000,0.001000,0.001000
1017.115385,0.047989,0.001000,0.001000,0.001000,0.001000,0.001000
1017.134615,0.047650,0.001000,0.001000,0.001000,0.001000,0.001000
1017.153846,0.047285,0.001000,0.001000,0.001000,0.001000,0.001000
1017.173077,0.046894,0.001000,0.001000,0.001000,0.001000,0.001000
1017.192308,0.046478,0.001000,0.001000,0.001000,0.001000,0.001000
1017.211538,0.046036,0.001000,0.001000,0.001000,0.001000,0.001000
1017.230769,0.045570,0.001000,0.001000,0.001000,0.001000,0.001000
1017.250000,0.045079,0.001000,0.001000,0.001000,0.001000,0.001000
1017.269231,0.044564,0.001000,0.001000,0.001000,0.001000,0.001000
1017.288462,0.044024,0.001000,0.001000,0.001000,0.001000,0.001000
1017.307692,0.043461,0.001000,0.001000,0.001000,0.001000,0.001000
1017.326923,0.042874,0.001000,0.001000,0.001000,0.001000,0.001000
1017.346154,0.042264,0.001000,0.001000,0.001000,0.001000,0.001000
1017.365385,0.041631,0.001000,0.001000,0.001000,0.001000,0.001000
1017.384615,0.040975,0.001000,0.001000,0.001000,0.001000,0.001000
1017.403846,0.040298,0.001000,0.001000,0.001000,0.001000,0.001000
1017.423077,0.039598,0.001000,0.001000,0.001000,0.001000,0.001000
1017.442308,0.038878,0.001000,0.001000,0.001000,0.001000,0.001000
1017.461538,0.038136,0.001000,0.001000,0.001000,0.001000,0.001000
1017.480769,0.037373,0.001000,0.001000,0.001000,0.001000,0.001000
1017.500000,0.036590,0.001000,0.001000,0.001000,0.001000,0.001000
1017.519231,0.035788,0.001000,0.001000,0.001000,0.001000,0.001000
1017.538462,0.034966,0.001000,0.001000,0.001000,0.001000,0.001000
1017.557692,0.034125,0.001000,0.001000,0.001000,0.001000,0.001000
1017.576923,0.033266,0.001000,0.001000,0.001000,0.001000,0.001000
1017.596154,0.032388,0.001000,0.001000,0.001000,0.001000,0.001000
1017.615385,0.031494,0.001000,0.001000,0.001000,0.001000,0.001000
1017.634615,0.030582,0.001000,0.001000,0.001000,0.001000,0.001000
1017.653846,0.029653,0.001000,0.001000,0.001000,0.001000,0.001000
1017.673077,0.028709,0.001000,0.001000,0.001000,0.001000,0.001000
1017.692308,0.027749,0.001000,0.001000,0.001000,0.001000,0.001000
1017.711538,0.026774,0.001000,0.001000,0.001000,0.001000,0.001000
1017.730769,0.025784,0.001000,0.001000,0.001000,0.001000,0.001000
1017.750000,0.024781,0.001000,0.001000,0.001000,0.001000,0.001000
1017.769231,0.023764,0.001000,0.001000,0.001000,0.001000,0.001000
1017.788462,0.022734,0.001000,0.001000,0.001000,0.001000,0.001000
1017.807692,0.021692,0.001000,0.001000,0.001000,0.001000,0.001000
1017.826923,0.020638,0.001000,0.001000,0.001000,0.001000,0.001000
1017.846154,0.019573,0.001000,0.001000,0.001000,0.001000,0.001000
1017.865385,0.018498,0.001000,0.001000,0.001000,0.001000,0.001000
1017.884615,0.017412,0.001000,0.001000,0.001000,0.001000,0.001000
1017.903846,0.016317,0.001000,0.001000,0.001000,0.001000,0.001000
1017.923077,0.015213,0.001000,0.001000,0.001000,0.001000,0.001000
1017.942308,0.014101,0.001000,0.001000,0.001000,0.001000,0.001000
1017.961538,0.012981,0.001000,0.001000,0.001000,0.001000,0.001000
1017.980769,0.011855,0.001000,0.001000,0.001000,0.001000,0.001000
1018.000000,0.010722,0.001000,0.001000,0.001000,0.001000,0.001000
1018.019231,0.009583,0.001000,0.001000,0.001000,0.001000,0.001000
1018.038462,0.008438,0.001000,0.001000,0.001000,0.001000,0.001000
1018.057692,0.007290,0.001000,0.001000,0.001000,0.001000,0.001000
1018.076923,0.006137,0.001000,0.001000,0.001000,0.001000,0.001000
1018.096154,0.004981,0.001000,0.001000,0.001000,0.001000,0.001000
1018.115385,0.003823,0.001000,0.001000,0.001000,0.001000,0.001000
1018.134615,0.002662,0.001000,0.001000,0.001000,0.001000,0.001000
1018.153846,0.001500,0.001000,0.001000,0.001000,0.001000,0.001000
1018.173077,0.000337,0.001000,0.001000,0.001000,0.001000,0.001000
1018.192308,-0.000826,0.001000,0.001000,0.001000,0.001000,0.001000
1018.211538,-0.001989,0.001000,0.001000,0.001000,0.001000,0.001000
1018.230769,-0.003151,0.001000,0.001000,0.001000,0.001000,0.001000
1018.250000,-0.004311,0.001000,0.001000,0.001000,0.001000,0.001000
1018.269231,-0.005468,0.001000,0.001000,0.001000,0.001000,0.001000
1018.288462,-0.006623,0.001000,0.001000,0.001000,0.001000,0.001000
1018.307692,-0.007774,0.001000,0.001000,0.001000,0.001000,0.001000
1018.326923,-0.008921,0.001000,0.001000,0.001000,0.001000,0.001000
1018.346154,-0.010063,0.001000,0.001000,0.001000,0.001000,0.001000
1018.365385,-0.011199,0.001000,0.001000,0.001000,0.001000,0.001000
1018.384615,-0.012330,0.001000,0.001000,0.001000,0.001000,0.001000
1018.403846,-0.013454,0.001000,0.001000,0.001000,0.001000,0.001000
1018.423077,-0.014570,0.001000,0.001000,0.001000,0.001000,0.001000
1018.442308,-0.015679,0.001000,0.001000,0.001000,0.001000,0.001000
1018.461538,-0.016779,0.001000,0.001000,0.001000,0.001000,0.001000
1018.480769,-0.017870,0.001000,0.001000,0.001000,0.001000,0.001000
1018.500000,-0.018952,0.001000,0.001000,0.001000,0.001000,0.001000
1018.519231,-0.020023,0.001000,0.001000,0.001000,0.001000,0.001000
1018.538462,-0.021083,0.001000,0.001000,0.001000,0.001000,0.001000
1018.557692,-0.022132,0.001000,0.001000,0.001000,0.001000,0.001000
1018.576923,-0.023169,0.001000,0.001000,0.001000,0.001000,0.001000
1018.596154,-0.024194,0.001000,0.001000,0.001000,0.001000,0.001000
1018.615385,-0.025205,0.001000,0.001000,0.001000,0.001000,0.001000
1018.634615,-0.026203,0.001000,0.001000,0.001000,0.001000,0.001000
1018.653846,-0.027186,0.001000,0.001000,0.001000,0.001000,0.001000
1018.673077,-0.028155,0.001000,0.001000,0.001000,0.001000,0.001000
1018.692308,-0.029108,0.001000,0.001000,0.001000,0.001000,0.001000
1018.711538,-0.030046,0.001000,0.001000,0.001000,0.001000,0.001000
1018.730769,-0.030968,0.001000,0.001000,0.001000,0.001000,0.001000
1018.750000,-0.031873,0.001000,0.001000,0.001000,0.001000,0.001000
1018.769231,-0.032760,0.001000,0.001000,0.001000,0.001000,0.001000
1018.788462,-0.033630,0.001000,0.001000,0.001000,0.001000,0.001000
1018.807692,-0.034481,0.001000,0.001000,0.001000,0.001000,0.001000
1018.826923,-0.035314,0.001000,0.001000,0.001000,0.001000,0.001000
1018.846154,-0.036128,0.001000,0.001000,0.001000,0.001000,0.001000
1018.865385,-0.036922,0.001000,0.001000,0.001000,0.001000,0.001000
1018.884615,-0.037697,0.001000,0.001000,0.001000,0.001000,0.001000
1018.903846,-0.038451,0.001000,0.001000,0.001000,0.001000,0.001000
1018.923077,-0.039184,0.001000,0.001000,0.001000,0.001000,0.001000
1018.942308,-0.039896,0.001000,0.001000,0.001000,0.001000,0.001000
1018.961538,-0.040586,0.001000,0.001000,0.001000,0.001000,0.001000
1018.980769,-0.041254,0.001000,0.001000,0.001000,0.001000,0.001000
1019.000000,-0.041900,0.001000,0.001000,0.001000,0.001000,0.001000
1019.019231,-0.042524,0.001000,0.001000,0.001000,0.001000,0.001000
1019.038462,-0.043124,0.001000,0.001000,0.001000,0.001000,0.001000
1019.057692,-0.043701,0.001000,0.001000,0.001000,0.001000,0.001000
1019.076923,-0.044254,0.001000,0.001000,0.001000,0.001000,0.001000
1019.096154,-0.044783,0.001000,0.001000,0.001000,0.001000,0.001000
1019.115385,-0.045289,0.001000,0.001000,0.001000,0.001000,0.001000
1019.134615,-0.045769,0.001000,0.001000,0.001000,0.001000,0.001000
1019.153846,-0.046225,0.001000,0.001000,0.001000,0.001000,0.001000
1019.173077,-0.046656,0.001000,0.001000,0.001000,0.001000,0.001000
1019.192308,-0.047062,0.001000,0.001000,0.001000,0.001000,0.001000
1019.211538,-0.047442,0.001000,0.001000,0.001000,0.001000,0.001000
1019.230769,-0.047796,0.001000,0.001000,0.001000,0.001000,0.001000
1019.250000,-0.048125,0.001000,0.001000,0.001000,0.001000,0.001000
1019.269231,-0.048427,0.001000,0.001000,0.001000,0.001000,0.001000
1019.288462,-0.048704,0.001000,0.001000,0.001000,0.001000,0.001000
1019.307692,-0.048953,0.001000,0.001000,0.001000,0.001000,0.001000
1019.326923,-0.049177,0.001000,0.001000,0.001000,0.001000,0.001000
1019.346154,-0.049374,0.001000,0.001000,0.001000,0.001000,0.001000
1019.365385,-0.049544,0.001000,0.001000,0.001000,0.001000,0.001000
1019.384615,-0.049687,0.001000,0.001000,0.001000,0.001000,0.001000
1019.403846,-0.049804,0.001000,0.001000,0.001000,0.001000,0.001000
1019.423077,-0.049893,0.001000,0.001000,0.001000,0.001000,0.001000
1019.442308,-0.049956,0.001000,0.001000,0.001000,0.001000,0.001000
1019.461538,-0.049991,0.001000,0.001000,0.001000,0.001000,0.001000
1019.480769,-0.050000,0.001000,0.001000,0.001000,0.001000,0.001000
1019.500000,-0.049981,0.001000,0.001000,0.001000,0.001000,0.001000
1019.519231,-0.049935,0.001000,0.001000,0.001000,0.001000,0.001000
1019.538462,-0.049862,0.001000,0.001000,0.001000,0.001000,0.001000
1019.557692,-0.049763,0.001000,0.001000,0.001000,0.001000,0.001000
1019.576923,-0.049636,0.001000,0.001000,0.001000,0.001000,0.001000
1019.596154,-0.049482,0.001000,0.001000,0.001000,0.001000,0.001000
1019.615385,-0.049302,0.001000,0.001000,0.001000,0.001000,0.001000
1019.634615,-0.049095,0.001000,0.001000,0.001000,0.001000,0.001000
1019.653846,-0.048862,0.001000,0.001000,0.001000,0.001000,0.001000
1019.673077,-0.048602,0.001000,0.001000,0.001000,0.001000,0.001000
1019.692308,-0.048315,0.001000,0.001000,0.001000,0.001000,0.001000
1019.711538,-0.048003,0.001000,0.001000,0.001000,0.001000,0.001000
1019.730769,-0.047665,0.001000,0.001000,0.001000,0.001000,0.001000
1019.750000,-0.047300,0.001000,0.001000,0.001000,0.001000,0.001000
1019.769231,-0.046910,0.001000,0.001000,0.001000,0.001000,0.001000
1019.788462,-0.046495,0.001000,0.001000,0.001000,0.001000,0.001000
1019.807692,-0.046055,0.001000,0.001000,0.001000,0.001000,0.001000
1019.826923,-0.045590,0.001000,0.001000,0.001000,0.001000,0.001000
1019.846154,-0.045100,0.001000,0.001000,0.001000,0.001000,0.001000
1019.865385,-0.044585,0.001000,0.001000,0.001000,0.001000,0.001000
1019.884615,-0.044047,0.001000,0.001000,0.001000,0.001000,0.001000
1019.903846,-0.043484,0.001000,0.001000,0.001000,0.001000,0.001000
1019.923077,-0.042899,0.001000,0.001000,0.001000,0.001000,0.001000
1019.942308,-0.042290,0.001000,0.001000,0.001000,0.001000,0.001000
1019.961538,-0.041658,0.001000,0.001000,0.001000,0.001000,0.001000
1019.980769,-0.041003,0.001000,0.001000,0.001000,0.001000,0.001000
1020.000000,-0.040326,0.001000,0.001000,0.001000,0.001000,0.001000
1020.019231,-0.039628,0.001000,0.001000,0.001000,0.001000,0.001000
1020.038462,-0.038908,0.001000,0.001000,0.001000,0.001000,0.001000
1020.057692,-0.038167,0.001000,0.001000,0.001000,0.001000,0.001000
1020.076923,-0.037405,0.001000,0.001000,0.001000,0.001000,0.001000
1020.096154,-0.036623,0.001000,0.001000,0.001000,0.001000,0.001000
1020.115385,-0.035821,0.001000,0.001000,0.001000,0.001000,0.001000
1020.134615,-0.035000,0.001000,0.001000,0.001000,0.001000,0.001000
1020.153846,-0.034160,0.001000,0.001000,0.001000,0.001000,0.001000
1020.173077,-0.033302,0.001000,0.001000,0.001000,0.001000,0.001000
1020.192308,-0.032425,0.001000,0.001000,0.001000,0.001000,0.001000
1020.211538,-0.031531,0.001000,0.001000,0.001000,0.001000,0.001000
1020.230769,-0.030620,0.001000,0.001000,0.001000,0.001000,0.001000
1020.250000,-0.029692,0.001000,0.001000,0.001000,0.001000,0.001000
1020.269231,-0.028748,0.001000,0.001000,0.001000,0.001000,0.001000
1020.288462,-0.027789,0.001000,0.001000,0.001000,0.001000,0.001000
1020.307692,-0.026814,0.001000,0.001000,0.001000,0.001000,0.001000
1020.326923,-0.025825,0.001000,0.001000,0.001000,0.001000,0.001000
1020.346154,-0.024822,0.001000,0.001000,0.001000,0.001000,0.001000
1020.365385,-0.023806,0.001000,0.001000,0.001000,0.001000,0.001000
1020.384615,-0.022777,0.001000,0.001000,0.001000,0.001000,0.001000
1020.403846,-0.021735,0.001000,0.001000,0.001000,0.001000,0.001000
1020.423077,-0.020682,0.001000,0.001000,0.001000,0.001000,0.001000
1020.442308,-0.019617,0.001000,0.001000,0.001000,0.001000,0.001000
1020.461538,-0.018542,0.001000,0.001000,0.001000,0.001000,0.001000
1020.480769,-0.017457,0.001000,0.001000,0.001000,0.001000,0.001000
1020.500000,-0.016362,0.001000,0.001000,0.001000,0.001000,0.001000
1020.519231,-0.015259,0.001000,0.001000,0.001000,0.001000,0.001000
1020.538462,-0.014147,0.001000,0.001000,0.001000,0.001000,0.001000
1020.557692,-0.013028,0.001000,0.001000,0.001000,0.001000,0.001000
1020.576923,-0.011901,0.001000,0.001000,0.001000,0.001000,0.001000
1020.596154,-0.010769,0.001000,0.001000,0.001000,0.001000,0.001000
1020.615385,-0.009630,0.001000,0.001000,0.001000,0.001000,0.001000
1020.634615,-0.008486,0.001000,0.001000,0.001000,0.001000,0.001000
1020.653846,-0.007337,0.001000,0.001000,0.001000,0.001000,0.001000
1020.673077,-0.006185,0.001000,0.001000,0.001000,0.001000,0.001000
1020.692308,-0.005029,0.001000,0.001000,0.001000,0.001000,0.001000
1020.711538,-0.003870,0.001000,0.001000,0.001000,0.001000,0.001000
1020.730769,-0.002710,0.001000,0.001000,0.001000,0.001000,0.001000
1020.750000,-0.001548,0.001000,0.001000,0.001000,0.001000,0.001000
1020.769231,-0.000385,0.001000,0.001000,0.001000,0.001000,0.001000
1020.788462,0.000778,0.001000,0.001000,0.001000,0.001000,0.001000
1020.807692,0.001941,0.001000,0.001000,0.001000,0.001000,0.001000
1020.826923,0.003103,0.001000,0.001000,0.001000,0.001000,0.001000
1020.846154,0.004263,0.001000,0.001000,0.001000,0.001000,0.001000
1020.865385,0.005421,0.001000,0.001000,0.001000,0.001000,0.001000
1020.884615,0.006575,0.001000,0.001000,0.001000,0.001000,0.001000
1020.903846,0.007727,0.001000,0.001000,0.001000,0.001000,0.001000
1020.923077,0.008874,0.001000,0.001000,0.001000,0.001000,0.001000
1020.942308,0.010016,0.001000,0.001000,0.001000,0.001000,0.001000
1020.961538,0.011153,0.001000,0.001000,0.001000,0.001000,0.001000
1020.980769,0.012283,0.001000,0.001000,0.001000,0.001000,0.001000
1021.000000,0.013407,0.001000,0.001000,0.001000,0.001000,0.001000
1021.019231,0.014524,0.001000,0.001000,0.001000,0.001000,0.001000
1021.038462,0.015633,0.001000,0.001000,0.001000,0.001000,0.001000
1021.057692,0.016734,0.001000,0.001000,0.001000,0.001000,0.001000
1021.076923,0.017825,0.001000,0.001000,0.001000,0.001000,0.001000
1021.096154,0.018907,0.001000,0.001000,0.001000,0.001000,0.001000
1021.115385,0.019979,0.001000,0.001000,0.001000,0.001000,0.001000
1021.134615,0.021040,0.001000,0.001000,0.001000,0.001000,0.001000
1021.153846,0.022089,0.001000,0.001000,0.001000,0.001000,0.001000
1021.173077,0.023127,0.001000,0.001000,0.001000,0.001000,0.001000
1021.192308,0.024151,0.001000,0.001000,0.001000,0.001000,0.001000
1021.211538,0.025163,0.001000,0.001000,0.001000,0.001000,0.001000
1021.230769,0.026162,0.001000,0.001000,0.001000,0.001000,0.001000
1021.250000,0.027146,0.001000,0.001000,0.001000,0.001000,0.001000
1021.269231,0.028115,0.001000,0.001000,0.001000,0.001000,0.001000
1021.288462,0.029069,0.001000,0.001000,0.001000,0.001000,0.001000
1021.307692,0.030008,0.001000,0.001000,0.001000,0.001000,0.001000
1021.326923,0.030930,0.001000,0.001000,0.001000,0.001000,0.001000
1021.346154,0.031835,0.001000,0.001000,0.001000,0.001000,0.001000
1021.365385,0.032724,0.001000,0.001000,0.001000,0.001000,0.001000
1021.384615,0.033594,0.001000,0.001000,0.001000,0.001000,0.001000
1021.403846,0.034447,0.001000,0.001000,0.001000,0.001000,0.001000
1021.423077,0.035280,0.001000,0.001000,0.001000,0.001000,0.001000
1021.442308,0.036095,0.001000,0.001000,0.001000,0.001000,0.001000
1021.461538,0.036890,0.001000,0.001000,0.001000,0.001000,0.001000
1021.480769,0.037665,0.001000,0.001000,0.001000,0.001000,0.001000
1021.500000,0.038420,0.001000,0.001000,0.001000,0.001000,0.001000
1021.519231,0.039154,0.001000,0.001000,0.001000,0.001000,0.001000
1021.538462,0.039867,0.001000,0.001000,0.001000,0.001000,0.001000
1021.557692,0.040558,0.001000,0.001000,0.001000,0.001000,0.001000
1021.576923,0.041227,0.001000,0.001000,0.001000,0.001000,0.001000
1021.596154,0.041874,0.001000,0.001000,0.001000,0.001000,0.001000
1021.615385,0.042498,0.001000,0.001000,0.001000,0.001000,0.001000
1021.634615,0.043099,0.001000,0.001000,0.001000,0.001000,0.001000
1021.653846,0.043677,0.001000,0.001000,0.001000,0.001000,0.001000
1021.673077,0.044232,0.001000,0.001000,0.001000,0.001000,0.001000
1021.692308,0.044762,0.001000,0.001000,0.001000,0.001000,0.001000
1021.711538,0.045268,0.001000,0.001000,0.001000,0.001000,0.001000
1021.730769,0.045750,0.001000,0.001000,0.001000,0.001000,0.001000
1021.750000,0.046207,0.001000,0.001000,0.001000,0.001000,0.001000
1021.769231,0.046639,0.001000,0.001000,0.001000,0.001000,0.001000
1021.788462,0.047045,0.001000,0.001000,0.001000,0.001000,0.001000
1021.807692,0.047426,0.001000,0.001000,0.001000,0.001000,0.001000
1021.826923,0.047782,0.001000,0.001000,0.001000,0.001000,0.001000
1021.846154,0.048112,0.001000,0.001000,0.001000,0.001000,0.001000
1021.865385,0.048415,0.001000,0.001000,0.001000,0.001000,0.001000
1021.884615,0.048693,0.001000,0.001000,0.001000,0.001000,0.001000
1021.903846,0.048944,0.001000,0.001000,0.001000,0.001000,0.001000
1021.923077,0.049168,0.001000,0.001000,0.001000,0.001000,0.001000
1021.942308,0.049366,0.001000,0.001000,0.001000,0.001000,0.001000
1021.961538,0.049537,0.001000,0.001000,0.001000,0.001000,0.001000
1021.980769,0.049682,0.001000,0.001000,0.001000,0.001000,0.001000
1022.000000,0.049799,0.001000,0.001000,0.001000,0.001000,0.001000
1022.019231,0.049890,0.001000,0.001000,0.001000,0.001000,0.001000
1022.038462,0.049954,0.001000,0.001000,0.001000,0.001000,0.001000
1022.057692,0.049990,0.001000,0.001000,0.001000,0.001000,0.001000
1022.076923,0.050000,0.001000,0.001000,0.001000,0.001000,0.001000
1022.096154,0.049982,0.001000,0.001000,0.001000,0.001000,0.001000
1022.115385,0.049938,0.001000,0.001000,0.001000,0.001000,0.001000
1022.134615,0.049866,0.001000,0.001000,0.001000,0.001000,0.001000
1022.153846,0.049767,0.001000,0.001000,0.001000,0.001000,0.001000
1022.173077,0.049642,0.001000,0.001000,0.001000,0.001000,0.001000
1022.192308,0.049489,0.001000,0.001000,0.001000,0.001000,0.001000
1022.211538,0.049310,0.001000,0.001000,0.001000,0.001000,0.001000
1022.230769,0.049104,0.001000,0.001000,0.001000,0.001000,0.001000
1022.250000,0.048872,0.001000,0.001000,0.001000,0.001000,0.001000
1022.269231,0.048613,0.001000,0.001000,0.001000,0.001000,0.001000
1022.288462,0.048328,0.001000,0.001000,0.001000,0.001000,0.001000
1022.307692,0.048016,0.001000,0.001000,0.001000,0.001000,0.001000
1022.326923,0.047679,0.001000,0.001000,0.001000,0.001000,0.001000
1022.346154,0.047316,0.001000,0.001000,0.001000,0.001000,0.001000
1022.365385,0.046927,0.001000,0.001000,0.001000,0.001000,0.001000
1022.384615,0.046513,0.001000,0.001000,0.001000,0.001000,0.001000
1022.403846,0.046074,0.001000,0.001000,0.001000,0.001000,0.001000
1022.423077,0.045609,0.001000,0.001000,0.001000,0.001000,0.001000
1022.442308,0.045120,0.001000,0.001000,0.001000,0.001000,0.001000
1022.461538,0.044607,0.001000,0.001000,0.001000,0.001000,0.001000
1022.480769,0.044070,0.001000,0.001000,0.001000,0.001000,0.001000
1022.500000,0.043508,0.001000,0.001000,0.001000,0.001000,0.001000
1022.519231,0.042923,0.001000,0.001000,0.001000,0.001000,0.001000
1022.538462,0.042315,0.001000,0.001000,0.001000,0.001000,0.001000
1022.557692,0.041684,0.001000,0.001000,0.001000,0.001000,0.001000
1022.576923,0.041031,0.001000,0.001000,0.001000,0.001000,0.001000
1022.596154,0.040355,0.001000,0.001000,0.001000,0.001000,0.001000
1022.615385,0.039657,0.001000,0.001000,0.001000,0.001000,0.001000
1022.634615,0.038938,0.001000,0.001000,0.001000,0.001000,0.001000
1022.653846,0.038198,0.001000,0.001000,0.001000,0.001000,0.001000
1022.673077,0.037437,0.001000,0.001000,0.001000,0.001000,0.001000
1022.692308,0.036656,0.001000,0.001000,0.001000,0.001000,0.001000
1022.711538,0.035855,0.001000,0.001000,0.001000,0.001000,0.001000
1022.730769,0.035035,0.001000,0.001000,0.001000,0.001000,0.001000
1022.750000,0.034195,0.001000,0.001000,0.001000,0.001000,0.001000
1022.769231,0.033338,0.001000,0.001000,0.001000,0.001000,0.001000
1022.788462,0.032462,0.001000,0.001000,0.001000,0.001000,0.001000
1022.807692,0.031568,0.001000,0.001000,0.001000,0.001000,0.001000
1022.826923,0.030658,0.001000,0.001000,0.001000,0.001000,0.001000
1022.846154,0.029731,0.001000,0.001000,0.001000,0.001000,0.001000
1022.865385,0.028787,0.001000,0.001000,0.001000,0.001000,0.001000
1022.884615,0.027829,0.001000,0.001000,0.001000,0.001000,0.001000
1022.903846,0.026855,0.001000,0.001000,0.001000,0.001000,0.001000
1022.923077,0.025867,0.001000,0.001000,0.001000,0.001000,0.001000
1022.942308,0.024864,0.001000,0.001000,0.001000,0.001000,0.001000
1022.961538,0.023848,0.001000,0.001000,0.001000,0.001000,0.001000
1022.980769,0.022820,0.001000,0.001000,0.001000,0.001000,0.001000
1023.000000,0.021779,0.001000,0.001000,0.001000,0.001000,0.001000
1023.019231,0.020726,0.001000,0.001000,0.001000,0.001000,0.001000
1023.038462,0.019662,0.001000,0.001000,0.001000,0.001000,0.001000
1023.057692,0.018587,0.001000,0.001000,0.001000,0.001000,0.001000
1023.076923,0.017502,0.001000,0.001000,0.001000,0.001000,0.001000
1023.096154,0.016408,0.001000,0.001000,0.001000,0.001000,0.001000
1023.115385,0.015305,0.001000,0.001000,0.001000,0.001000,0.001000
1023.134615,0.014193,0.001000,0.001000,0.001000,0.001000,0.001000
1023.153846,0.013074,0.001000,0.001000,0.001000,0.001000,0.001000
1023.173077,0.011948,0.001000,0.001000,0.001000,0.001000,0.001000
1023.192308,0.010815,0.001000,0.001000,0.001000,0.001000,0.001000
1023.211538,0.009677,0.001000,0.001000,0.001000,0.001000,0.001000
1023.230769,0.008533,0.001000,0.001000,0.001000,0.001000,0.001000
1023.250000,0.007385,0.001000,0.001000,0.001000,0.001000,0.001000
1023.269231,0.006233,0.001000,0.001000,0.001000,0.001000,0.001000
1023.288462,0.005077,0.001000,0.001000,0.001000,0.001000,0.001000
1023.307692,0.003918,0.001000,0.001000,0.001000,0.001000,0.001000
1023.326923,0.002758,0.001000,0.001000,0.001000,0.001000,0.001000
1023.346154,0.001596,0.001000,0.001000,0.001000,0.001000,0.001000
1023.365385,0.000433,0.001000,0.001000,0.001000,0.001000,0.001000
1023.384615,-0.000730,0.001000,0.001000,0.001000,0.001000,0.001000
1023.403846,-0.001893,0.001000,0.001000,0.001000,0.001000,0.001000
1023.423077,-0.003055,0.001000,0.001000,0.001000,0.001000,0.001000
1023.442308,-0.004215,0.001000,0.001000,0.001000,0.001000,0.001000
1023.461538,-0.005373,0.001000,0.001000,0.001000,0.001000,0.001000
1023.480769,-0.006528,0.001000,0.001000,0.001000,0.001000,0.001000
1023.500000,-0.007679,0.001000,0.001000,0.001000,0.001000,0.001000
1023.519231,-0.008826,0.001000,0.001000,0.001000,0.001000,0.001000
1023.538462,-0.009969,0.001000,0.001000,0.001000,0.001000,0.001000
1023.557692,-0.011106,0.001000,0.001000,0.001000,0.001000,0.001000
1023.576923,-0.012237,0.001000,0.001000,0.001000,0.001000,0.001000
1023.596154,-0.013361,0.001000,0.001000,0.001000,0.001000,0.001000
1023.615385,-0.014478,0.001000,0.001000,0.001000,0.001000,0.001000
1023.634615,-0.015588,0.001000,0.001000,0.001000,0.001000,0.001000
1023.653846,-0.016689,0.001000,0.001000,0.001000,0.001000,0.001000
1023.673077,-0.017780,0.001000,0.001000,0.001000,0.001000,0.001000
1023.692308,-0.018863,0.001000,0.001000,0.001000,0.001000,0.001000
1023.711538,-0.019935,0.001000,0.001000,0.001000,0.001000,0.001000
1023.730769,-0.020996,0.001000,0.001000,0.001000,0.001000,0.001000
1023.750000,-0.022046,0.001000,0.001000,0.001000,0.001000,0.001000
1023.769231,-0.023084,0.001000,0.001000,0.001000,0.001000,0.001000
1023.788462,-0.024109,0.001000,0.001000,0.001000,0.001000,0.001000
1023.807692,-0.025122,0.001000,0.001000,0.001000,0.001000,0.001000
1023.826923,-0.026121,0.001000,0.001000,0.001000,0.001000,0.001000
1023.846154,-0.027105,0.001000,0.001000,0.001000,0.001000,0.001000
1023.865385,-0.028075,0.001000,0.001000,0.001000,0.001000,0.001000
1023.884615,-0.029030,0.001000,0.001000,0.001000,0.001000,0.001000
1023.903846,-0.029969,0.001000,0.001000,0.001000,0.001000,0.001000
1023.923077,-0.030892,0.001000,0.001000,0.001000,0.001000,0.001000
1023.942308,-0.031798,0.001000,0.001000,0.001000,0.001000,0.001000
1023.961538,-0.032687,0.001000,0.001000,0.001000,0.001000,0.001000
1023.980769,-0.033559,0.001000,0.001000,0.001000,0.001000,0.001000
1024.000000,-0.034412,0.001000,0.001000,0.001000,0.001000,0.001000
1024.019231,-0.035246,0.001000,0.001000,0.001000,0.001000,0.001000
1024.038462,-0.036062,0.001000,0.001000,0.001000,0.001000,0.001000
1024.057692,-0.036858,0.001000,0.001000,0.001000,0.001000,0.001000
1024.076923,-0.037633,0.001000,0.001000,0.001000,0.001000,0.001000
1024.096154,-0.038389,0.001000,0.001000,0.001000,0.001000,0.001000
1024.115385,-0.039124,0.001000,0.001000,0.001000,0.001000,0.001000
1024.134615,-0.039838,0.001000,0.001000,0.001000,0.001000,0.001000
1024.153846,-0.040530,0.001000,0.001000,0.001000,0.001000,0.001000
1024.173077,-0.041200,0.001000,0.001000,0.001000,0.001000,0.001000
1024.192308,-0.041848,0.001000,0.001000,0.001000,0.001000,0.001000
1024.211538,-0.042473,0.001000,0.001000,0.001000,0.001000,0.001000
1024.230769,-0.043075,0.001000,0.001000,0.001000,0.001000,0.001000
1024.250000,-0.043654,0.001000,0.001000,0.001000,0.001000,0.001000
1024.269231,-0.044209,0.001000,0.001000,0.001000,0.001000,0.001000
1024.288462,-0.044741,0.001000,0.001000,0.001000,0.001000,0.001000
1024.307692,-0.045248,0.001000,0.001000,0.001000,0.001000,0.001000
1024.326923,-0.045730,0.001000,0.001000,0.001000,0.001000,0.001000
1024.346154,-0.046188,0.001000,0.001000,0.001000,0.001000,0.001000
1024.365385,-0.046621,0.001000,0.001000,0.001000,0.001000,0.001000
1024.384615,-0.047029,0.001000,0.001000,0.001000,0.001000,0.001000
1024.403846,-0.047411,0.001000,0.001000,0.001000,0.001000,0.001000
1024.423077,-0.047768,0.001000,0.001000,0.001000,0.001000,0.001000
1024.442308,-0.048098,0.001000,0.001000,0.001000,0.001000,0.001000
1024.461538,-0.048403,0.001000,0.001000,0.001000,0.001000,0.001000
1024.480769,-0.048682,0.001000,0.001000,0.001000,0.001000,0.001000
1024.500000,-0.048934,0.001000,0.001000,0.001000,0.001000,0.001000
1024.519231,-0.049159,0.001000,0.001000,0.001000,0.001000,0.001000
1024.538462,-0.049359,0.001000,0.001000,0.001000,0.001000,0.001000
1024.557692,-0.049531,0.001000,0.001000,0.001000,0.001000,0.001000
1024.576923,-0.049676,0.001000,0.001000,0.001000,0.001000,0.001000
1024.596154,-0.049795,0.001000,0.001000,0.001000,0.001000,0.001000
1024.615385,-0.049887,0.001000,0.001000,0.001000,0.001000,0.001000
1024.634615,-0.049952,0.001000,0.001000,0.001000,0.001000,0.001000
1024.653846,-0.049989,0.001000,0.001000,0.001000,0.001000,0.001000
1024.673077,-0.050000,0.001000,0.001000,0.001000,0.001000,0.001000
1024.692308,-0.049983,0.001000,0.001000,0.001000,0.001000,0.001000
1024.711538,-0.049940,0.001000,0.001000,0.001000,0.001000,0.001000
1024.730769,-0.049869,0.001000,0.001000,0.001000,0.001000,0.001000
1024.750000,-0.049772,0.001000,0.001000,0.001000,0.001000,0.001000
1024.769231,-0.049648,0.001000,0.001000,0.001000,0.001000,0.001000
1024.788462,-0.049496,0.001000,0.001000,0.001000,0.001000,0.001000
1024.807692,-0.049318,0.001000,0.001000,0.001000,0.001000,0.001000
1024.826923,-0.049113,0.001000,0.001000,0.001000,0.001000,0.001000
1024.846154,-0.048882,0.001000,0.001000,0.001000,0.001000,0.001000
1024.865385,-0.048624,0.001000,0.001000,0.001000,0.001000,0.001000
1024.884615,-0.048340,0.001000,0.001000,0.001000,0.001000,0.001000
1024.903846,-0.048030,0.001000,0.001000,0.001000,0.001000,0.001000
1024.923077,-0.047693,0.001000,0.001000,0.001000,0.001000,0.001000
1024.942308,-0.047331,0.001000,0.001000,0.001000,0.001000,0.001000
1024.961538,-0.046944,0.001000,0.001000,0.001000,0.001000,0.001000
1024.980769,-0.046531,0.001000,0.001000,0.001000,0.001000,0.001000
1025.000000,-0.046092,0.001000,0.001000,0.001000,0.001000,0.001000
1025.019231,-0.045629,0.001000,0.001000,0.001000,0.001000,0.001000
1025.038462,-0.045141,0.001000,0.001000,0.001000,0.001000,0.001000
1025.057692,-0.044629,0.001000,0.001000,0.001000,0.001000,0.001000
1025.076923,-0.044092,0.001000,0.001000,0.001000,0.001000,0.001000
1025.096154,-0.043532,0.001000,0.001000,0.001000,0.001000,0.001000
1025.115385,-0.042948,0.001000,0.001000,0.001000,0.001000,0.001000
1025.134615,-0.042341,0.001000,0.001000,0.001000,0.001000,0.001000
1025.153846,-0.041711,0.001000,0.001000,0.001000,0.001000,0.001000
1025.173077,-0.041058,0.001000,0.001000,0.001000,0.001000,0.001000
1025.192308,-0.040383,0.001000,0.001000,0.001000,0.001000,0.001000
1025.211538,-0.039686,0.001000,0.001000,0.001000,0.001000,0.001000
1025.230769,-0.038968,0.001000,0.001000,0.001000,0.001000,0.001000
1025.250000,-0.038229,0.001000,0.001000,0.001000,0.001000,0.001000
1025.269231,-0.037469,0.001000,0.001000,0.001000,0.001000,0.001000
1025.288462,-0.036689,0.001000,0.001000,0.001000,0.001000,0.001000
1025.307692,-0.035888,0.001000,0.001000,0.001000,0.001000,0.001000
1025.326923,-0.035069,0.001000,0.001000,0.001000,0.001000,0.001000
1025.346154,-0.034230,0.001000,0.001000,0.001000,0.001000,0.001000
1025.365385,-0.033373,0.001000,0.001000,0.001000,0.001000,0.001000
1025.384615,-0.032498,0.001000,0.001000,0.001000,0.001000,0.001000
1025.403846,-0.031606,0.001000,0.001000,0.001000,0.001000,0.001000
1025.423077,-0.030696,0.001000,0.001000,0.001000,0.001000,0.001000
1025.442308,-0.029769,0.001000,0.001000,0.001000,0.001000,0.001000
1025.461538,-0.028827,0.001000,0.001000,0.001000,0.001000,0.001000
1025.480769,-0.027869,0.001000,0.001000,0.001000,0.001000,0.001000
1025.500000,-0.026895,0.001000,0.001000,0.001000,0.001000,0.001000
1025.519231,-0.025908,0.001000,0.001000,0.001000,0.001000,0.001000
1025.538462,-0.024906,0.001000,0.001000,0.001000,0.001000,0.001000
1025.557692,-0.023891,0.001000,0.001000,0.001000,0.001000,0.001000
1025.576923,-0.022862,0.001000,0.001000,0.001000,0.001000,0.001000
1025.596154,-0.021822,0.001000,0.001000,0.001000,0.001000,0.001000
1025.615385,-0.020769,0.001000,0.001000,0.001000,0.001000,0.001000
1025.634615,-0.019706,0.001000,0.001000,0.001000,0.001000,0.001000
1025.653846,-0.018632,0.001000,0.001000,0.001000,0.001000,0.001000
1025.673077,-0.017547,0.001000,0.001000,0.001000,0.001000,0.001000
1025.692308,-0.016453,0.001000,0.001000,0.001000,0.001000,0.001000
1025.711538,-0.015351,0.001000,0.001000,0.001000,0.001000,0.001000
1025.730769,-0.014239,0.001000,0.001000,0.001000,0.001000,0.001000
1025.750000,-0.013121,0.001000,0.001000,0.001000,0.001000,0.001000
1025.769231,-0.011995,0.001000,0.001000,0.001000,0.001000,0.001000
1025.788462,-0.010862,0.001000,0.001000,0.001000,0.001000,0.001000
1025.807692,-0.009724,0.001000,0.001000,0.001000,0.001000,0.001000
1025.826923,-0.008581,0.001000,0.001000,0.001000,0.001000,0.001000
1025.846154,-0.007433,0.001000,0.001000,0.001000,0.001000,0.001000
1025.865385,-0.006280,0.001000,0.001000,0.001000,0.001000,0.001000
1025.884615,-0.005125,0.001000,0.001000,0.001000,0.001000,0.001000
1025.903846,-0.003966,0.001000,0.001000,0.001000,0.001000,0.001000
1025.923077,-0.002806,0.001000,0.001000,0.001000,0.001000,0.001000
1025.942308,-0.001644,0.001000,0.001000,0.001000,0.001000,0.001000
1025.961538,-0.000481,0.001000,0.001000,0.001000,0.001000,0.001000
1025.980769,0.000682,0.001000,0.001000,0.001000,0.001000,0.001000
1026.000000,0.001845,0.001000,0.001000,0.001000,0.001000,0.001000
1026.019231,0.003007,0.001000,0.001000,0.001000,0.001000,0.001000
1026.038462,0.004167,0.001000,0.001000,0.001000,0.001000,0.001000
1026.057692,0.005325,0.001000,0.001000,0.001000,0.001000,0.001000
1026.076923,0.006480,0.001000,0.001000,0.001000,0.001000,0.001000
1026.096154,0.007631,0.001000,0.001000,0.001000,0.001000,0.001000
1026.115385,0.008779,0.001000,0.001000,0.001000,0.001000,0.001000
1026.134615,0.009921,0.001000,0.001000,0.001000,0.001000,0.001000
1026.153846,0.011059,0.001000,0.001000,0.001000,0.001000,0.001000
1026.173077,0.012190,0.001000,0.001000,0.001000,0.001000,0.001000
1026.192308,0.013315,0.001000,0.001000,0.001000,0.001000,0.001000
1026.211538,0.014432,0.001000,0.001000,0.001000,0.001000,0.001000
1026.230769,0.015542,0.001000,0.001000,0.001000,0.001000,0.001000
1026.250000,0.016643,0.001000,0.001000,0.001000,0.001000,0.001000
1026.269231,0.017735,0.001000,0.001000,0.001000,0.001000,0.001000
1026.288462,0.018818,0.001000,0.001000,0.001000,0.001000,0.001000
1026.307692,0.019891,0.001000,0.001000,0.001000,0.001000,0.001000
1026.326923,0.020952,0.001000,0.001000,0.001000,0.001000,0.001000
1026.346154,0.022003,0.001000,0.001000,0.001000,0.001000,0.001000
1026.365385,0.023041,0.001000,0.001000,0.001000,0.001000,0.001000
1026.384615,0.024067,0.001000,0.001000,0.001000,0.001000,0.001000
1026.403846,0.025080,0.001000,0.001000,0.001000,0.001000,0.001000
1026.423077,0.026080,0.001000,0.001000,0.001000,0.001000,0.001000
1026.442308,0.027065,0.001000,0.001000,0.001000,0.001000,0.001000
1026.461538,0.028035,0.001000,0.001000,0.001000,0.001000,0.001000
1026.480769,0.028991,0.001000,0.001000,0.001000,0.001000,0.001000
1026.500000,0.029931,0.001000,0.001000,0.001000,0.001000,0.001000
1026.519231,0.030854,0.001000,0.001000,0.001000,0.001000,0.001000
1026.538462,0.031761,0.001000,0.001000,0.001000,0.001000,0.001000
1026.557692,0.032651,0.001000,0.001000,0.001000,0.001000,0.001000
1026.576923,0.033523,0.001000,0.001000,0.001000,0.001000,0.001000
1026.596154,0.034377,0.001000,0.001000,0.001000,0.001000,0.001000
1026.615385,0.035212,0.001000,0.001000,0.001000,0.001000,0.001000
1026.634615,0.036028,0.001000,0.001000,0.001000,0.001000,0.001000
1026.653846,0.036825,0.001000,0.001000,0.001000,0.001000,0.001000
1026.673077,0.037602,0.001000,0.001000,0.001000,0.001000,0.001000
1026.692308,0.038358,0.001000,0.001000,0.001000,0.001000,0.001000
1026.711538,0.039094,0.001000,0.001000,0.001000,0.001000,0.001000
1026.730769,0.039808,0.001000,0.001000,0.001000,0.001000,0.001000
1026.750000,0.040501,0.001000,0.001000,0.001000,0.001000,0.001000
1026.769231,0.041173,0.001000,0.001000,0.001000,0.001000,0.001000
1026.788462,0.041821,0.001000,0.001000,0.001000,0.001000,0.001000
1026.807692,0.042447,0.001000,0.001000,0.001000,0.001000,0.001000
1026.826923,0.043051,0.001000,0.001000,0.001000,0.001000,0.001000
1026.846154,0.043631,0.001000,0.001000,0.001000,0.001000,0.001000
1026.865385,0.044187,0.001000,0.001000,0.001000,0.001000,0.001000
1026.884615,0.044719,0.001000,0.001000,0.001000,0.001000,0.001000
1026.903846,0.045227,0.001000,0.001000,0.001000,0.001000,0.001000
1026.923077,0.045711,0.001000,0.001000,0.001000,0.001000,0.001000
1026.942308,0.046170,0.001000,0.001000,0.001000,0.001000,0.001000
1026.961538,0.046604,0.001000,0.001000,0.001000,0.001000,0.001000
1026.980769,0.047013,0.001000,0.001000,0.001000,0.001000,0.001000
1027.000000,0.047396,0.001000,0.001000,0.001000,0.001000,0.001000
1027.019231,0.047754,0.001000,0.001000,0.001000,0.001000,0.001000
1027.038462,0.048085,0.001000,0.001000,0.001000,0.001000,0.001000
1027.057692,0.048391,0.001000,0.001000,0.001000,0.001000,0.001000
1027.076923,0.048671,0.001000,0.001000,0.001000,0.001000,0.001000
1027.096154,0.048924,0.001000,0.001000,0.001000,0.001000,0.001000
1027.115385,0.049151,0.001000,0.001000,0.001000,0.001000,0.001000
1027.134615,0.049351,0.001000,0.001000,0.001000,0.001000,0.001000
1027.153846,0.049524,0.001000,0.001000,0.001000,0.001000,0.001000
1027.173077,0.049671,0.001000,0.001000,0.001000,0.001000,0.001000
1027.192308,0.049791,0.001000,0.001000,0.001000,0.001000,0.001000
1027.211538,0.049884,0.001000,0.001000,0.001000,0.001000,0.001000
1027.230769,0.049949,0.001000,0.001000,0.001000,0.001000,0.001000
1027.250000,0.049988,0.001000,0.001000,0.001000,0.001000,0.001000
1027.269231,0.050000,0.001000,0.001000,0.001000,0.001000,0.001000
1027.288462,0.049985,0.001000,0.001000,0.001000,0.001000,0.001000
1027.307692,0.049942,0.001000,0.001000,0.001000,0.001000,0.001000
1027.326923,0.049873,0.001000,0.001000,0.001000,0.001000,0.001000
1027.346154,0.049776,0.001000,0.001000,0.001000,0.001000,0.001000
1027.365385,0.049653,0.001000,0.001000,0.001000,0.001000,0.001000
1027.384615,0.049503,0.001000,0.001000,0.001000,0.001000,0.001000
1027.403846,0.049326,0.001000,0.001000,0.001000,0.001000,0.001000
1027.423077,0.049122,0.001000,0.001000,0.001000,0.001000,0.001000
1027.442308,0.048892,0.001000,0.001000,0.001000,0.001000,0.001000
1027.461538,0.048635,0.001000,0.001000,0.001000,0.001000,0.001000
1027.480769,0.048352,0.001000,0.001000,0.001000,0.001000,0.001000
1027.500000,0.048043,0.001000,0.001000,0.001000,0.001000,0.001000
1027.519231,0.047708,0.001000,0.001000,0.001000,0.001000,0.001000
1027.538462,0.047347,0.001000,0.001000,0.001000,0.001000,0.001000
1027.557692,0.046960,0.001000,0.001000,0.001000,0.001000,0.001000
1027.576923,0.046548,0.001000,0.001000,0.001000,0.001000,0.001000
1027.596154,0.046111,0.001000,0.001000,0.001000,0.001000,0.001000
1027.615385,0.045649,0.001000,0.001000,0.001000,0.001000,0.001000
1027.634615,0.045162,0.001000,0.001000,0.001000,0.001000,0.001000
1027.653846,0.044650,0.001000,0.001000,0.001000,0.001000,0.001000
1027.673077,0.044115,0.001000,0.001000,0.001000,0.001000,0.001000
1027.692308,0.043556,0.001000,0.001000,0.001000,0.001000,0.001000
1027.711538,0.042973,0.001000,0.001000,0.001000,0.001000,0.001000
1027.730769,0.042366,0.001000,0.001000,0.001000,0.001000,0.001000
1027.750000,0.041737,0.001000,0.001000,0.001000,0.001000,0.001000
1027.769231,0.041085,0.001000,0.001000,0.001000,0.001000,0.001000
1027.788462,0.040411,0.001000,0.001000,0.001000,0.001000,0.001000
1027.807692,0.039716,0.001000,0.001000,0.001000,0.001000,0.001000
1027.826923,0.038998,0.001000,0.001000,0.001000,0.001000,0.001000
1027.846154,0.038260,0.001000,0.001000,0.001000,0.001000,0.001000
1027.865385,0.037501,0.001000,0.001000,0.001000,0.001000,0.001000
1027.884615,0.036721,0.001000,0.001000,0.001000,0.001000,0.001000
1027.903846,0.035922,0.001000,0.001000,0.001000,0.001000,0.001000
1027.923077,0.035103,0.001000,0.001000,0.001000,0.001000,0.001000
1027.942308,0.034265,0.001000,0.001000,0.001000,0.001000,0.001000
1027.961538,0.033409,0.001000,0.001000,0.001000,0.001000,0.001000
1027.980769,0.032535,0.001000,0.001000,0.001000,0.001000,0.001000
1028.000000,0.031643,0.001000,0.001000,0.001000,0.001000,0.001000
1028.019231,0.030734,0.001000,0.001000,0.001000,0.001000,0.001000
1028.038462,0.029808,0.001000,0.001000,0.001000,0.001000,0.001000
1028.057692,0.028866,0.001000,0.001000,0.001000,0.001000,0.001000
1028.076923,0.027909,0.001000,0.001000,0.001000,0.001000,0.001000
1028.096154,0.026936,0.001000,0.001000,0.001000,0.001000,0.001000
1028.115385,0.025949,0.001000,0.001000,0.001000,0.001000,0.001000
1028.134615,0.024948,0.001000,0.001000,0.001000,0.001000,0.001000
1028.153846,0.023933,0.001000,0.001000,0.001000,0.001000,0.001000
1028.173077,0.022905,0.001000,0.001000,0.001000,0.001000,0.001000
1028.192308,0.021865,0.001000,0.001000,0.001000,0.001000,0.001000
1028.211538,0.020813,0.001000,0.001000,0.001000,0.001000,0.001000
1028.230769,0.019750,0.001000,0.001000,0.001000,0.001000,0.001000
1028.250000,0.018676,0.001000,0.001000,0.001000,0.001000,0.001000
1028.269231,0.017592,0.001000,0.001000,0.001000,0.001000,0.001000
1028.288462,0.016499,0.001000,0.001000,0.001000,0.001000,0.001000
1028.307692,0.015396,0.001000,0.001000,0.001000,0.001000,0.001000
1028.326923,0.014286,0.001000,0.001000,0.001000,0.001000,0.001000
1028.346154,0.013167,0.001000,0.001000,0.001000,0.001000,0.001000
1028.365385,0.012041,0.001000,0.001000,0.001000,0.001000,0.001000
1028.384615,0.010909,0.001000,0.001000,0.001000,0.001000,0.001000
1028.403846,0.009771,0.001000,0.001000,0.001000,0.001000,0.001000
1028.423077,0.008628,0.001000,0.001000,0.001000,0.001000,0.001000
1028.442308,0.007480,0.001000,0.001000,0.001000,0.001000,0.001000
1028.461538,0.006328,0.001000,0.001000,0.001000,0.001000,0.001000
1028.480769,0.005173,0.001000,0.001000,0.001000,0.001000,0.001000
1028.500000,0.004014,0.001000,0.001000,0.001000,0.001000,0.001000
1028.519231,0.002854,0.001000,0.001000,0.001000,0.001000,0.001000
1028.538462,0.001692,0.001000,0.001000,0.001000,0.001000,0.001000
1028.557692,0.000529,0.001000,0.001000,0.001000,0.001000,0.001000
1028.576923,-0.000634,0.001000,0.001000,0.001000,0.001000,0.001000
1028.596154,-0.001797,0.001000,0.001000,0.001000,0.001000,0.001000
1028.615385,-0.002959,0.001000,0.001000,0.001000,0.001000,0.001000
1028.634615,-0.004119,0.001000,0.001000,0.001000,0.001000,0.001000
1028.653846,-0.005277,0.001000,0.001000,0.001000,0.001000,0.001000
1028.673077,-0.006432,0.001000,0.001000,0.001000,0.001000,0.001000
1028.692308,-0.007584,0.001000,0.001000,0.001000,0.001000,0.001000
1028.711538,-0.008731,0.001000,0.001000,0.001000,0.001000,0.001000
1028.730769,-0.009874,0.001000,0.001000,0.001000,0.001000,0.001000
1028.750000,-0.011012,0.001000,0.001000,0.001000,0.001000,0.001000
1028.769231,-0.012143,0.001000,0.001000,0.001000,0.001000,0.001000
1028.788462,-0.013268,0.001000,0.001000,0.001000,0.001000,0.001000
1028.807692,-0.014386,0.001000,0.001000,0.001000,0.001000,0.001000
1028.826923,-0.015496,0.001000,0.001000,0.001000,0.001000,0.001000
1028.846154,-0.016598,0.001000,0.001000,0.001000,0.001000,0.001000
1028.865385,-0.017690,0.001000,0.001000,0.001000,0.001000,0.001000
1028.884615,-0.018774,0.001000,0.001000,0.001000,0.001000,0.001000
1028.903846,-0.019846,0.001000,0.001000,0.001000,0.001000,0.001000
1028.923077,-0.020909,0.001000,0.001000,0.001000,0.001000,0.001000
1028.942308,-0.021960,0.001000,0.001000,0.001000,0.001000,0.001000
1028.961538,-0.022998,0.001000,0.001000,0.001000,0.001000,0.001000
1028.980769,-0.024025,0.001000,0.001000,0.001000,0.001000,0.001000
1029.000000,-0.025039,0.001000,0.001000,0.001000,0.001000,0.001000
1029.019231,-0.026039,0.001000,0.001000,0.001000,0.001000,0.001000
1029.038462,-0.027024,0.001000,0.001000,0.001000,0.001000,0.001000
1029.057692,-0.027996,0.001000,0.001000,0.001000,0.001000,0.001000
1029.076923,-0.028952,0.001000,0.001000,0.001000,0.001000,0.001000
1029.096154,-0.029892,0.001000,0.001000,0.001000,0.001000,0.001000
1029.115385,-0.030816,0.001000,0.001000,0.001000,0.001000,0.001000
1029.134615,-0.031724,0.001000,0.001000,0.001000,0.001000,0.001000
1029.153846,-0.032614,0.001000,0.001000,0.001000,0.001000,0.001000
1029.173077,-0.033487,0.001000,0.001000,0.001000,0.001000,0.001000
1029.192308,-0.034342,0.001000,0.001000,0.001000,0.001000,0.001000
1029.211538,-0.035178,0.001000,0.001000,0.001000,0.001000,0.001000
1029.230769,-0.035995,0.001000,0.001000,0.001000,0.001000,0.001000
1029.250000,-0.036792,0.001000,0.001000,0.001000,0.001000,0.001000
1029.269231,-0.037570,0.001000,0.001000,0.001000,0.001000,0.001000
1029.288462,-0.038327,0.001000,0.001000,0.001000,0.001000,0.001000
1029.307692,-0.039064,0.001000,0.001000,0.001000,0.001000,0.001000
1029.326923,-0.039779,0.001000,0.001000,0.001000,0.001000,0.001000
1029.346154,-0.040473,0.001000,0.001000,0.001000,0.001000,0.001000
1029.365385,-0.041145,0.001000,0.001000,0.001000,0.001000,0.001000
1029.384615,-0.041795,0.001000,0.001000,0.001000,0.001000,0.001000
1029.403846,-0.042422,0.001000,0.001000,0.001000,0.001000,0.001000
1029.423077,-0.043026,0.001000,0.001000,0.001000,0.001000,0.001000
1029.442308,-0.043607,0.001000,0.001000,0.001000,0.001000,0.001000
1029.461538,-0.044164,0.001000,0.001000,0.001000,0.001000,0.001000
1029.480769,-0.044698,0.001000,0.001000,0.001000,0.001000,0.001000
1029.500000,-0.045207,0.001000,0.001000,0.001000,0.001000,0.001000
1029.519231,-0.045691,0.001000,0.001000,0.001000,0.001000,0.001000
1029.538462,-0.046151,0.001000,0.001000,0.001000,0.001000,0.001000
1029.557692,-0.046586,0.001000,0.001000,0.001000,0.001000,0.001000
1029.576923,-0.046996,0.001000,0.001000,0.001000,0.001000,0.001000
1029.596154,-0.047381,0.001000,0.001000,0.001000,0.001000,0.001000
1029.615385,-0.047739,0.001000,0.001000,0.001000,0.001000,0.001000
1029.634615,-0.048072,0.001000,0.001000,0.001000,0.001000,0.001000
1029.653846,-0.048379,0.001000,0.001000,0.001000,0.001000,0.001000
1029.673077,-0.048660,0.001000,0.001000,0.001000,0.001000,0.001000
1029.692308,-0.048914,0.001000,0.001000,0.001000,0.001000,0.001000
1029.711538,-0.049142,0.001000,0.001000,0.001000,0.001000,0.001000
1029.730769,-0.049343,0.001000,0.001000,0.001000,0.001000,0.001000
1029.750000,-0.049518,0.001000,0.001000,0.001000,0.001000,0.001000
1029.769231,-0.049665,0.001000,0.001000,0.001000,0.001000,0.001000
1029.788462,-0.049786,0.001000,0.001000,0.001000,0.001000,0.001000
1029.807692,-0.049880,0.001000,0.001000,0.001000,0.001000,0.001000
1029.826923,-0.049947,0.001000,0.001000,0.001000,0.001000,0.001000
1029.846154,-0.049987,0.001000,0.001000,0.001000,0.001000,0.001000
1029.865385,-0.050000,0.001000,0.001000,0.001000,0.001000,0.001000
1029.884615,-0.049986,0.001000,0.001000,0.001000,0.001000,0.001000
1029.903846,-0.049945,0.001000,0.001000,0.001000,0.001000,0.001000
1029.923077,-0.049876,0.001000,0.001000,0.001000,0.001000,0.001000
1029.942308,-0.049781,0.001000,0.001000,0.001000,0.001000,0.001000
1029.961538,-0.049659,0.001000,0.001000,0.001000,0.001000,0.001000
1029.980769,-0.049510,0.001000,0.001000,0.001000,0.001000,0.001000
1030.000000,0.000000,0.001000,0.001000,0.001000,0.001000,0.001000
1030.019231,0.001109,0.001000,0.001000,0.001000,0.001000,0.001000
1030.038462,0.002217,0.001000,0.001000,0.001000,0.001000,0.001000
1030.057692,0.003324,0.001000,0.001000,0.001000,0.001000,0.001000
1030.076923,0.004430,0.001000,0.001000,0.001000,0.001000,0.001000
1030.096154,0.005533,0.001000,0.001000,0.001000,0.001000,0.001000
1030.115385,0.006633,0.001000,0.001000,0.001000,0.001000,0.001000
1030.134615,0.007731,0.001000,0.001000,0.001000,0.001000,0.001000
1030.153846,0.008824,0.001000,0.001000,0.001000,0.001000,0.001000
1030.173077,0.009913,0.001000,0.001000,0.001000,0.001000,0.001000
1030.192308,0.010998,0.001000,0.001000,0.001000,0.001000,0.001000
1030.211538,0.012077,0.001000,0.001000,0.001000,0.001000,0.001000
1030.230769,0.013150,0.001000,0.001000,0.001000,0.001000,0.001000
1030.250000,0.014216,0.001000,0.001000,0.001000,0.001000,0.001000
1030.269231,0.015276,0.001000,0.001000,0.001000,0.001000,0.001000
1030.288462,0.016328,0.001000,0.001000,0.001000,0.001000,0.001000
1030.307692,0.017371,0.001000,0.001000,0.001000,0.001000,0.001000
1030.326923,0.018407,0.001000,0.001000,0.001000,0.001000,0.001000
1030.346154,0.019433,0.001000,0.001000,0.001000,0.001000,0.001000
1030.365385,0.020450,0.001000,0.001000,0.001000,0.001000,0.001000
1030.384615,0.021457,0.001000,0.001000,0.001000,0.001000,0.001000
1030.403846,0.022453,0.001000,0.001000,0.001000,0.001000,0.001000
1030.423077,0.023438,0.001000,0.001000,0.001000,0.001000,0.001000
1030.442308,0.024412,0.001000,0.001000,0.001000,0.001000,0.001000
1030.461538,0.025373,0.001000,0.001000,0.001000,0.001000,0.001000
1030.480769,0.026322,0.001000,0.001000,0.001000,0.001000,0.001000
1030.500000,0.027259,0.001000,0.001000,0.001000,0.001000,0.001000
1030.519231,0.028181,0.001000,0.001000,0.001000,0.001000,0.001000
1030.538462,0.029090,0.001000,0.001000,0.001000,0.001000,0.001000
1030.557692,0.029985,0.001000,0.001000,0.001000,0.001000,0.001000
1030.576923,0.030865,0.001000,0.001000,0.001000,0.001000,0.001000
1030.596154,0.031730,0.001000,0.001000,0.001000,0.001000,0.001000
1030.615385,0.032579,0.001000,0.001000,0.001000,0.001000,0.001000
1030.634615,0.033412,0.001000,0.001000,0.001000,0.001000,0.001000
1030.653846,0.034228,0.001000,0.001000,0.001000,0.001000,0.001000
1030.673077,0.035028,0.001000,0.001000,0.001000,0.001000,0.001000
1030.692308,0.035811,0.001000,0.001000,0.001000,0.001000,0.001000
1030.711538,0.036576,0.001000,0.001000,0.001000,0.001000,0.001000
1030.730769,0.037323,0.001000,0.001000,0.001000,0.001000,0.001000
1030.750000,0.038051,0.001000,0.001000,0.001000,0.001000,0.001000
1030.769231,0.038761,0.001000,0.001000,0.001000,0.001000,0.001000
1030.788462,0.039452,0.001000,0.001000,0.001000,0.001000,0.001000
1030.807692,0.040124,0.001000,0.001000,0.001000,0.001000,0.001000
1030.826923,0.040775,0.001000,0.001000,0.001000,0.001000,0.001000
1030.846154,0.041407,0.001000,0.001000,0.001000,0.001000,0.001000
1030.865385,0.042018,0.001000,0.001000,0.001000,0.001000,0.001000
1030.884615,0.042609,0.001000,0.001000,0.001000,0.001000,0.001000
1030.903846,0.043179,0.001000,0.001000,0.001000,0.001000,0.001000
1030.923077,0.043727,0.001000,0.001000,0.001000,0.001000,0.001000
1030.942308,0.044254,0.001000,0.001000,0.001000,0.001000,0.001000
1030.961538,0.044759,0.001000,0.001000,0.001000,0.001000,0.001000
1030.980769,0.045242,0.001000,0.001000,0.001000,0.001000,0.001000
1031.000000,0.045703,0.001000,0.001000,0.001000,0.001000,0.001000
1031.019231,0.046142,0.001000,0.001000,0.001000,0.001000,0.001000
1031.038462,0.046557,0.001000,0.001000,0.001000,0.001000,0.001000
1031.057692,0.046950,0.001000,0.001000,0.001000,0.001000,0.001000
1031.076923,0.047320,0.001000,0.001000,0.001000,0.001000,0.001000
1031.096154,0.047666,0.001000,0.001000,0.001000,0.001000,0.001000
1031.115385,0.047989,0.001000,0.001000,0.001000,0.001000,0.001000
1031.134615,0.048289,0.001000,0.001000,0.001000,0.001000,0.001000
1031.153846,0.048565,0.001000,0.001000,0.001000,0.001000,0.001000
1031.173077,0.048816,0.001000,0.001000,0.001000,0.001000,0.001000
1031.192308,0.049044,0.001000,0.001000,0.001000,0.001000,0.001000
1031.211538,0.049248,0.001000,0.001000,0.001000,0.001000,0.001000
1031.230769,0.049427,0.001000,0.001000,0.001000,0.001000,0.001000
1031.250000,0.049583,0.001000,0.001000,0.001000,0.001000,0.001000
1031.269231,0.049713,0.001000,0.001000,0.001000,0.001000,0.001000
1031.288462,0.049820,0.001000,0.001000,0.001000,0.001000,0.001000
1031.307692,0.049902,0.001000,0.001000,0.001000,0.001000,0.001000
1031.326923,0.049959,0.001000,0.001000,0.001000,0.001000,0.001000
1031.346154,0.049992,0.001000,0.001000,0.001000,0.001000,0.001000
1031.365385,0.050000,0.001000,0.001000,0.001000,0.001000,0.001000
1031.384615,0.049983,0.001000,0.001000,0.001000,0.001000,0.001000
1031.403846,0.049942,0.001000,0.001000,0.001000,0.001000,0.001000
1031.423077,0.049877,0.001000,0.001000,0.001000,0.001000,0.001000
1031.442308,0.049786,0.001000,0.001000,0.001000,0.001000,0.001000
1031.461538,0.049672,0.001000,0.001000,0.001000,0.001000,0.001000
1031.480769,0.049533,0.001000,0.001000,0.001000,0.001000,0.001000
1031.500000,0.049369,0.001000,0.001000,0.001000,0.001000,0.001000
1031.519231,0.049182,0.001000,0.001000,0.001000,0.001000,0.001000
1031.538462,0.048970,0.001000,0.001000,0.001000,0.001000,0.001000
1031.557692,0.048734,0.001000,0.001000,0.001000,0.001000,0.001000
1031.576923,0.048474,0.001000,0.001000,0.001000,0.001000,0.001000
1031.596154,0.048190,0.001000,0.001000,0.001000,0.001000,0.001000
1031.615385,0.047883,0.001000,0.001000,0.001000,0.001000,0.001000
1031.634615,0.047552,0.001000,0.001000,0.001000,0.001000,0.001000
1031.653846,0.047197,0.001000,0.001000,0.001000,0.001000,0.001000
1031.673077,0.046820,0.001000,0.001000,0.001000,0.001000,0.001000
1031.692308,0.046419,0.001000,0.001000,0.001000,0.001000,0.001000
1031.711538,0.045996,0.001000,0.001000,0.001000,0.001000,0.001000
1031.730769,0.045550,0.001000,0.001000,0.001000,0.001000,0.001000
1031.750000,0.045081,0.001000,0.001000,0.001000,0.001000,0.001000
1031.769231,0.044591,0.001000,0.001000,0.001000,0.001000,0.001000
1031.788462,0.044078,0.001000,0.001000,0.001000,0.001000,0.001000
1031.807692,0.043544,0.001000,0.001000,0.001000,0.001000,0.001000
1031.826923,0.042988,0.001000,0.001000,0.001000,0.001000,0.001000
1031.846154,0.042411,0.001000,0.001000,0.001000,0.001000,0.001000
1031.865385,0.041814,0.001000,0.001000,0.001000,0.001000,0.001000
1031.884615,0.041195,0.001000,0.001000,0.001000,0.001000,0.001000
1031.903846,0.040557,0.001000,0.001000,0.001000,0.001000,0.001000
1031.923077,0.039898,0.001000,0.001000,0.001000,0.001000,0.001000
1031.942308,0.039220,0.001000,0.001000,0.001000,0.001000,0.001000
1031.961538,0.038523,0.001000,0.001000,0.001000,0.001000,0.001000
1031.980769,0.037807,0.001000,0.001000,0.001000,0.001000,0.001000
1032.000000,0.037072,0.001000,0.001000,0.001000,0.001000,0.001000
1032.019231,0.036319,0.001000,0.001000,0.001000,0.001000,0.001000
1032.038462,0.035548,0.001000,0.001000,0.001000,0.001000,0.001000
1032.057692,0.034759,0.001000,0.001000,0.001000,0.001000,0.001000
1032.076923,0.033954,0.001000,0.001000,0.001000,0.001000,0.001000
1032.096154,0.033132,0.001000,0.001000,0.001000,0.001000,0.001000
1032.115385,0.032293,0.001000,0.001000,0.001000,0.001000,0.001000
1032.134615,0.031439,0.001000,0.001000,0.001000,0.001000,0.001000
1032.153846,0.030569,0.001000,0.001000,0.001000,0.001000,0.001000
1032.173077,0.029684,0.001000,0.001000,0.001000,0.001000,0.001000
1032.192308,0.028784,0.001000,0.001000,0.001000,0.001000,0.001000
1032.211538,0.027871,0.001000,0.001000,0.001000,0.001000,0.001000
1032.230769,0.026943,0.001000,0.001000,0.001000,0.001000,0.001000
1032.250000,0.026003,0.001000,0.001000,0.001000,0.001000,0.001000
1032.269231,0.025049,0.001000,0.001000,0.001000,0.001000,0.001000
1032.288462,0.024083,0.001000,0.001000,0.001000,0.001000,0.001000
1032.307692,0.023106,0.001000,0.001000,0.001000,0.001000,0.001000
1032.326923,0.022117,0.001000,0.001000,0.001000,0.001000,0.001000
1032.346154,0.021117,0.001000,0.001000,0.001000,0.001000,0.001000
1032.365385,0.020107,0.001000,0.001000,0.001000,0.001000,0.001000
1032.384615,0.019087,0.001000,0.001000,0.001000,0.001000,0.001000
1032.403846,0.018057,0.001000,0.001000,0.001000,0.001000,0.001000
1032.423077,0.017019,0.001000,0.001000,0.001000,0.001000,0.001000
1032.442308,0.015972,0.001000,0.001000,0.001000,0.001000,0.001000
1032.461538,0.014918,0.001000,0.001000,0.001000,0.001000,0.001000
1032.480769,0.013856,0.001000,0.001000,0.001000,0.001000,0.001000
1032.500000,0.012787,0.001000,0.001000,0.001000,0.001000,0.001000
1032.519231,0.011712,0.001000,0.001000,0.001000,0.001000,0.001000
1032.538462,0.010631,0.001000,0.001000,0.001000,0.001000,0.001000
1032.557692,0.009545,0.001000,0.001000,0.001000,0.001000,0.001000
1032.576923,0.008455,0.001000,0.001000,0.001000,0.001000,0.001000
1032.596154,0.007360,0.001000,0.001000,0.001000,0.001000,0.001000
1032.615385,0.006261,0.001000,0.001000,0.001000,0.001000,0.001000
1032.634615,0.005160,0.001000,0.001000,0.001000,0.001000,0.001000
1032.653846,0.004056,0.001000,0.001000,0.001000,0.001000,0.001000
1032.673077,0.002949,0.001000,0.001000,0.001000,0.001000,0.001000
1032.692308,0.001842,0.001000,0.001000,0.001000,0.001000,0.001000
1032.711538,0.000733,0.001000,0.001000,0.001000,0.001000,0.001000
1032.730769,-0.000375,0.001000,0.001000,0.001000,0.001000,0.001000
1032.750000,-0.001484,0.001000,0.001000,0.001000,0.001000,0.001000
1032.769231,-0.002592,0.001000,0.001000,0.001000,0.001000,0.001000
1032.788462,-0.003698,0.001000,0.001000,0.001000,0.001000,0.001000
1032.807692,-0.004803,0.001000,0.001000,0.001000,0.001000,0.001000
1032.826923,-0.005906,0.001000,0.001000,0.001000,0.001000,0.001000
1032.846154,-0.007005,0.001000,0.001000,0.001000,0.001000,0.001000
1032.865385,-0.008101,0.001000,0.001000,0.001000,0.001000,0.001000
1032.884615,-0.009193,0.001000,0.001000,0.001000,0.001000,0.001000
1032.903846,-0.010281,0.001000,0.001000,0.001000,0.001000,0.001000
1032.923077,-0.011364,0.001000,0.001000,0.001000,0.001000,0.001000
1032.942308,-0.012440,0.001000,0.001000,0.001000,0.001000,0.001000
1032.961538,-0.013511,0.001000,0.001000,0.001000,0.001000,0.001000
1032.980769,-0.014575,0.001000,0.001000,0.001000,0.001000,0.001000
1033.000000,-0.015632,0.001000,0.001000,0.001000,0.001000,0.001000
1033.019231,-0.016682,0.001000,0.001000,0.001000,0.001000,0.001000
1033.038462,-0.017723,0.001000,0.001000,0.001000,0.001000,0.001000
1033.057692,-0.018755,0.001000,0.001000,0.001000,0.001000,0.001000
1033.076923,-0.019778,0.001000,0.001000,0.001000,0.001000,0.001000
1033.096154,-0.020792,0.001000,0.001000,0.001000,0.001000,0.001000
1033.115385,-0.021795,0.001000,0.001000,0.001000,0.001000,0.001000
1033.134615,-0.022788,0.001000,0.001000,0.001000,0.001000,0.001000
1033.153846,-0.023769,0.001000,0.001000,0.001000,0.001000,0.001000
1033.173077,-0.024739,0.001000,0.001000,0.001000,0.001000,0.001000
1033.192308,-0.025696,0.001000,0.001000,0.001000,0.001000,0.001000
1033.211538,-0.026641,0.001000,0.001000,0.001000,0.001000,0.001000
1033.230769,-0.027573,0.001000,0.001000,0.001000,0.001000,0.001000
1033.250000,-0.028491,0.001000,0.001000,0.001000,0.001000,0.001000
1033.269231,-0.029395,0.001000,0.001000,0.001000,0.001000,0.001000
1033.288462,-0.030284,0.001000,0.001000,0.001000,0.001000,0.001000
1033.307692,-0.031159,0.001000,0.001000,0.001000,0.001000,0.001000
1033.326923,-0.032019,0.001000,0.001000,0.001000,0.001000,0.001000
1033.346154,-0.032862,0.001000,0.001000,0.001000,0.001000,0.001000
1033.365385,-0.033690,0.001000,0.001000,0.001000,0.001000,0.001000
1033.384615,-0.034501,0.001000,0.001000,0.001000,0.001000,0.001000
1033.403846,-0.035295,0.001000,0.001000,0.001000,0.001000,0.001000
1033.423077,-0.036072,0.001000,0.001000,0.001000,0.001000,0.001000
1033.442308,-0.036831,0.001000,0.001000,0.001000,0.001000,0.001000
1033.461538,-0.037571,0.001000,0.001000,0.001000,0.001000,0.001000
1033.480769,-0.038294,0.001000,0.001000,0.001000,0.001000,0.001000
1033.500000,-0.038997,0.001000,0.001000,0.001000,0.001000,0.001000
1033.519231,-0.039682,0.001000,0.001000,0.001000,0.001000,0.001000
1033.538462,-0.040346,0.001000,0.001000,0.001000,0.001000,0.001000
1033.557692,-0.040991,0.001000,0.001000,0.001000,0.001000,0.001000
1033.576923,-0.041616,0.001000,0.001000,0.001000,0.001000,0.001000
1033.596154,-0.042220,0.001000,0.001000,0.001000,0.001000,0.001000
1033.615385,-0.042804,0.001000,0.001000,0.001000,0.001000,0.001000
1033.634615,-0.043367,0.001000,0.001000,0.001000,0.001000,0.001000
1033.653846,-0.043908,0.001000,0.001000,0.001000,0.001000,0.001000
1033.673077,-0.044427,0.001000,0.001000,0.001000,0.001000,0.001000
1033.692308,-0.044925,0.001000,0.001000,0.001000,0.001000,0.001000
1033.711538,-0.045401,0.001000,0.001000,0.001000,0.001000,0.001000
1033.730769,-0.045854,0.001000,0.001000,0.001000,0.001000,0.001000
1033.750000,-0.046285,0.001000,0.001000,0.001000,0.001000,0.001000
1033.769231,-0.046693,0.001000,0.001000,0.001000,0.001000,0.001000
1033.788462,-0.047078,0.001000,0.001000,0.001000,0.001000,0.001000
1033.807692,-0.047440,0.001000,0.001000,0.001000,0.001000,0.001000
1033.826923,-0.047778,0.001000,0.001000,0.001000,0.001000,0.001000
1033.846154,-0.048093,0.001000,0.001000,0.001000,0.001000,0.001000
1033.865385,-0.048385,0.001000,0.001000,0.001000,0.001000,0.001000
1033.884615,-0.048653,0.001000,0.001000,0.001000,0.001000,0.001000
1033.903846,-0.048896,0.001000,0.001000,0.001000,0.001000,0.001000
1033.923077,-0.049116,0.001000,0.001000,0.001000,0.001000,0.001000
1033.942308,-0.049311,0.001000,0.001000,0.001000,0.001000,0.001000
1033.961538,-0.049483,0.001000,0.001000,0.001000,0.001000,0.001000
1033.980769,-0.049630,0.001000,0.001000,0.001000,0.001000,0.001000
1034.000000,-0.049752,0.001000,0.001000,0.001000,0.001000,0.001000
1034.019231,-0.049850,0.001000,0.001000,0.001000,0.001000,0.001000
1034.038462,-0.049924,0.001000,0.001000,0.001000,0.001000,0.001000
1034.057692,-0.049973,0.001000,0.001000,0.001000,0.001000,0.001000
1034.076923,-0.049997,0.001000,0.001000,0.001000,0.001000,0.001000
1034.096154,-0.049997,0.001000,0.001000,0.001000,0.001000,0.001000
1034.115385,-0.049972,0.001000,0.001000,0.001000,0.001000,0.001000
1034.134615,-0.049923,0.001000,0.001000,0.001000,0.001000,0.001000
1034.153846,-0.049849,0.001000,0.001000,0.001000,0.001000,0.001000
1034.173077,-0.049750,0.001000,0.001000,0.001000,0.001000,0.001000
1034.192308,-0.049627,0.001000,0.001000,0.001000,0.001000,0.001000
1034.211538,-0.049480,0.001000,0.001000,0.001000,0.001000,0.001000
1034.230769,-0.049309,0.001000,0.001000,0.001000,0.001000,0.001000
1034.250000,-0.049113,0.001000,0.001000,0.001000,0.001000,0.001000
1034.269231,-0.048893,0.001000,0.001000,0.001000,0.001000,0.001000
1034.288462,-0.048649,0.001000,0.001000,0.001000,0.001000,0.001000
1034.307692,-0.048381,0.001000,0.001000,0.001000,0.001000,0.001000
1034.326923,-0.048089,0.001000,0.001000,0.001000,0.001000,0.001000
1034.346154,-0.047773,0.001000,0.001000,0.001000,0.001000,0.001000
1034.365385,-0.047434,0.001000,0.001000,0.001000,0.001000,0.001000
1034.384615,-0.047072,0.001000,0.001000,0.001000,0.001000,0.001000
1034.403846,-0.046687,0.001000,0.001000,0.001000,0.001000,0.001000
1034.423077,-0.046278,0.001000,0.001000,0.001000,0.001000,0.001000
1034.442308,-0.045847,0.001000,0.001000,0.001000,0.001000,0.001000
1034.461538,-0.045394,0.001000,0.001000,0.001000,0.001000,0.001000
1034.480769,-0.044918,0.001000,0.001000,0.001000,0.001000,0.001000
1034.500000,-0.044419,0.001000,0.001000,0.001000,0.001000,0.001000
1034.519231,-0.043900,0.001000,0.001000,0.001000,0.001000,0.001000
1034.538462,-0.043358,0.001000,0.001000,0.001000,0.001000,0.001000
1034.557692,-0.042795,0.001000,0.001000,0.001000,0.001000,0.001000
1034.576923,-0.042211,0.001000,0.001000,0.001000,0.001000,0.001000
1034.596154,-0.041607,0.001000,0.001000,0.001000,0.001000,0.001000
1034.615385,-0.040981,0.001000,0.001000,0.001000,0.001000,0.001000
1034.634615,-0.040336,0.001000,0.001000,0.001000,0.001000,0.001000
1034.653846,-0.039671,0.001000,0.001000,0.001000,0.001000,0.001000
1034.673077,-0.038986,0.001000,0.001000,0.001000,0.001000,0.001000
