timestamp,ax,ay,az,gx,gy,gz
1000.000000,0.000000,0.001000,0.001000,0.001000,0.001000,0.001000
1000.019231,0.001024,0.001000,0.001000,0.001000,0.001000,0.001000
1000.038462,0.002047,0.001000,0.001000,0.001000,0.001000,0.001000
1000.057692,0.003070,0.001000,0.001000,0.001000,0.001000,0.001000
1000.076923,0.004091,0.001000,0.001000,0.001000,0.001000,0.001000
1000.096154,0.005111,0.001000,0.001000,0.001000,0.001000,0.001000
1000.115385,0.006129,0.001000,0.001000,0.001000,0.001000,0.001000
1000.134615,0.007144,0.001000,0.001000,0.001000,0.001000,0.001000
1000.153846,0.008156,0.001000,0.001000,0.001000,0.001000,0.001000
1000.173077,0.009164,0.001000,0.001000,0.001000,0.001000,0.001000
1000.192308,0.010169,0.001000,0.001000,0.001000,0.001000,0.001000
1000.211538,0.011169,0.001000,0.001000,0.001000,0.001000,0.001000
1000.230769,0.012165,0.001000,0.001000,0.001000,0.001000,0.001000
1000.250000,0.013155,0.001000,0.001000,0.001000,0.001000,0.001000
1000.269231,0.014141,0.001000,0.001000,0.001000,0.001000,0.001000
1000.288462,0.015120,0.001000,0.001000,0.001000,0.001000,0.001000
1000.307692,0.016093,0.001000,0.001000,0.001000,0.001000,0.001000
1000.326923,0.017059,0.001000,0.001000,0.001000,0.001000,0.001000
1000.346154,0.018018,0.001000,0.001000,0.001000,0.001000,0.001000
1000.365385,0.018969,0.001000,0.001000,0.001000,0.001000,0.001000
1000.384615,0.019912,0.001000,0.001000,0.001000,0.001000,0.001000
1000.403846,0.020847,0.001000,0.001000,0.001000,0.001000,0.001000
1000.423077,0.021774,0.001000,0.001000,0.001000,0.001000,0.001000
1000.442308,0.022691,0.001000,0.001000,0.001000,0.001000,0.001000
1000.461538,0.023599,0.001000,0.001000,0.001000,0.001000,0.001000
1000.480769,0.024496,0.001000,0.001000,0.001000,0.001000,0.001000
1000.500000,0.025384,0.001000,0.001000,0.001000,0.001000,0.001000
1000.519231,0.026261,0.001000,0.001000,0.001000,0.001000,0.001000
1000.538462,0.027127,0.001000,0.001000,0.001000,0.001000,0.001000
1000.557692,0.027981,0.001000,0.001000,0.001000,0.001000,0.001000
1000.576923,0.028824,0.001000,0.001000,0.001000,0.001000,0.001000
1000.596154,0.029654,0.001000,0.001000,0.001000,0.001000,0.001000
1000.615385,0.030473,0.001000,0.001000,0.001000,0.001000,0.001000
1000.634615,0.031278,0.001000,0.001000,0.001000,0.001000,0.001000
1000.653846,0.032070,0.001000,0.001000,0.001000,0.001000,0.001000
1000.673077,0.032849,0.001000,0.001000,0.001000,0.001000,0.001000
1000.692308,0.033614,0.001000,0.001000,0.001000,0.001000,0.001000
1000.711538,0.034365,0.001000,0.001000,0.001000,0.001000,0.001000
1000.730769,0.035102,0.001000,0.001000,0.001000,0.001000,0.001000
1000.750000,0.035824,0.001000,0.001000,0.001000,0.001000,0.001000
1000.769231,0.036530,0.001000,0.001000,0.001000,0.001000,0.001000
1000.788462,0.037222,0.001000,0.001000,0.001000,0.001000,0.001000
1000.807692,0.037898,0.001000,0.001000,0.001000,0.001000,0.001000
1000.826923,0.038558,0.001000,0.001000,0.001000,0.001000,0.001000
1000.846154,0.039202,0.001000,0.001000,0.001000,0.001000,0.001000
1000.865385,0.039829,0.001000,0.001000,0.001000,0.001000,0.001000
1000.884615,0.040440,0.001000,0.001000,0.001000,0.001000,0.001000
1000.903846,0.041033,0.001000,0.001000,0.001000,0.001000,0.001000
1000.923077,0.041610,0.001000,0.001000,0.001000,0.001000,0.001000
1000.942308,0.042169,0.001000,0.001000,0.001000,0.001000,0.001000
1000.961538,0.042710,0.001000,0.001000,0.001000,0.001000,0.001000
1000.980769,0.043234,0.001000,0.001000,0.001000,0.001000,0.001000
1001.000000,0.043739,0.001000,0.001000,0.001000,0.001000,0.001000
1001.019231,0.044226,0.001000,0.001000,0.001000,0.001000,0.001000
1001.038462,0.044694,0.001000,0.001000,0.001000,0.001000,0.001000
1001.057692,0.045144,0.001000,0.001000,0.001000,0.001000,0.001000
1001.076923,0.045575,0.001000,0.001000,0.001000,0.001000,0.001000
1001.096154,0.045986,0.001000,0.001000,0.001000,0.001000,0.001000
1001.115385,0.046379,0.001000,0.001000,0.001000,0.001000,0.001000
1001.134615,0.046751,0.001000,0.001000,0.001000,0.001000,0.001000
1001.153846,0.047105,0.001000,0.001000,0.001000,0.001000,0.001000
1001.173077,0.047438,0.001000,0.001000,0.001000,0.001000,0.001000
1001.192308,0.047752,0.001000,0.001000,0.001000,0.001000,0.001000
1001.211538,0.048045,0.001000,0.001000,0.001000,0.001000,0.001000
1001.230769,0.048319,0.001000,0.001000,0.001000,0.001000,0.001000
1001.250000,0.048572,0.001000,0.001000,0.001000,0.001000,0.001000
1001.269231,0.048805,0.001000,0.001000,0.001000,0.001000,0.001000
1001.288462,0.049017,0.001000,0.001000,0.001000,0.001000,0.001000
1001.307692,0.049209,0.001000,0.001000,0.001000,0.001000,0.001000
1001.326923,0.049380,0.001000,0.001000,0.001000,0.001000,0.001000
1001.346154,0.049530,0.001000,0.001000,0.001000,0.001000,0.001000
1001.365385,0.049660,0.001000,0.001000,0.001000,0.001000,0.001000
1001.384615,0.049769,0.001000,0.001000,0.001000,0.001000,0.001000
1001.403846,0.049857,0.001000,0.001000,0.001000,0.001000,0.001000
1001.423077,0.049924,0.001000,0.001000,0.001000,0.001000,0.001000
1001.442308,0.049970,0.001000,0.001000,0.001000,0.001000,0.001000
1001.461538,0.049995,0.001000,0.001000,0.001000,0.001000,0.001000
1001.480769,0.049999,0.001000,0.001000,0.001000,0.001000,0.001000
1001.500000,0.049982,0.001000,0.001000,0.001000,0.001000,0.001000
1001.519231,0.049944,0.001000,0.001000,0.001000,0.001000,0.001000
1001.538462,0.049886,0.001000,0.001000,0.001000,0.001000,0.001000
1001.557692,0.049806,0.001000,0.001000,0.001000,0.001000,0.001000
1001.576923,0.049705,0.001000,0.001000,0.001000,0.001000,0.001000
1001.596154,0.049584,0.001000,0.001000,0.001000,0.001000,0.001000
1001.615385,0.049442,0.001000,0.001000,0.001000,0.001000,0.001000
1001.634615,0.049279,0.001000,0.001000,0.001000,0.001000,0.001000
1001.653846,0.049095,0.001000,0.001000,0.001000,0.001000,0.001000
1001.673077,0.048891,0.001000,0.001000,0.001000,0.001000,0.001000
1001.692308,0.048666,0.001000,0.001000,0.001000,0.001000,0.001000
1001.711538,0.048421,0.001000,0.001000,0.001000,0.001000,0.001000
1001.730769,0.048156,0.001000,0.001000,0.001000,0.001000,0.001000
1001.750000,0.047870,0.001000,0.001000,0.001000,0.001000,0.001000
1001.769231,0.047565,0.001000,0.001000,0.001000,0.001000,0.001000
1001.788462,0.047239,0.001000,0.001000,0.001000,0.001000,0.001000
1001.807692,0.046894,0.001000,0.001000,0.001000,0.001000,0.001000
1001.826923,0.046528,0.001000,0.001000,0.001000,0.001000,0.001000
1001.846154,0.046144,0.001000,0.001000,0.001000,0.001000,0.001000
1001.865385,0.045740,0.001000,0.001000,0.001000,0.001000,0.001000
1001.884615,0.045317,0.001000,0.001000,0.001000,0.001000,0.001000
1001.903846,0.044874,0.001000,0.001000,0.001000,0.001000,0.001000
1001.923077,0.044413,0.001000,0.001000,0.001000,0.001000,0.001000
1001.942308,0.043934,0.001000,0.001000,0.001000,0.001000,0.001000
1001.961538,0.043436,0.001000,0.001000,0.001000,0.001000,0.001000
1001.980769,0.042919,0.001000,0.001000,0.001000,0.001000,0.001000
1002.000000,0.042385,0.001000,0.001000,0.001000,0.001000,0.001000
1002.019231,0.041833,0.001000,0.001000,0.001000,0.001000,0.001000
1002.038462,0.041263,0.001000,0.001000,0.001000,0.001000,0.001000
1002.057692,0.040677,0.001000,0.001000,0.001000,0.001000,0.001000
1002.076923,0.040073,0.001000,0.001000,0.001000,0.001000,0.001000
1002.096154,0.039452,0.001000,0.001000,0.001000,0.001000,0.001000
1002.115385,0.038814,0.001000,0.001000,0.001000,0.001000,0.001000
1002.134615,0.038161,0.001000,0.001000,0.001000,0.001000,0.001000
1002.153846,0.037491,0.001000,0.001000,0.001000,0.001000,0.001000
1002.173077,0.036806,0.001000,0.001000,0.001000,0.001000,0.001000
1002.192308,0.036105,0.001000,0.001000,0.001000,0.001000,0.001000
1002.211538,0.035389,0.001000,0.001000,0.001000,0.001000,0.001000
1002.230769,0.034658,0.001000,0.001000,0.001000,0.001000,0.001000
1002.250000,0.033913,0.001000,0.001000,0.001000,0.001000,0.001000
1002.269231,0.033154,0.001000,0.001000,0.001000,0.001000,0.001000
1002.288462,0.032380,0.001000,0.001000,0.001000,0.001000,0.001000
1002.307692,0.031593,0.001000,0.001000,0.001000,0.001000,0.001000
1002.326923,0.030793,0.001000,0.001000,0.001000,0.001000,0.001000
1002.346154,0.029980,0.001000,0.001000,0.001000,0.001000,0.001000
1002.365385,0.029154,0.001000,0.001000,0.001000,0.001000,0.001000
1002.384615,0.028316,0.001000,0.001000,0.001000,0.001000,0.001000
1002.403846,0.027466,0.001000,0.001000,0.001000,0.001000,0.001000
1002.423077,0.026605,0.001000,0.001000,0.001000,0.001000,0.001000
1002.442308,0.025732,0.001000,0.001000,0.001000,0.001000,0.001000
1002.461538,0.024849,0.001000,0.001000,0.001000,0.001000,0.001000
1002.480769,0.023955,0.001000,0.001000,0.001000,0.001000,0.001000
1002.500000,0.023051,0.001000,0.001000,0.001000,0.001000,0.001000
1002.519231,0.022138,0.001000,0.001000,0.001000,0.001000,0.001000
1002.538462,0.021215,0.001000,0.001000,0.001000,0.001000,0.001000
1002.557692,0.020283,0.001000,0.001000,0.001000,0.001000,0.001000
1002.576923,0.019343,0.001000,0.001000,0.001000,0.001000,0.001000
1002.596154,0.018395,0.001000,0.001000,0.001000,0.001000,0.001000
1002.615385,0.017439,0.001000,0.001000,0.001000,0.001000,0.001000
1002.634615,0.016476,0.001000,0.001000,0.001000,0.001000,0.001000
1002.653846,0.015505,0.001000,0.001000,0.001000,0.001000,0.001000
1002.673077,0.014529,0.001000,0.001000,0.001000,0.001000,0.001000
1002.692308,0.013546,0.001000,0.001000,0.001000,0.001000,0.001000
1002.711538,0.012557,0.001000,0.001000,0.001000,0.001000,0.001000
1002.730769,0.011564,0.001000,0.001000,0.001000,0.001000,0.001000
1002.750000,0.010565,0.001000,0.001000,0.001000,0.001000,0.001000
1002.769231,0.009562,0.001000,0.001000,0.001000,0.001000,0.001000
1002.788462,0.008555,0.001000,0.001000,0.001000,0.001000,0.001000
1002.807692,0.007544,0.001000,0.001000,0.001000,0.001000,0.001000
1002.826923,0.006531,0.001000,0.001000,0.001000,0.001000,0.001000
1002.846154,0.005514,0.001000,0.001000,0.001000,0.001000,0.001000
1002.865385,0.004495,0.001000,0.001000,0.001000,0.001000,0.001000
1002.884615,0.003474,0.001000,0.001000,0.001000,0.001000,0.001000
1002.903846,0.002452,0.001000,0.001000,0.001000,0.001000,0.001000
1002.923077,0.001429,0.001000,0.001000,0.001000,0.001000,0.001000
1002.942308,0.000405,0.001000,0.001000,0.001000,0.001000,0.001000
1002.961538,-0.000619,0.001000,0.001000,0.001000,0.001000,0.001000
1002.980769,-0.001643,0.001000,0.001000,0.001000,0.001000,0.001000
1003.000000,-0.002666,0.001000,0.001000,0.001000,0.001000,0.001000
1003.019231,-0.003688,0.001000,0.001000,0.001000,0.001000,0.001000
1003.038462,-0.004708,0.001000,0.001000,0.001000,0.001000,0.001000
1003.057692,-0.005726,0.001000,0.001000,0.001000,0.001000,0.001000
1003.076923,-0.006742,0.001000,0.001000,0.001000,0.001000,0.001000
1003.096154,-0.007755,0.001000,0.001000,0.001000,0.001000,0.001000
1003.115385,-0.008765,0.001000,0.001000,0.001000,0.001000,0.001000
1003.134615,-0.009772,0.001000,0.001000,0.001000,0.001000,0.001000
1003.153846,-0.010774,0.001000,0.001000,0.001000,0.001000,0.001000
1003.173077,-0.011771,0.001000,0.001000,0.001000,0.001000,0.001000
1003.192308,-0.012764,0.001000,0.001000,0.001000,0.001000,0.001000
1003.211538,-0.013751,0.001000,0.001000,0.001000,0.001000,0.001000
1003.230769,-0.014733,0.001000,0.001000,0.001000,0.001000,0.001000
1003.250000,-0.015708,0.001000,0.001000,0.001000,0.001000,0.001000
1003.269231,-0.016677,0.001000,0.001000,0.001000,0.001000,0.001000
1003.288462,-0.017639,0.001000,0.001000,0.001000,0.001000,0.001000
1003.307692,-0.018593,0.001000,0.001000,0.001000,0.001000,0.001000
1003.326923,-0.019540,0.001000,0.001000,0.001000,0.001000,0.001000
1003.346154,-0.020479,0.001000,0.001000,0.001000,0.001000,0.001000
1003.365385,-0.021408,0.001000,0.001000,0.001000,0.001000,0.001000
1003.384615,-0.022329,0.001000,0.001000,0.001000,0.001000,0.001000
1003.403846,-0.023241,0.001000,0.001000,0.001000,0.001000,0.001000
1003.423077,-0.024142,0.001000,0.001000,0.001000,0.001000,0.001000
1003.442308,-0.025034,0.001000,0.001000,0.001000,0.001000,0.001000
1003.461538,-0.025915,0.001000,0.001000,0.001000,0.001000,0.001000
1003.480769,-0.026785,0.001000,0.001000,0.001000,0.001000,0.001000
1003.500000,-0.027644,0.001000,0.001000,0.001000,0.001000,0.001000
1003.519231,-0.028492,0.001000,0.001000,0.001000,0.001000,0.001000
1003.538462,-0.029327,0.001000,0.001000,0.001000,0.001000,0.001000
1003.557692,-0.030150,0.001000,0.001000,0.001000,0.001000,0.001000
1003.576923,-0.030961,0.001000,0.001000,0.001000,0.001000,0.001000
1003.596154,-0.031758,0.001000,0.001000,0.001000,0.001000,0.001000
1003.615385,-0.032543,0.001000,0.001000,0.001000,0.001000,0.001000
1003.634615,-0.033313,0.001000,0.001000,0.001000,0.001000,0.001000
1003.653846,-0.034070,0.001000,0.001000,0.001000,0.001000,0.001000
1003.673077,-0.034812,0.001000,0.001000,0.001000,0.001000,0.001000
1003.692308,-0.035540,0.001000,0.001000,0.001000,0.001000,0.001000
1003.711538,-0.036253,0.001000,0.001000,0.001000,0.001000,0.001000
1003.730769,-0.036950,0.001000,0.001000,0.001000,0.001000,0.001000
1003.750000,-0.037632,0.001000,0.001000,0.001000,0.001000,0.001000
1003.769231,-0.038299,0.001000,0.001000,0.001000,0.001000,0.001000
1003.788462,-0.038949,0.001000,0.001000,0.001000,0.001000,0.001000
1003.807692,-0.039583,0.001000,0.001000,0.001000,0.001000,0.001000
1003.826923,-0.040200,0.001000,0.001000,0.001000,0.001000,0.001000
1003.846154,-0.040800,0.001000,0.001000,0.001000,0.001000,0.001000
1003.865385,-0.041384,0.001000,0.001000,0.001000,0.001000,0.001000
1003.884615,-0.041950,0.001000,0.001000,0.001000,0.001000,0.001000
1003.903846,-0.042498,0.001000,0.001000,0.001000,0.001000,0.001000
1003.923077,-0.043029,0.001000,0.001000,0.001000,0.001000,0.001000
1003.942308,-0.043541,0.001000,0.001000,0.001000,0.001000,0.001000
1003.961538,-0.044035,0.001000,0.001000,0.001000,0.001000,0.001000
1003.980769,-0.044511,0.001000,0.001000,0.001000,0.001000,0.001000
1004.000000,-0.044968,0.001000,0.001000,0.001000,0.001000,0.001000
1004.019231,-0.045406,0.001000,0.001000,0.001000,0.001000,0.001000
1004.038462,-0.045826,0.001000,0.001000,0.001000,0.001000,0.001000
1004.057692,-0.046226,0.001000,0.001000,0.001000,0.001000,0.001000
1004.076923,-0.046606,0.001000,0.001000,0.001000,0.001000,0.001000
1004.096154,-0.046967,0.001000,0.001000,0.001000,0.001000,0.001000
1004.115385,-0.047309,0.001000,0.001000,0.001000,0.001000,0.001000
1004.134615,-0.047630,0.001000,0.001000,0.001000,0.001000,0.001000
1004.153846,-0.047932,0.001000,0.001000,0.001000,0.001000,0.001000
1004.173077,-0.048213,0.001000,0.001000,0.001000,0.001000,0.001000
1004.192308,-0.048474,0.001000,0.001000,0.001000,0.001000,0.001000
1004.211538,-0.048715,0.001000,0.001000,0.001000,0.001000,0.001000
1004.230769,-0.048935,0.001000,0.001000,0.001000,0.001000,0.001000
1004.250000,-0.049135,0.001000,0.001000,0.001000,0.001000,0.001000
1004.269231,-0.049315,0.001000,0.001000,0.001000,0.001000,0.001000
1004.288462,-0.049473,0.001000,0.001000,0.001000,0.001000,0.001000
1004.307692,-0.049611,0.001000,0.001000,0.001000,0.001000,0.001000
1004.326923,-0.049728,0.001000,0.001000,0.001000,0.001000,0.001000
1004.346154,-0.049824,0.001000,0.001000,0.001000,0.001000,0.001000
1004.365385,-0.049900,0.001000,0.001000,0.001000,0.001000,0.001000
1004.384615,-0.049954,0.001000,0.001000,0.001000,0.001000,0.001000
1004.403846,-0.049987,0.001000,0.001000,0.001000,0.001000,0.001000
1004.423077,-0.050000,0.001000,0.001000,0.001000,0.001000,0.001000
1004.442308,-0.049991,0.001000,0.001000,0.001000,0.001000,0.001000
1004.461538,-0.049962,0.001000,0.001000,0.001000,0.001000,0.001000
1004.480769,-0.049911,0.001000,0.001000,0.001000,0.001000,0.001000
1004.500000,-0.049840,0.001000,0.001000,0.001000,0.001000,0.001000
1004.519231,-0.049748,0.001000,0.001000,0.001000,0.001000,0.001000
1004.538462,-0.049635,0.001000,0.001000,0.001000,0.001000,0.001000
1004.557692,-0.049501,0.001000,0.001000,0.001000,0.001000,0.001000
1004.576923,-0.049346,0.001000,0.001000,0.001000,0.001000,0.001000
1004.596154,-0.049170,0.001000,0.001000,0.001000,0.001000,0.001000
1004.615385,-0.048974,0.001000,0.001000,0.001000,0.001000,0.001000
1004.634615,-0.048758,0.001000,0.001000,0.001000,0.001000,0.001000
1004.653846,-0.048521,0.001000,0.001000,0.001000,0.001000,0.001000
1004.673077,-0.048263,0.001000,0.001000,0.001000,0.001000,0.001000
1004.692308,-0.047986,0.001000,0.001000,0.001000,0.001000,0.001000
1004.711538,-0.047688,0.001000,0.001000,0.001000,0.001000,0.001000
1004.730769,-0.047370,0.001000,0.001000,0.001000,0.001000,0.001000
1004.750000,-0.047033,0.001000,0.001000,0.001000,0.001000,0.001000
1004.769231,-0.046675,0.001000,0.001000,0.001000,0.001000,0.001000
1004.788462,-0.046298,0.001000,0.001000,0.001000,0.001000,0.001000
1004.807692,-0.045902,0.001000,0.001000,0.001000,0.001000,0.001000
1004.826923,-0.045486,0.001000,0.001000,0.001000,0.001000,0.001000
1004.846154,-0.045052,0.001000,0.001000,0.001000,0.001000,0.001000
1004.865385,-0.044598,0.001000,0.001000,0.001000,0.001000,0.001000
1004.884615,-0.044126,0.001000,0.001000,0.001000,0.001000,0.001000
1004.903846,-0.043635,0.001000,0.001000,0.001000,0.001000,0.001000
1004.923077,-0.043126,0.001000,0.001000,0.001000,0.001000,0.001000
1004.942308,-0.042599,0.001000,0.001000,0.001000,0.001000,0.001000
1004.961538,-0.042054,0.001000,0.001000,0.001000,0.001000,0.001000
1004.980769,-0.041491,0.001000,0.001000,0.001000,0.001000,0.001000
1005.000000,-0.040911,0.001000,0.001000,0.001000,0.001000,0.001000
1005.019231,-0.040314,0.001000,0.001000,0.001000,0.001000,0.001000
1005.038462,-0.039699,0.001000,0.001000,0.001000,0.001000,0.001000
1005.057692,-0.039069,0.001000,0.001000,0.001000,0.001000,0.001000
1005.076923,-0.038421,0.001000,0.001000,0.001000,0.001000,0.001000
1005.096154,-0.037758,0.001000,0.001000,0.001000,0.001000,0.001000
1005.115385,-0.037079,0.001000,0.001000,0.001000,0.001000,0.001000
1005.134615,-0.036384,0.001000,0.001000,0.001000,0.001000,0.001000
1005.153846,-0.035674,0.001000,0.001000,0.001000,0.001000,0.001000
1005.173077,-0.034949,0.001000,0.001000,0.001000,0.001000,0.001000
1005.192308,-0.034210,0.001000,0.001000,0.001000,0.001000,0.001000
1005.211538,-0.033456,0.001000,0.001000,0.001000,0.001000,0.001000
1005.230769,-0.032688,0.001000,0.001000,0.001000,0.001000,0.001000
1005.250000,-0.031906,0.001000,0.001000,0.001000,0.001000,0.001000
1005.269231,-0.031111,0.001000,0.001000,0.001000,0.001000,0.001000
1005.288462,-0.030303,0.001000,0.001000,0.001000,0.001000,0.001000
1005.307692,-0.029482,0.001000,0.001000,0.001000,0.001000,0.001000
1005.326923,-0.028649,0.001000,0.001000,0.001000,0.001000,0.001000
1005.346154,-0.027804,0.001000,0.001000,0.001000,0.001000,0.001000
1005.365385,-0.026947,0.001000,0.001000,0.001000,0.001000,0.001000
1005.384615,-0.026079,0.001000,0.001000,0.001000,0.001000,0.001000
1005.403846,-0.025200,0.001000,0.001000,0.001000,0.001000,0.001000
1005.423077,-0.024310,0.001000,0.001000,0.001000,0.001000,0.001000
1005.442308,-0.023410,0.001000,0.001000,0.001000,0.001000,0.001000
1005.461538,-0.022500,0.001000,0.001000,0.001000,0.001000,0.001000
1005.480769,-0.021581,0.001000,0.001000,0.001000,0.001000,0.001000
1005.500000,-0.020653,0.001000,0.001000,0.001000,0.001000,0.001000
1005.519231,-0.019716,0.001000,0.001000,0.001000,0.001000,0.001000
1005.538462,-0.018771,0.001000,0.001000,0.001000,0.001000,0.001000
1005.557692,-0.017818,0.001000,0.001000,0.001000,0.001000,0.001000
1005.576923,-0.016858,0.001000,0.001000,0.001000,0.001000,0.001000
1005.596154,-0.015890,0.001000,0.001000,0.001000,0.001000,0.001000
1005.615385,-0.014916,0.001000,0.001000,0.001000,0.001000,0.001000
1005.634615,-0.013936,0.001000,0.001000,0.001000,0.001000,0.001000
1005.653846,-0.012949,0.001000,0.001000,0.001000,0.001000,0.001000
1005.673077,-0.011958,0.001000,0.001000,0.001000,0.001000,0.001000
1005.692308,-0.010961,0.001000,0.001000,0.001000,0.001000,0.001000
1005.711538,-0.009959,0.001000,0.001000,0.001000,0.001000,0.001000
1005.730769,-0.008954,0.001000,0.001000,0.001000,0.001000,0.001000
1005.750000,-0.007945,0.001000,0.001000,0.001000,0.001000,0.001000
1005.769231,-0.006932,0.001000,0.001000,0.001000,0.001000,0.001000
1005.788462,-0.005917,0.001000,0.001000,0.001000,0.001000,0.001000
1005.807692,-0.004899,0.001000,0.001000,0.001000,0.001000,0.001000
1005.826923,-0.003879,0.001000,0.001000,0.001000,0.001000,0.001000
1005.846154,-0.002857,0.001000,0.001000,0.001000,0.001000,0.001000
1005.865385,-0.001834,0.001000,0.001000,0.001000,0.001000,0.001000
1005.884615,-0.000810,0.001000,0.001000,0.001000,0.001000,0.001000
1005.903846,0.000214,0.001000,0.001000,0.001000,0.001000,0.001000
1005.923077,0.001238,0.001000,0.001000,0.001000,0.001000,0.001000
1005.942308,0.002261,0.001000,0.001000,0.001000,0.001000,0.001000
1005.961538,0.003283,0.001000,0.001000,0.001000,0.001000,0.001000
1005.980769,0.004304,0.001000,0.001000,0.001000,0.001000,0.001000
1006.000000,0.005324,0.001000,0.001000,0.001000,0.001000,0.001000
1006.019231,0.006341,0.001000,0.001000,0.001000,0.001000,0.001000
1006.038462,0.007355,0.001000,0.001000,0.001000,0.001000,0.001000
1006.057692,0.008366,0.001000,0.001000,0.001000,0.001000,0.001000
1006.076923,0.009374,0.001000,0.001000,0.001000,0.001000,0.001000
1006.096154,0.010378,0.001000,0.001000,0.001000,0.001000,0.001000
1006.115385,0.011377,0.001000,0.001000,0.001000,0.001000,0.001000
1006.134615,0.012372,0.001000,0.001000,0.001000,0.001000,0.001000
1006.153846,0.013361,0.001000,0.001000,0.001000,0.001000,0.001000
1006.173077,0.014345,0.001000,0.001000,0.001000,0.001000,0.001000
1006.192308,0.015323,0.001000,0.001000,0.001000,0.001000,0.001000
1006.211538,0.016295,0.001000,0.001000,0.001000,0.001000,0.001000
1006.230769,0.017259,0.001000,0.001000,0.001000,0.001000,0.001000
1006.250000,0.018217,0.001000,0.001000,0.001000,0.001000,0.001000
1006.269231,0.019166,0.001000,0.001000,0.001000,0.001000,0.001000
1006.288462,0.020108,0.001000,0.001000,0.001000,0.001000,0.001000
1006.307692,0.021041,0.001000,0.001000,0.001000,0.001000,0.001000
1006.326923,0.021966,0.001000,0.001000,0.001000,0.001000,0.001000
1006.346154,0.022881,0.001000,0.001000,0.001000,0.001000,0.001000
1006.365385,0.023787,0.001000,0.001000,0.001000,0.001000,0.001000
1006.384615,0.024682,0.001000,0.001000,0.001000,0.001000,0.001000
1006.403846,0.025568,0.001000,0.001000,0.001000,0.001000,0.001000
1006.423077,0.026442,0.001000,0.001000,0.001000,0.001000,0.001000
1006.442308,0.027306,0.001000,0.001000,0.001000,0.001000,0.001000
1006.461538,0.028158,0.001000,0.001000,0.001000,0.001000,0.001000
1006.480769,0.028998,0.001000,0.001000,0.001000,0.001000,0.001000
1006.500000,0.029826,0.001000,0.001000,0.001000,0.001000,0.001000
1006.519231,0.030642,0.001000,0.001000,0.001000,0.001000,0.001000
1006.538462,0.031444,0.001000,0.001000,0.001000,0.001000,0.001000
1006.557692,0.032234,0.001000,0.001000,0.001000,0.001000,0.001000
1006.576923,0.033010,0.001000,0.001000,0.001000,0.001000,0.001000
1006.596154,0.033772,0.001000,0.001000,0.001000,0.001000,0.001000
1006.615385,0.034520,0.001000,0.001000,0.001000,0.001000,0.001000
1006.634615,0.035254,0.001000,0.001000,0.001000,0.001000,0.001000
1006.653846,0.035972,0.001000,0.001000,0.001000,0.001000,0.001000
1006.673077,0.036676,0.001000,0.001000,0.001000,0.001000,0.001000
1006.692308,0.037364,0.001000,0.001000,0.001000,0.001000,0.001000
1006.711538,0.038037,0.001000,0.001000,0.001000,0.001000,0.001000
1006.730769,0.038693,0.001000,0.001000,0.001000,0.001000,0.001000
1006.750000,0.039334,0.001000,0.001000,0.001000,0.001000,0.001000
1006.769231,0.039958,0.001000,0.001000,0.001000,0.001000,0.001000
1006.788462,0.040565,0.001000,0.001000,0.001000,0.001000,0.001000
1006.807692,0.041155,0.001000,0.001000,0.001000,0.001000,0.001000
1006.826923,0.041728,0.001000,0.001000,0.001000,0.001000,0.001000
1006.846154,0.042283,0.001000,0.001000,0.001000,0.001000,0.001000
1006.865385,0.042821,0.001000,0.001000,0.001000,0.001000,0.001000
1006.884615,0.043340,0.001000,0.001000,0.001000,0.001000,0.001000
1006.903846,0.043842,0.001000,0.001000,0.001000,0.001000,0.001000
1006.923077,0.044325,0.001000,0.001000,0.001000,0.001000,0.001000
1006.942308,0.044790,0.001000,0.001000,0.001000,0.001000,0.001000
1006.961538,0.045235,0.001000,0.001000,0.001000,0.001000,0.001000
1006.980769,0.045662,0.001000,0.001000,0.001000,0.001000,0.001000
1007.000000,0.046070,0.001000,0.001000,0.001000,0.001000,0.001000
1007.019231,0.046458,0.001000,0.001000,0.001000,0.001000,0.001000
1007.038462,0.046827,0.001000,0.001000,0.001000,0.001000,0.001000
1007.057692,0.047176,0.001000,0.001000,0.001000,0.001000,0.001000
1007.076923,0.047505,0.001000,0.001000,0.001000,0.001000,0.001000
1007.096154,0.047815,0.001000,0.001000,0.001000,0.001000,0.001000
1007.115385,0.048104,0.001000,0.001000,0.001000,0.001000,0.001000
1007.134615,0.048373,0.001000,0.001000,0.001000,0.001000,0.001000
1007.153846,0.048622,0.001000,0.001000,0.001000,0.001000,0.001000
1007.173077,0.048851,0.001000,0.001000,0.001000,0.001000,0.001000
1007.192308,0.049059,0.001000,0.001000,0.001000,0.001000,0.001000
1007.211538,0.049246,0.001000,0.001000,0.001000,0.001000,0.001000
1007.230769,0.049413,0.001000,0.001000,0.001000,0.001000,0.001000
1007.250000,0.049559,0.001000,0.001000,0.001000,0.001000,0.001000
1007.269231,0.049684,0.001000,0.001000,0.001000,0.001000,0.001000
1007.288462,0.049789,0.001000,0.001000,0.001000,0.001000,0.001000
1007.307692,0.049872,0.001000,0.001000,0.001000,0.001000,0.001000
1007.326923,0.049935,0.001000,0.001000,0.001000,0.001000,0.001000
1007.346154,0.049977,0.001000,0.001000,0.001000,0.001000,0.001000
1007.365385,0.049997,0.001000,0.001000,0.001000,0.001000,0.001000
1007.384615,0.049997,0.001000,0.001000,0.001000,0.001000,0.001000
1007.403846,0.049976,0.001000,0.001000,0.001000,0.001000,0.001000
1007.423077,0.049934,0.001000,0.001000,0.001000,0.001000,0.001000
1007.442308,0.049871,0.001000,0.001000,0.001000,0.001000,0.001000
1007.461538,0.049787,0.001000,0.001000,0.001000,0.001000,0.001000
1007.480769,0.049682,0.001000,0.001000,0.001000,0.001000,0.001000
1007.500000,0.049556,0.001000,0.001000,0.001000,0.001000,0.001000
1007.519231,0.049410,0.001000,0.001000,0.001000,0.001000,0.001000
1007.538462,0.049242,0.001000,0.001000,0.001000,0.001000,0.001000
1007.557692,0.049054,0.001000,0.001000,0.001000,0.001000,0.001000
1007.576923,0.048846,0.001000,0.001000,0.001000,0.001000,0.001000
1007.596154,0.048617,0.001000,0.001000,0.001000,0.001000,0.001000
1007.615385,0.048368,0.001000,0.001000,0.001000,0.001000,0.001000
1007.634615,0.048098,0.001000,0.001000,0.001000,0.001000,0.001000
1007.653846,0.047808,0.001000,0.001000,0.001000,0.001000,0.001000
1007.673077,0.047498,0.001000,0.001000,0.001000,0.001000,0.001000
1007.692308,0.047169,0.001000,0.001000,0.001000,0.001000,0.001000
1007.711538,0.046819,0.001000,0.001000,0.001000,0.001000,0.001000
1007.730769,0.046450,0.001000,0.001000,0.001000,0.001000,0.001000
1007.750000,0.046061,0.001000,0.001000,0.001000,0.001000,0.001000
1007.769231,0.045653,0.001000,0.001000,0.001000,0.001000,0.001000
1007.788462,0.045226,0.001000,0.001000,0.001000,0.001000,0.001000
1007.807692,0.044780,0.001000,0.001000,0.001000,0.001000,0.001000
1007.826923,0.044315,0.001000,0.001000,0.001000,0.001000,0.001000
1007.846154,0.043831,0.001000,0.001000,0.001000,0.001000,0.001000
1007.865385,0.043329,0.001000,0.001000,0.001000,0.001000,0.001000
1007.884615,0.042809,0.001000,0.001000,0.001000,0.001000,0.001000
1007.903846,0.042271,0.001000,0.001000,0.001000,0.001000,0.001000
1007.923077,0.041716,0.001000,0.001000,0.001000,0.001000,0.001000
1007.942308,0.041142,0.001000,0.001000,0.001000,0.001000,0.001000
1007.961538,0.040552,0.001000,0.001000,0.001000,0.001000,0.001000
1007.980769,0.039944,0.001000,0.001000,0.001000,0.001000,0.001000
1008.000000,0.039320,0.001000,0.001000,0.001000,0.001000,0.001000
1008.019231,0.038679,0.001000,0.001000,0.001000,0.001000,0.001000
1008.038462,0.038022,0.001000,0.001000,0.001000,0.001000,0.001000
1008.057692,0.037350,0.001000,0.001000,0.001000,0.001000,0.001000
1008.076923,0.036661,0.001000,0.001000,0.001000,0.001000,0.001000
1008.096154,0.035957,0.001000,0.001000,0.001000,0.001000,0.001000
1008.115385,0.035238,0.001000,0.001000,0.001000,0.001000,0.001000
1008.134615,0.034504,0.001000,0.001000,0.001000,0.001000,0.001000
1008.153846,0.033756,0.001000,0.001000,0.001000,0.001000,0.001000
1008.173077,0.032993,0.001000,0.001000,0.001000,0.001000,0.001000
1008.192308,0.032217,0.001000,0.001000,0.001000,0.001000,0.001000
1008.211538,0.031427,0.001000,0.001000,0.001000,0.001000,0.001000
1008.230769,0.030624,0.001000,0.001000,0.001000,0.001000,0.001000
1008.250000,0.029808,0.001000,0.001000,0.001000,0.001000,0.001000
1008.269231,0.028980,0.001000,0.001000,0.001000,0.001000,0.001000
1008.288462,0.028140,0.001000,0.001000,0.001000,0.001000,0.001000
1008.307692,0.027287,0.001000,0.001000,0.001000,0.001000,0.001000
1008.326923,0.026424,0.001000,0.001000,0.001000,0.001000,0.001000
1008.346154,0.025549,0.001000,0.001000,0.001000,0.001000,0.001000
1008.365385,0.024663,0.001000,0.001000,0.001000,0.001000,0.001000
1008.384615,0.023767,0.001000,0.001000,0.001000,0.001000,0.001000
1008.403846,0.022862,0.001000,0.001000,0.001000,0.001000,0.001000
1008.423077,0.021946,0.001000,0.001000,0.001000,0.001000,0.001000
1008.442308,0.021021,0.001000,0.001000,0.001000,0.001000,0.001000
1008.461538,0.020088,0.001000,0.001000,0.001000,0.001000,0.001000
1008.480769,0.019146,0.001000,0.001000,0.001000,0.001000,0.001000
1008.500000,0.018196,0.001000,0.001000,0.001000,0.001000,0.001000
1008.519231,0.017239,0.001000,0.001000,0.001000,0.001000,0.001000
1008.538462,0.016274,0.001000,0.001000,0.001000,0.001000,0.001000
1008.557692,0.015302,0.001000,0.001000,0.001000,0.001000,0.001000
1008.576923,0.014324,0.001000,0.001000,0.001000,0.001000,0.001000
1008.596154,0.013340,0.001000,0.001000,0.001000,0.001000,0.001000
1008.615385,0.012351,0.001000,0.001000,0.001000,0.001000,0.001000
1008.634615,0.011356,0.001000,0.001000,0.001000,0.001000,0.001000
1008.653846,0.010356,0.001000,0.001000,0.001000,0.001000,0.001000
1008.673077,0.009352,0.001000,0.001000,0.001000,0.001000,0.001000
1008.692308,0.008344,0.001000,0.001000,0.001000,0.001000,0.001000
1008.711538,0.007333,0.001000,0.001000,0.001000,0.001000,0.001000
1008.730769,0.006319,0.001000,0.001000,0.001000,0.001000,0.001000
1008.750000,0.005302,0.001000,0.001000,0.001000,0.001000,0.001000
1008.769231,0.004282,0.001000,0.001000,0.001000,0.001000,0.001000
1008.788462,0.003261,0.001000,0.001000,0.001000,0.001000,0.001000
1008.807692,0.002239,0.001000,0.001000,0.001000,0.001000,0.001000
1008.826923,0.001215,0.001000,0.001000,0.001000,0.001000,0.001000
1008.846154,0.000192,0.001000,0.001000,0.001000,0.001000,0.001000
1008.865385,-0.000832,0.001000,0.001000,0.001000,0.001000,0.001000
1008.884615,-0.001856,0.001000,0.001000,0.001000,0.001000,0.001000
1008.903846,-0.002879,0.001000,0.001000,0.001000,0.001000,0.001000
1008.923077,-0.003901,0.001000,0.001000,0.001000,0.001000,0.001000
1008.942308,-0.004921,0.001000,0.001000,0.001000,0.001000,0.001000
1008.961538,-0.005938,0.001000,0.001000,0.001000,0.001000,0.001000
1008.980769,-0.006954,0.001000,0.001000,0.001000,0.001000,0.001000
1009.000000,-0.007966,0.001000,0.001000,0.001000,0.001000,0.001000
1009.019231,-0.008976,0.001000,0.001000,0.001000,0.001000,0.001000
1009.038462,-0.009981,0.001000,0.001000,0.001000,0.001000,0.001000
1009.057692,-0.010982,0.001000,0.001000,0.001000,0.001000,0.001000
1009.076923,-0.011979,0.001000,0.001000,0.001000,0.001000,0.001000
1009.096154,-0.012971,0.001000,0.001000,0.001000,0.001000,0.001000
1009.115385,-0.013957,0.001000,0.001000,0.001000,0.001000,0.001000
1009.134615,-0.014937,0.001000,0.001000,0.001000,0.001000,0.001000
1009.153846,-0.015911,0.001000,0.001000,0.001000,0.001000,0.001000
1009.173077,-0.016878,0.001000,0.001000,0.001000,0.001000,0.001000
1009.192308,-0.017839,0.001000,0.001000,0.001000,0.001000,0.001000
1009.211538,-0.018792,0.001000,0.001000,0.001000,0.001000,0.001000
1009.230769,-0.019737,0.001000,0.001000,0.001000,0.001000,0.001000
1009.250000,-0.020673,0.001000,0.001000,0.001000,0.001000,0.001000
1009.269231,-0.021601,0.001000,0.001000,0.001000,0.001000,0.001000
1009.288462,-0.022520,0.001000,0.001000,0.001000,0.001000,0.001000
1009.307692,-0.023430,0.001000,0.001000,0.001000,0.001000,0.001000
1009.326923,-0.024329,0.001000,0.001000,0.001000,0.001000,0.001000
1009.346154,-0.025219,0.001000,0.001000,0.001000,0.001000,0.001000
1009.365385,-0.026098,0.001000,0.001000,0.001000,0.001000,0.001000
1009.384615,-0.026966,0.001000,0.001000,0.001000,0.001000,0.001000
1009.403846,-0.027822,0.001000,0.001000,0.001000,0.001000,0.001000
1009.423077,-0.028667,0.001000,0.001000,0.001000,0.001000,0.001000
1009.442308,-0.029500,0.001000,0.001000,0.001000,0.001000,0.001000
1009.461538,-0.030321,0.001000,0.001000,0.001000,0.001000,0.001000
1009.480769,-0.031128,0.001000,0.001000,0.001000,0.001000,0.001000
1009.500000,-0.031923,0.001000,0.001000,0.001000,0.001000,0.001000
1009.519231,-0.032705,0.001000,0.001000,0.001000,0.001000,0.001000
1009.538462,-0.033472,0.001000,0.001000,0.001000,0.001000,0.001000
1009.557692,-0.034226,0.001000,0.001000,0.001000,0.001000,0.001000
1009.576923,-0.034965,0.001000,0.001000,0.001000,0.001000,0.001000
1009.596154,-0.035690,0.001000,0.001000,0.001000,0.001000,0.001000
1009.615385,-0.036399,0.001000,0.001000,0.001000,0.001000,0.001000
1009.634615,-0.037094,0.001000,0.001000,0.001000,0.001000,0.001000
1009.653846,-0.037773,0.001000,0.001000,0.001000,0.001000,0.001000
1009.673077,-0.038436,0.001000,0.001000,0.001000,0.001000,0.001000
1009.692308,-0.039082,0.001000,0.001000,0.001000,0.001000,0.001000
1009.711538,-0.039713,0.001000,0.001000,0.001000,0.001000,0.001000
1009.730769,-0.040327,0.001000,0.001000,0.001000,0.001000,0.001000
1009.750000,-0.040924,0.001000,0.001000,0.001000,0.001000,0.001000
1009.769231,-0.041503,0.001000,0.001000,0.001000,0.001000,0.001000
1009.788462,-0.042066,0.001000,0.001000,0.001000,0.001000,0.001000
1009.807692,-0.042610,0.001000,0.001000,0.001000,0.001000,0.001000
1009.826923,-0.043137,0.001000,0.001000,0.001000,0.001000,0.001000
1009.846154,-0.043646,0.001000,0.001000,0.001000,0.001000,0.001000
1009.865385,-0.044136,0.001000,0.001000,0.001000,0.001000,0.001000
1009.884615,-0.044608,0.001000,0.001000,0.001000,0.001000,0.001000
1009.903846,-0.045061,0.001000,0.001000,0.001000,0.001000,0.001000
1009.923077,-0.045495,0.001000,0.001000,0.001000,0.001000,0.001000
1009.942308,-0.045911,0.001000,0.001000,0.001000,0.001000,0.001000
1009.961538,-0.046307,0.001000,0.001000,0.001000,0.001000,0.001000
1009.980769,-0.046683,0.001000,0.001000,0.001000,0.001000,0.001000
1010.000000,-0.047040,0.001000,0.001000,0.001000,0.001000,0.001000
1010.019231,-0.047377,0.001000,0.001000,0.001000,0.001000,0.001000
1010.038462,-0.047695,0.001000,0.001000,0.001000,0.001000,0.001000
1010.057692,-0.047992,0.001000,0.001000,0.001000,0.001000,0.001000
1010.076923,-0.048269,0.001000,0.001000,0.001000,0.001000,0.001000
1010.096154,-0.048526,0.001000,0.001000,0.001000,0.001000,0.001000
1010.115385,-0.048763,0.001000,0.001000,0.001000,0.001000,0.001000
1010.134615,-0.048979,0.001000,0.001000,0.001000,0.001000,0.001000
1010.153846,-0.049174,0.001000,0.001000,0.001000,0.001000,0.001000
1010.173077,-0.049349,0.001000,0.001000,0.001000,0.001000,0.001000
1010.192308,-0.049504,0.001000,0.001000,0.001000,0.001000,0.001000
1010.211538,-0.049637,0.001000,0.001000,0.001000,0.001000,0.001000
1010.230769,-0.049750,0.001000,0.001000,0.001000,0.001000,0.001000
1010.250000,-0.049842,0.001000,0.001000,0.001000,0.001000,0.001000
1010.269231,-0.049913,0.001000,0.001000,0.001000,0.001000,0.001000
1010.288462,-0.049963,0.001000,0.001000,0.001000,0.001000,0.001000
1010.307692,-0.049992,0.001000,0.001000,0.001000,0.001000,0.001000
1010.326923,-0.050000,0.001000,0.001000,0.001000,0.001000,0.001000
1010.346154,-0.049987,0.001000,0.001000,0.001000,0.001000,0.001000
1010.365385,-0.049953,0.001000,0.001000,0.001000,0.001000,0.001000
1010.384615,-0.049898,0.001000,0.001000,0.001000,0.001000,0.001000
1010.403846,-0.049823,0.001000,0.001000,0.001000,0.001000,0.001000
1010.423077,-0.049726,0.001000,0.001000,0.001000,0.001000,0.001000
1010.442308,-0.049608,0.001000,0.001000,0.001000,0.001000,0.001000
1010.461538,-0.049470,0.001000,0.001000,0.001000,0.001000,0.001000
1010.480769,-0.049311,0.001000,0.001000,0.001000,0.001000,0.001000
1010.500000,-0.049131,0.001000,0.001000,0.001000,0.001000,0.001000
1010.519231,-0.048931,0.001000,0.001000,0.001000,0.001000,0.001000
1010.538462,-0.048710,0.001000,0.001000,0.001000,0.001000,0.001000
1010.557692,-0.048469,0.001000,0.001000,0.001000,0.001000,0.001000
1010.576923,-0.048207,0.001000,0.001000,0.001000,0.001000,0.001000
1010.596154,-0.047925,0.001000,0.001000,0.001000,0.001000,0.001000
1010.615385,-0.047623,0.001000,0.001000,0.001000,0.001000,0.001000
1010.634615,-0.047301,0.001000,0.001000,0.001000,0.001000,0.001000
1010.653846,-0.046960,0.001000,0.001000,0.001000,0.001000,0.001000
1010.673077,-0.046598,0.001000,0.001000,0.001000,0.001000,0.001000
1010.692308,-0.046217,0.001000,0.001000,0.001000,0.001000,0.001000
1010.711538,-0.045817,0.001000,0.001000,0.001000,0.001000,0.001000
1010.730769,-0.045397,0.001000,0.001000,0.001000,0.001000,0.001000
1010.750000,-0.044959,0.001000,0.001000,0.001000,0.001000,0.001000
1010.769231,-0.044501,0.001000,0.001000,0.001000,0.001000,0.001000
1010.788462,-0.044025,0.001000,0.001000,0.001000,0.001000,0.001000
1010.807692,-0.043530,0.001000,0.001000,0.001000,0.001000,0.001000
1010.826923,-0.043017,0.001000,0.001000,0.001000,0.001000,0.001000
1010.846154,-0.042486,0.001000,0.001000,0.001000,0.001000,0.001000
1010.865385,-0.041938,0.001000,0.001000,0.001000,0.001000,0.001000
1010.884615,-0.041371,0.001000,0.001000,0.001000,0.001000,0.001000
1010.903846,-0.040788,0.001000,0.001000,0.001000,0.001000,0.001000
1010.923077,-0.040187,0.001000,0.001000,0.001000,0.001000,0.001000
1010.942308,-0.039569,0.001000,0.001000,0.001000,0.001000,0.001000
1010.961538,-0.038935,0.001000,0.001000,0.001000,0.001000,0.001000
1010.980769,-0.038284,0.001000,0.001000,0.001000,0.001000,0.001000
1011.000000,-0.037618,0.001000,0.001000,0.001000,0.001000,0.001000
1011.019231,-0.036935,0.001000,0.001000,0.001000,0.001000,0.001000
1011.038462,-0.036237,0.001000,0.001000,0.001000,0.001000,0.001000
1011.057692,-0.035524,0.001000,0.001000,0.001000,0.001000,0.001000
1011.076923,-0.034796,0.001000,0.001000,0.001000,0.001000,0.001000
1011.096154,-0.034054,0.001000,0.001000,0.001000,0.001000,0.001000
1011.115385,-0.033297,0.001000,0.001000,0.001000,0.001000,0.001000
1011.134615,-0.032526,0.001000,0.001000,0.001000,0.001000,0.001000
1011.153846,-0.031741,0.001000,0.001000,0.001000,0.001000,0.001000
1011.173077,-0.030944,0.001000,0.001000,0.001000,0.001000,0.001000
1011.192308,-0.030133,0.001000,0.001000,0.001000,0.001000,0.001000
1011.211538,-0.029309,0.001000,0.001000,0.001000,0.001000,0.001000
1011.230769,-0.028474,0.001000,0.001000,0.001000,0.001000,0.001000
1011.250000,-0.027626,0.001000,0.001000,0.001000,0.001000,0.001000
1011.269231,-0.026767,0.001000,0.001000,0.001000,0.001000,0.001000
1011.288462,-0.025896,0.001000,0.001000,0.001000,0.001000,0.001000
1011.307692,-0.025015,0.001000,0.001000,0.001000,0.001000,0.001000
1011.326923,-0.024123,0.001000,0.001000,0.001000,0.001000,0.001000
1011.346154,-0.023221,0.001000,0.001000,0.001000,0.001000,0.001000
1011.365385,-0.022309,0.001000,0.001000,0.001000,0.001000,0.001000
1011.384615,-0.021388,0.001000,0.001000,0.001000,0.001000,0.001000
1011.403846,-0.020458,0.001000,0.001000,0.001000,0.001000,0.001000
1011.423077,-0.019520,0.001000,0.001000,0.001000,0.001000,0.001000
1011.442308,-0.018573,0.001000,0.001000,0.001000,0.001000,0.001000
1011.461538,-0.017618,0.001000,0.001000,0.001000,0.001000,0.001000
1011.480769,-0.016656,0.001000,0.001000,0.001000,0.001000,0.001000
1011.500000,-0.015688,0.001000,0.001000,0.001000,0.001000,0.001000
1011.519231,-0.014712,0.001000,0.001000,0.001000,0.001000,0.001000
1011.538462,-0.013730,0.001000,0.001000,0.001000,0.001000,0.001000
1011.557692,-0.012743,0.001000,0.001000,0.001000,0.001000,0.001000
1011.576923,-0.011750,0.001000,0.001000,0.001000,0.001000,0.001000
1011.596154,-0.010752,0.001000,0.001000,0.001000,0.001000,0.001000
1011.615385,-0.009750,0.001000,0.001000,0.001000,0.001000,0.001000
1011.634615,-0.008744,0.001000,0.001000,0.001000,0.001000,0.001000
1011.653846,-0.007734,0.001000,0.001000,0.001000,0.001000,0.001000
1011.673077,-0.006720,0.001000,0.001000,0.001000,0.001000,0.001000
1011.692308,-0.005704,0.001000,0.001000,0.001000,0.001000,0.001000
1011.711538,-0.004686,0.001000,0.001000,0.001000,0.001000,0.001000
1011.730769,-0.003666,0.001000,0.001000,0.001000,0.001000,0.001000
1011.750000,-0.002644,0.001000,0.001000,0.001000,0.001000,0.001000
1011.769231,-0.001620,0.001000,0.001000,0.001000,0.001000,0.001000
1011.788462,-0.000597,0.001000,0.001000,0.001000,0.001000,0.001000
1011.807692,0.000427,0.001000,0.001000,0.001000,0.001000,0.001000
1011.826923,0.001451,0.001000,0.001000,0.001000,0.001000,0.001000
1011.846154,0.002474,0.001000,0.001000,0.001000,0.001000,0.001000
1011.865385,0.003496,0.001000,0.001000,0.001000,0.001000,0.001000
1011.884615,0.004517,0.001000,0.001000,0.001000,0.001000,0.001000
1011.903846,0.005536,0.001000,0.001000,0.001000,0.001000,0.001000
1011.923077,0.006552,0.001000,0.001000,0.001000,0.001000,0.001000
1011.942308,0.007566,0.001000,0.001000,0.001000,0.001000,0.001000
1011.961538,0.008577,0.001000,0.001000,0.001000,0.001000,0.001000
1011.980769,0.009584,0.001000,0.001000,0.001000,0.001000,0.001000
1012.000000,0.010587,0.001000,0.001000,0.001000,0.001000,0.001000
1012.019231,0.011585,0.001000,0.001000,0.001000,0.001000,0.001000
1012.038462,0.012579,0.001000,0.001000,0.001000,0.001000,0.001000
1012.057692,0.013567,0.001000,0.001000,0.001000,0.001000,0.001000
1012.076923,0.014550,0.001000,0.001000,0.001000,0.001000,0.001000
1012.096154,0.015526,0.001000,0.001000,0.001000,0.001000,0.001000
1012.115385,0.016497,0.001000,0.001000,0.001000,0.001000,0.001000
1012.134615,0.017460,0.001000,0.001000,0.001000,0.001000,0.001000
1012.153846,0.018416,0.001000,0.001000,0.001000,0.001000,0.001000
1012.173077,0.019364,0.001000,0.001000,0.001000,0.001000,0.001000
1012.192308,0.020304,0.001000,0.001000,0.001000,0.001000,0.001000
1012.211538,0.021235,0.001000,0.001000,0.001000,0.001000,0.001000
1012.230769,0.022158,0.001000,0.001000,0.001000,0.001000,0.001000
1012.250000,0.023071,0.001000,0.001000,0.001000,0.001000,0.001000
1012.269231,0.023974,0.001000,0.001000,0.001000,0.001000,0.001000
1012.288462,0.024868,0.001000,0.001000,0.001000,0.001000,0.001000
1012.307692,0.025751,0.001000,0.001000,0.001000,0.001000,0.001000
1012.326923,0.026623,0.001000,0.001000,0.001000,0.001000,0.001000
1012.346154,0.027485,0.001000,0.001000,0.001000,0.001000,0.001000
1012.365385,0.028334,0.001000,0.001000,0.001000,0.001000,0.001000
1012.384615,0.029172,0.001000,0.001000,0.001000,0.001000,0.001000
1012.403846,0.029997,0.001000,0.001000,0.001000,0.001000,0.001000
1012.423077,0.030810,0.001000,0.001000,0.001000,0.001000,0.001000
1012.442308,0.031610,0.001000,0.001000,0.001000,0.001000,0.001000
1012.461538,0.032397,0.001000,0.001000,0.001000,0.001000,0.001000
1012.480769,0.033170,0.001000,0.001000,0.001000,0.001000,0.001000
1012.500000,0.033929,0.001000,0.001000,0.001000,0.001000,0.001000
1012.519231,0.034674,0.001000,0.001000,0.001000,0.001000,0.001000
1012.538462,0.035405,0.001000,0.001000,0.001000,0.001000,0.001000
1012.557692,0.036120,0.001000,0.001000,0.001000,0.001000,0.001000
1012.576923,0.036821,0.001000,0.001000,0.001000,0.001000,0.001000
1012.596154,0.037506,0.001000,0.001000,0.001000,0.001000,0.001000
1012.615385,0.038175,0.001000,0.001000,0.001000,0.001000,0.001000
1012.634615,0.038828,0.001000,0.001000,0.001000,0.001000,0.001000
1012.653846,0.039465,0.001000,0.001000,0.001000,0.001000,0.001000
1012.673077,0.040086,0.001000,0.001000,0.001000,0.001000,0.001000
1012.692308,0.040689,0.001000,0.001000,0.001000,0.001000,0.001000
1012.711538,0.041276,0.001000,0.001000,0.001000,0.001000,0.001000
1012.730769,0.041845,0.001000,0.001000,0.001000,0.001000,0.001000
1012.750000,0.042397,0.001000,0.001000,0.001000,0.001000,0.001000
1012.769231,0.042931,0.001000,0.001000,0.001000,0.001000,0.001000
1012.788462,0.043447,0.001000,0.001000,0.001000,0.001000,0.001000
1012.807692,0.043944,0.001000,0.001000,0.001000,0.001000,0.001000
1012.826923,0.044424,0.001000,0.001000,0.001000,0.001000,0.001000
1012.846154,0.044884,0.001000,0.001000,0.001000,0.001000,0.001000
1012.865385,0.045326,0.001000,0.001000,0.001000,0.001000,0.001000
1012.884615,0.045749,0.001000,0.001000,0.001000,0.001000,0.001000
1012.903846,0.046152,0.001000,0.001000,0.001000,0.001000,0.001000
1012.923077,0.046536,0.001000,0.001000,0.001000,0.001000,0.001000
1012.942308,0.046901,0.001000,0.001000,0.001000,0.001000,0.001000
1012.961538,0.047246,0.001000,0.001000,0.001000,0.001000,0.001000
1012.980769,0.047571,0.001000,0.001000,0.001000,0.001000,0.001000
1013.000000,0.047877,0.001000,0.001000,0.001000,0.001000,0.001000
1013.019231,0.048162,0.001000,0.001000,0.001000,0.001000,0.001000
1013.038462,0.048427,0.001000,0.001000,0.001000,0.001000,0.001000
1013.057692,0.048672,0.001000,0.001000,0.001000,0.001000,0.001000
1013.076923,0.048896,0.001000,0.001000,0.001000,0.001000,0.001000
1013.096154,0.049100,0.001000,0.001000,0.001000,0.001000,0.001000
1013.115385,0.049283,0.001000,0.001000,0.001000,0.001000,0.001000
1013.134615,0.049445,0.001000,0.001000,0.001000,0.001000,0.001000
1013.153846,0.049587,0.001000,0.001000,0.001000,0.001000,0.001000
1013.173077,0.049708,0.001000,0.001000,0.001000,0.001000,0.001000
1013.192308,0.049808,0.001000,0.001000,0.001000,0.001000,0.001000
1013.211538,0.049887,0.001000,0.001000,0.001000,0.001000,0.001000
1013.230769,0.049945,0.001000,0.001000,0.001000,0.001000,0.001000
1013.250000,0.049983,0.001000,0.001000,0.001000,0.001000,0.001000
1013.269231,0.049999,0.001000,0.001000,0.001000,0.001000,0.001000
1013.288462,0.049995,0.001000,0.001000,0.001000,0.001000,0.001000
1013.307692,0.049969,0.001000,0.001000,0.001000,0.001000,0.001000
1013.326923,0.049922,0.001000,0.001000,0.001000,0.001000,0.001000
1013.346154,0.049855,0.001000,0.001000,0.001000,0.001000,0.001000
1013.365385,0.049767,0.001000,0.001000,0.001000,0.001000,0.001000
1013.384615,0.049657,0.001000,0.001000,0.001000,0.001000,0.001000
1013.403846,0.049527,0.001000,0.001000,0.001000,0.001000,0.001000
1013.423077,0.049376,0.001000,0.001000,0.001000,0.001000,0.001000
1013.442308,0.049205,0.001000,0.001000,0.001000,0.001000,0.001000
1013.461538,0.049013,0.001000,0.001000,0.001000,0.001000,0.001000
1013.480769,0.048800,0.001000,0.001000,0.001000,0.001000,0.001000
1013.500000,0.048567,0.001000,0.001000,0.001000,0.001000,0.001000
1013.519231,0.048313,0.001000,0.001000,0.001000,0.001000,0.001000
1013.538462,0.048039,0.001000,0.001000,0.001000,0.001000,0.001000
1013.557692,0.047745,0.001000,0.001000,0.001000,0.001000,0.001000
1013.576923,0.047431,0.001000,0.001000,0.001000,0.001000,0.001000
1013.596154,0.047097,0.001000,0.001000,0.001000,0.001000,0.001000
1013.615385,0.046744,0.001000,0.001000,0.001000,0.001000,0.001000
1013.634615,0.046370,0.001000,0.001000,0.001000,0.001000,0.001000
1013.653846,0.045978,0.001000,0.001000,0.001000,0.001000,0.001000
1013.673077,0.045566,0.001000,0.001000,0.001000,0.001000,0.001000
1013.692308,0.045134,0.001000,0.001000,0.001000,0.001000,0.001000
1013.711538,0.044684,0.001000,0.001000,0.001000,0.001000,0.001000
1013.730769,0.044216,0.001000,0.001000,0.001000,0.001000,0.001000
1013.750000,0.043728,0.001000,0.001000,0.001000,0.001000,0.001000
1013.769231,0.043222,0.001000,0.001000,0.001000,0.001000,0.001000
1013.788462,0.042699,0.001000,0.001000,0.001000,0.001000,0.001000
1013.807692,0.042157,0.001000,0.001000,0.001000,0.001000,0.001000
1013.826923,0.041598,0.001000,0.001000,0.001000,0.001000,0.001000
1013.846154,0.041021,0.001000,0.001000,0.001000,0.001000,0.001000
1013.865385,0.040427,0.001000,0.001000,0.001000,0.001000,0.001000
1013.884615,0.039816,0.001000,0.001000,0.001000,0.001000,0.001000
1013.903846,0.039188,0.001000,0.001000,0.001000,0.001000,0.001000
1013.923077,0.038544,0.001000,0.001000,0.001000,0.001000,0.001000
1013.942308,0.037883,0.001000,0.001000,0.001000,0.001000,0.001000
1013.961538,0.037207,0.001000,0.001000,0.001000,0.001000,0.001000
1013.980769,0.036515,0.001000,0.001000,0.001000,0.001000,0.001000
1014.000000,0.035808,0.001000,0.001000,0.001000,0.001000,0.001000
1014.019231,0.035086,0.001000,0.001000,0.001000,0.001000,0.001000
1014.038462,0.034349,0.001000,0.001000,0.001000,0.001000,0.001000
1014.057692,0.033598,0.001000,0.001000,0.001000,0.001000,0.001000
1014.076923,0.032833,0.001000,0.001000,0.001000,0.001000,0.001000
1014.096154,0.032053,0.001000,0.001000,0.001000,0.001000,0.001000
1014.115385,0.031261,0.001000,0.001000,0.001000,0.001000,0.001000
1014.134615,0.030455,0.001000,0.001000,0.001000,0.001000,0.001000
1014.153846,0.029637,0.001000,0.001000,0.001000,0.001000,0.001000
1014.173077,0.028806,0.001000,0.001000,0.001000,0.001000,0.001000
1014.192308,0.027963,0.001000,0.001000,0.001000,0.001000,0.001000
1014.211538,0.027108,0.001000,0.001000,0.001000,0.001000,0.001000
1014.230769,0.026242,0.001000,0.001000,0.001000,0.001000,0.001000
1014.250000,0.025365,0.001000,0.001000,0.001000,0.001000,0.001000
1014.269231,0.024477,0.001000,0.001000,0.001000,0.001000,0.001000
1014.288462,0.023579,0.001000,0.001000,0.001000,0.001000,0.001000
1014.307692,0.022671,0.001000,0.001000,0.001000,0.001000,0.001000
1014.326923,0.021754,0.001000,0.001000,0.001000,0.001000,0.001000
1014.346154,0.020827,0.001000,0.001000,0.001000,0.001000,0.001000
1014.365385,0.019892,0.001000,0.001000,0.001000,0.001000,0.001000
1014.384615,0.018949,0.001000,0.001000,0.001000,0.001000,0.001000
1014.403846,0.017997,0.001000,0.001000,0.001000,0.001000,0.001000
1014.423077,0.017038,0.001000,0.001000,0.001000,0.001000,0.001000
1014.442308,0.016072,0.001000,0.001000,0.001000,0.001000,0.001000
1014.461538,0.015099,0.001000,0.001000,0.001000,0.001000,0.001000
1014.480769,0.014119,0.001000,0.001000,0.001000,0.001000,0.001000
1014.500000,0.013134,0.001000,0.001000,0.001000,0.001000,0.001000
1014.519231,0.012143,0.001000,0.001000,0.001000,0.001000,0.001000
1014.538462,0.011148,0.001000,0.001000,0.001000,0.001000,0.001000
1014.557692,0.010147,0.001000,0.001000,0.001000,0.001000,0.001000
1014.576923,0.009142,0.001000,0.001000,0.001000,0.001000,0.001000
1014.596154,0.008134,0.001000,0.001000,0.001000,0.001000,0.001000
1014.615385,0.007122,0.001000,0.001000,0.001000,0.001000,0.001000
1014.634615,0.006107,0.001000,0.001000,0.001000,0.001000,0.001000
1014.653846,0.005089,0.001000,0.001000,0.001000,0.001000,0.001000
1014.673077,0.004069,0.001000,0.001000,0.001000,0.001000,0.001000
1014.692308,0.003048,0.001000,0.001000,0.001000,0.001000,0.001000
1014.711538,0.002025,0.001000,0.001000,0.001000,0.001000,0.001000
1014.730769,0.001002,0.001000,0.001000,0.001000,0.001000,0.001000
1014.750000,-0.000022,0.001000,0.001000,0.001000,0.001000,0.001000
1014.769231,-0.001046,0.001000,0.001000,0.001000,0.001000,0.001000
1014.788462,-0.002069,0.001000,0.001000,0.001000,0.001000,0.001000
1014.807692,-0.003092,0.001000,0.001000,0.001000,0.001000,0.001000
1014.826923,-0.004113,0.001000,0.001000,0.001000,0.001000,0.001000
1014.846154,-0.005133,0.001000,0.001000,0.001000,0.001000,0.001000
1014.865385,-0.006151,0.001000,0.001000,0.001000,0.001000,0.001000
1014.884615,-0.007165,0.001000,0.001000,0.001000,0.001000,0.001000
1014.903846,-0.008177,0.001000,0.001000,0.001000,0.001000,0.001000
1014.923077,-0.009186,0.001000,0.001000,0.001000,0.001000,0.001000
1014.942308,-0.010190,0.001000,0.001000,0.001000,0.001000,0.001000
1014.961538,-0.011191,0.001000,0.001000,0.001000,0.001000,0.001000
1014.980769,-0.012186,0.001000,0.001000,0.001000,0.001000,0.001000
1015.000000,-0.013177,0.001000,0.001000,0.001000,0.001000,0.001000
1015.019231,-0.014162,0.001000,0.001000,0.001000,0.001000,0.001000
1015.038462,-0.015141,0.001000,0.001000,0.001000,0.001000,0.001000
1015.057692,-0.016113,0.001000,0.001000,0.001000,0.001000,0.001000
1015.076923,-0.017079,0.001000,0.001000,0.001000,0.001000,0.001000
1015.096154,-0.018038,0.001000,0.001000,0.001000,0.001000,0.001000
1015.115385,-0.018989,0.001000,0.001000,0.001000,0.001000,0.001000
1015.134615,-0.019933,0.001000,0.001000,0.001000,0.001000,0.001000
1015.153846,-0.020868,0.001000,0.001000,0.001000,0.001000,0.001000
1015.173077,-0.021794,0.001000,0.001000,0.001000,0.001000,0.001000
1015.192308,-0.022711,0.001000,0.001000,0.001000,0.001000,0.001000
1015.211538,-0.023618,0.001000,0.001000,0.001000,0.001000,0.001000
1015.230769,-0.024516,0.001000,0.001000,0.001000,0.001000,0.001000
1015.250000,-0.025403,0.001000,0.001000,0.001000,0.001000,0.001000
1015.269231,-0.026280,0.001000,0.001000,0.001000,0.001000,0.001000
1015.288462,-0.027145,0.001000,0.001000,0.001000,0.001000,0.001000
1015.307692,-0.027999,0.001000,0.001000,0.001000,0.001000,0.001000
1015.326923,-0.028842,0.001000,0.001000,0.001000,0.001000,0.001000
1015.346154,-0.029672,0.001000,0.001000,0.001000,0.001000,0.001000
1015.365385,-0.030490,0.001000,0.001000,0.001000,0.001000,0.001000
1015.384615,-0.031295,0.001000,0.001000,0.001000,0.001000,0.001000
1015.403846,-0.032087,0.001000,0.001000,0.001000,0.001000,0.001000
1015.423077,-0.032866,0.001000,0.001000,0.001000,0.001000,0.001000
1015.442308,-0.033631,0.001000,0.001000,0.001000,0.001000,0.001000
1015.461538,-0.034381,0.001000,0.001000,0.001000,0.001000,0.001000
1015.480769,-0.035117,0.001000,0.001000,0.001000,0.001000,0.001000
1015.500000,-0.035839,0.001000,0.001000,0.001000,0.001000,0.001000
1015.519231,-0.036545,0.001000,0.001000,0.001000,0.001000,0.001000
1015.538462,-0.037237,0.001000,0.001000,0.001000,0.001000,0.001000
1015.557692,-0.037912,0.001000,0.001000,0.001000,0.001000,0.001000
1015.576923,-0.038572,0.001000,0.001000,0.001000,0.001000,0.001000
1015.596154,-0.039215,0.001000,0.001000,0.001000,0.001000,0.001000
1015.615385,-0.039842,0.001000,0.001000,0.001000,0.001000,0.001000
1015.634615,-0.040453,0.001000,0.001000,0.001000,0.001000,0.001000
1015.653846,-0.041046,0.001000,0.001000,0.001000,0.001000,0.001000
1015.673077,-0.041622,0.001000,0.001000,0.001000,0.001000,0.001000
1015.692308,-0.042181,0.001000,0.001000,0.001000,0.001000,0.001000
1015.711538,-0.042722,0.001000,0.001000,0.001000,0.001000,0.001000
1015.730769,-0.043245,0.001000,0.001000,0.001000,0.001000,0.001000
1015.750000,-0.043750,0.001000,0.001000,0.001000,0.001000,0.001000
1015.769231,-0.044236,0.001000,0.001000,0.001000,0.001000,0.001000
1015.788462,-0.044704,0.001000,0.001000,0.001000,0.001000,0.001000
1015.807692,-0.045153,0.001000,0.001000,0.001000,0.001000,0.001000
1015.826923,-0.045584,0.001000,0.001000,0.001000,0.001000,0.001000
1015.846154,-0.045995,0.001000,0.001000,0.001000,0.001000,0.001000
1015.865385,-0.046387,0.001000,0.001000,0.001000,0.001000,0.001000
1015.884615,-0.046759,0.001000,0.001000,0.001000,0.001000,0.001000
1015.903846,-0.047112,0.001000,0.001000,0.001000,0.001000,0.001000
1015.923077,-0.047445,0.001000,0.001000,0.001000,0.001000,0.001000
1015.942308,-0.047758,0.001000,0.001000,0.001000,0.001000,0.001000
1015.961538,-0.048051,0.001000,0.001000,0.001000,0.001000,0.001000
1015.980769,-0.048324,0.001000,0.001000,0.001000,0.001000,0.001000
1016.000000,-0.048577,0.001000,0.001000,0.001000,0.001000,0.001000
1016.019231,-0.048810,0.001000,0.001000,0.001000,0.001000,0.001000
1016.038462,-0.049021,0.001000,0.001000,0.001000,0.001000,0.001000
1016.057692,-0.049213,0.001000,0.001000,0.001000,0.001000,0.001000
1016.076923,-0.049383,0.001000,0.001000,0.001000,0.001000,0.001000
1016.096154,-0.049533,0.001000,0.001000,0.001000,0.001000,0.001000
1016.115385,-0.049663,0.001000,0.001000,0.001000,0.001000,0.001000
1016.134615,-0.049771,0.001000,0.001000,0.001000,0.001000,0.001000
1016.153846,-0.049858,0.001000,0.001000,0.001000,0.001000,0.001000
1016.173077,-0.049925,0.001000,0.001000,0.001000,0.001000,0.001000
1016.192308,-0.049971,0.001000,0.001000,0.001000,0.001000,0.001000
1016.211538,-0.049995,0.001000,0.001000,0.001000,0.001000,0.001000
1016.230769,-0.049999,0.001000,0.001000,0.001000,0.001000,0.001000
1016.250000,-0.049982,0.001000,0.001000,0.001000,0.001000,0.001000
1016.269231,-0.049943,0.001000,0.001000,0.001000,0.001000,0.001000
1016.288462,-0.049884,0.001000,0.001000,0.001000,0.001000,0.001000
1016.307692,-0.049804,0.001000,0.001000,0.001000,0.001000,0.001000
1016.326923,-0.049703,0.001000,0.001000,0.001000,0.001000,0.001000
1016.346154,-0.049581,0.001000,0.001000,0.001000,0.001000,0.001000
1016.365385,-0.049439,0.001000,0.001000,0.001000,0.001000,0.001000
1016.384615,-0.049275,0.001000,0.001000,0.001000,0.001000,0.001000
1016.403846,-0.049091,0.001000,0.001000,0.001000,0.001000,0.001000
1016.423077,-0.048887,0.001000,0.001000,0.001000,0.001000,0.001000
1016.442308,-0.048661,0.001000,0.001000,0.001000,0.001000,0.001000
1016.461538,-0.048416,0.001000,0.001000,0.001000,0.001000,0.001000
1016.480769,-0.048150,0.001000,0.001000,0.001000,0.001000,0.001000
1016.500000,-0.047864,0.001000,0.001000,0.001000,0.001000,0.001000
1016.519231,-0.047558,0.001000,0.001000,0.001000,0.001000,0.001000
1016.538462,-0.047232,0.001000,0.001000,0.001000,0.001000,0.001000
1016.557692,-0.046886,0.001000,0.001000,0.001000,0.001000,0.001000
1016.576923,-0.046520,0.001000,0.001000,0.001000,0.001000,0.001000
1016.596154,-0.046135,0.001000,0.001000,0.001000,0.001000,0.001000
1016.615385,-0.045731,0.001000,0.001000,0.001000,0.001000,0.001000
1016.634615,-0.045307,0.001000,0.001000,0.001000,0.001000,0.001000
1016.653846,-0.044865,0.001000,0.001000,0.001000,0.001000,0.001000
1016.673077,-0.044403,0.001000,0.001000,0.001000,0.001000,0.001000
1016.692308,-0.043923,0.001000,0.001000,0.001000,0.001000,0.001000
1016.711538,-0.043425,0.001000,0.001000,0.001000,0.001000,0.001000
1016.730769,-0.042908,0.001000,0.001000,0.001000,0.001000,0.001000
1016.750000,-0.042373,0.001000,0.001000,0.001000,0.001000,0.001000
1016.769231,-0.041821,0.001000,0.001000,0.001000,0.001000,0.001000
1016.788462,-0.041251,0.001000,0.001000,0.001000,0.001000,0.001000
1016.807692,-0.040664,0.001000,0.001000,0.001000,0.001000,0.001000
1016.826923,-0.040059,0.001000,0.001000,0.001000,0.001000,0.001000
1016.846154,-0.039438,0.001000,0.001000,0.001000,0.001000,0.001000
1016.865385,-0.038801,0.001000,0.001000,0.001000,0.001000,0.001000
1016.884615,-0.038147,0.001000,0.001000,0.001000,0.001000,0.001000
1016.903846,-0.037477,0.001000,0.001000,0.001000,0.001000,0.001000
1016.923077,-0.036791,0.001000,0.001000,0.001000,0.001000,0.001000
1016.942308,-0.036090,0.001000,0.001000,0.001000,0.001000,0.001000
1016.961538,-0.035374,0.001000,0.001000,0.001000,0.001000,0.001000
1016.980769,-0.034643,0.001000,0.001000,0.001000,0.001000,0.001000
1017.000000,-0.033897,0.001000,0.001000,0.001000,0.001000,0.001000
1017.019231,-0.033137,0.001000,0.001000,0.001000,0.001000,0.001000
1017.038462,-0.032363,0.001000,0.001000,0.001000,0.001000,0.001000
1017.057692,-0.031576,0.001000,0.001000,0.001000,0.001000,0.001000
1017.076923,-0.030776,0.001000,0.001000,0.001000,0.001000,0.001000
1017.096154,-0.029962,0.001000,0.001000,0.001000,0.001000,0.001000
1017.115385,-0.029136,0.001000,0.001000,0.001000,0.001000,0.001000
1017.134615,-0.028298,0.001000,0.001000,0.001000,0.001000,0.001000
1017.153846,-0.027448,0.001000,0.001000,0.001000,0.001000,0.001000
1017.173077,-0.026586,0.001000,0.001000,0.001000,0.001000,0.001000
1017.192308,-0.025713,0.001000,0.001000,0.001000,0.001000,0.001000
1017.211538,-0.024830,0.001000,0.001000,0.001000,0.001000,0.001000
1017.230769,-0.023936,0.001000,0.001000,0.001000,0.001000,0.001000
1017.250000,-0.023032,0.001000,0.001000,0.001000,0.001000,0.001000
1017.269231,-0.022118,0.001000,0.001000,0.001000,0.001000,0.001000
1017.288462,-0.021195,0.001000,0.001000,0.001000,0.001000,0.001000
1017.307692,-0.020263,0.001000,0.001000,0.001000,0.001000,0.001000
1017.326923,-0.019323,0.001000,0.001000,0.001000,0.001000,0.001000
1017.346154,-0.018374,0.001000,0.001000,0.001000,0.001000,0.001000
1017.365385,-0.017418,0.001000,0.001000,0.001000,0.001000,0.001000
1017.384615,-0.016455,0.001000,0.001000,0.001000,0.001000,0.001000
1017.403846,-0.015485,0.001000,0.001000,0.001000,0.001000,0.001000
1017.423077,-0.014508,0.001000,0.001000,0.001000,0.001000,0.001000
1017.442308,-0.013525,0.001000,0.001000,0.001000,0.001000,0.001000
1017.461538,-0.012536,0.001000,0.001000,0.001000,0.001000,0.001000
1017.480769,-0.011542,0.001000,0.001000,0.001000,0.001000,0.001000
1017.500000,-0.010544,0.001000,0.001000,0.001000,0.001000,0.001000
1017.519231,-0.009540,0.001000,0.001000,0.001000,0.001000,0.001000
1017.538462,-0.008533,0.001000,0.001000,0.001000,0.001000,0.001000
1017.557692,-0.007523,0.001000,0.001000,0.001000,0.001000,0.001000
1017.576923,-0.006509,0.001000,0.001000,0.001000,0.001000,0.001000
1017.596154,-0.005492,0.001000,0.001000,0.001000,0.001000,0.001000
1017.615385,-0.004473,0.001000,0.001000,0.001000,0.001000,0.001000
1017.634615,-0.003452,0.001000,0.001000,0.001000,0.001000,0.001000
1017.653846,-0.002430,0.001000,0.001000,0.001000,0.001000,0.001000
1017.673077,-0.001407,0.001000,0.001000,0.001000,0.001000,0.001000
1017.692308,-0.000383,0.001000,0.001000,0.001000,0.001000,0.001000
1017.711538,0.000641,0.001000,0.001000,0.001000,0.001000,0.001000
1017.730769,0.001665,0.001000,0.001000,0.001000,0.001000,0.001000
1017.750000,0.002688,0.001000,0.001000,0.001000,0.001000,0.001000
1017.769231,0.003710,0.001000,0.001000,0.001000,0.001000,0.001000
1017.788462,0.004730,0.001000,0.001000,0.001000,0.001000,0.001000
1017.807692,0.005748,0.001000,0.001000,0.001000,0.001000,0.001000
1017.826923,0.006764,0.001000,0.001000,0.001000,0.001000,0.001000
1017.846154,0.007777,0.001000,0.001000,0.001000,0.001000,0.001000
1017.865385,0.008787,0.001000,0.001000,0.001000,0.001000,0.001000
1017.884615,0.009793,0.001000,0.001000,0.001000,0.001000,0.001000
1017.903846,0.010795,0.001000,0.001000,0.001000,0.001000,0.001000
1017.923077,0.011793,0.001000,0.001000,0.001000,0.001000,0.001000
1017.942308,0.012785,0.001000,0.001000,0.001000,0.001000,0.001000
1017.961538,0.013773,0.001000,0.001000,0.001000,0.001000,0.001000
1017.980769,0.014754,0.001000,0.001000,0.001000,0.001000,0.001000
1018.000000,0.015729,0.001000,0.001000,0.001000,0.001000,0.001000
1018.019231,0.016698,0.001000,0.001000,0.001000,0.001000,0.001000
1018.038462,0.017660,0.001000,0.001000,0.001000,0.001000,0.001000
1018.057692,0.018614,0.001000,0.001000,0.001000,0.001000,0.001000
1018.076923,0.019560,0.001000,0.001000,0.001000,0.001000,0.001000
1018.096154,0.020499,0.001000,0.001000,0.001000,0.001000,0.001000
1018.115385,0.021428,0.001000,0.001000,0.001000,0.001000,0.001000
1018.134615,0.022349,0.001000,0.001000,0.001000,0.001000,0.001000
1018.153846,0.023260,0.001000,0.001000,0.001000,0.001000,0.001000
1018.173077,0.024162,0.001000,0.001000,0.001000,0.001000,0.001000
1018.192308,0.025053,0.001000,0.001000,0.001000,0.001000,0.001000
1018.211538,0.025934,0.001000,0.001000,0.001000,0.001000,0.001000
1018.230769,0.026804,0.001000,0.001000,0.001000,0.001000,0.001000
1018.250000,0.027663,0.001000,0.001000,0.001000,0.001000,0.001000
1018.269231,0.028510,0.001000,0.001000,0.001000,0.001000,0.001000
1018.288462,0.029345,0.001000,0.001000,0.001000,0.001000,0.001000
1018.307692,0.030168,0.001000,0.001000,0.001000,0.001000,0.001000
1018.326923,0.030978,0.001000,0.001000,0.001000,0.001000,0.001000
1018.346154,0.031775,0.001000,0.001000,0.001000,0.001000,0.001000
1018.365385,0.032559,0.001000,0.001000,0.001000,0.001000,0.001000
1018.384615,0.033330,0.001000,0.001000,0.001000,0.001000,0.001000
1018.403846,0.034086,0.001000,0.001000,0.001000,0.001000,0.001000
1018.423077,0.034828,0.001000,0.001000,0.001000,0.001000,0.001000
1018.442308,0.035555,0.001000,0.001000,0.001000,0.001000,0.001000
1018.461538,0.036268,0.001000,0.001000,0.001000,0.001000,0.001000
1018.480769,0.036965,0.001000,0.001000,0.001000,0.001000,0.001000
1018.500000,0.037647,0.001000,0.001000,0.001000,0.001000,0.001000
1018.519231,0.038313,0.001000,0.001000,0.001000,0.001000,0.001000
1018.538462,0.038963,0.001000,0.001000,0.001000,0.001000,0.001000
1018.557692,0.039596,0.001000,0.001000,0.001000,0.001000,0.001000
1018.576923,0.040213,0.001000,0.001000,0.001000,0.001000,0.001000
1018.596154,0.040813,0.001000,0.001000,0.001000,0.001000,0.001000
1018.615385,0.041396,0.001000,0.001000,0.001000,0.001000,0.001000
1018.634615,0.041962,0.001000,0.001000,0.001000,0.001000,0.001000
1018.653846,0.042510,0.001000,0.001000,0.001000,0.001000,0.001000
1018.673077,0.043040,0.001000,0.001000,0.001000,0.001000,0.001000
1018.692308,0.043552,0.001000,0.001000,0.001000,0.001000,0.001000
1018.711538,0.044046,0.001000,0.001000,0.001000,0.001000,0.001000
1018.730769,0.044521,0.001000,0.001000,0.001000,0.001000,0.001000
1018.750000,0.044978,0.001000,0.001000,0.001000,0.001000,0.001000
1018.769231,0.045416,0.001000,0.001000,0.001000,0.001000,0.001000
1018.788462,0.045834,0.001000,0.001000,0.001000,0.001000,0.001000
1018.807692,0.046234,0.001000,0.001000,0.001000,0.001000,0.001000
1018.826923,0.046614,0.001000,0.001000,0.001000,0.001000,0.001000
1018.846154,0.046975,0.001000,0.001000,0.001000,0.001000,0.001000
1018.865385,0.047316,0.001000,0.001000,0.001000,0.001000,0.001000
1018.884615,0.047637,0.001000,0.001000,0.001000,0.001000,0.001000
1018.903846,0.047938,0.001000,0.001000,0.001000,0.001000,0.001000
1018.923077,0.048219,0.001000,0.001000,0.001000,0.001000,0.001000
1018.942308,0.048480,0.001000,0.001000,0.001000,0.001000,0.001000
1018.961538,0.048720,0.001000,0.001000,0.001000,0.001000,0.001000
1018.980769,0.048940,0.001000,0.001000,0.001000,0.001000,0.001000
1019.000000,0.049139,0.001000,0.001000,0.001000,0.001000,0.001000
1019.019231,0.049318,0.001000,0.001000,0.001000,0.001000,0.001000
1019.038462,0.049476,0.001000,0.001000,0.001000,0.001000,0.001000
1019.057692,0.049614,0.001000,0.001000,0.001000,0.001000,0.001000
1019.076923,0.049730,0.001000,0.001000,0.001000,0.001000,0.001000
1019.096154,0.049826,0.001000,0.001000,0.001000,0.001000,0.001000
1019.115385,0.049901,0.001000,0.001000,0.001000,0.001000,0.001000
1019.134615,0.049955,0.001000,0.001000,0.001000,0.001000,0.001000
1019.153846,0.049988,0.001000,0.001000,0.001000,0.001000,0.001000
1019.173077,0.050000,0.001000,0.001000,0.001000,0.001000,0.001000
1019.192308,0.049991,0.001000,0.001000,0.001000,0.001000,0.001000
1019.211538,0.049961,0.001000,0.001000,0.001000,0.001000,0.001000
1019.230769,0.049910,0.001000,0.001000,0.001000,0.001000,0.001000
1019.250000,0.049838,0.001000,0.001000,0.001000,0.001000,0.001000
1019.269231,0.049746,0.001000,0.001000,0.001000,0.001000,0.001000
1019.288462,0.049632,0.001000,0.001000,0.001000,0.001000,0.001000
1019.307692,0.049498,0.001000,0.001000,0.001000,0.001000,0.001000
1019.326923,0.049342,0.001000,0.001000,0.001000,0.001000,0.001000
1019.346154,0.049166,0.001000,0.001000,0.001000,0.001000,0.001000
1019.365385,0.048970,0.001000,0.001000,0.001000,0.001000,0.001000
1019.384615,0.048753,0.001000,0.001000,0.001000,0.001000,0.001000
1019.403846,0.048515,0.001000,0.001000,0.001000,0.001000,0.001000
1019.423077,0.048258,0.001000,0.001000,0.001000,0.001000,0.001000
1019.442308,0.047980,0.001000,0.001000,0.001000,0.001000,0.001000
1019.461538,0.047681,0.001000,0.001000,0.001000,0.001000,0.001000
1019.480769,0.047363,0.001000,0.001000,0.001000,0.001000,0.001000
1019.500000,0.047025,0.001000,0.001000,0.001000,0.001000,0.001000
1019.519231,0.046667,0.001000,0.001000,0.001000,0.001000,0.001000
1019.538462,0.046290,0.001000,0.001000,0.001000,0.001000,0.001000
1019.557692,0.045893,0.001000,0.001000,0.001000,0.001000,0.001000
1019.576923,0.045477,0.001000,0.001000,0.001000,0.001000,0.001000
1019.596154,0.045042,0.001000,0.001000,0.001000,0.001000,0.001000
1019.615385,0.044588,0.001000,0.001000,0.001000,0.001000,0.001000
1019.634615,0.044115,0.001000,0.001000,0.001000,0.001000,0.001000
1019.653846,0.043624,0.001000,0.001000,0.001000,0.001000,0.001000
1019.673077,0.043115,0.001000,0.001000,0.001000,0.001000,0.001000
1019.692308,0.042587,0.001000,0.001000,0.001000,0.001000,0.001000
1019.711538,0.042042,0.001000,0.001000,0.001000,0.001000,0.001000
1019.730769,0.041479,0.001000,0.001000,0.001000,0.001000,0.001000
1019.750000,0.040898,0.001000,0.001000,0.001000,0.001000,0.001000
1019.769231,0.040301,0.001000,0.001000,0.001000,0.001000,0.001000
1019.788462,0.039686,0.001000,0.001000,0.001000,0.001000,0.001000
1019.807692,0.039055,0.001000,0.001000,0.001000,0.001000,0.001000
1019.826923,0.038407,0.001000,0.001000,0.001000,0.001000,0.001000
1019.846154,0.037744,0.001000,0.001000,0.001000,0.001000,0.001000
1019.865385,0.037064,0.001000,0.001000,0.001000,0.001000,0.001000
1019.884615,0.036369,0.001000,0.001000,0.001000,0.001000,0.001000
1019.903846,0.035659,0.001000,0.001000,0.001000,0.001000,0.001000
1019.923077,0.034934,0.001000,0.001000,0.001000,0.001000,0.001000
1019.942308,0.034194,0.001000,0.001000,0.001000,0.001000,0.001000
1019.961538,0.033439,0.001000,0.001000,0.001000,0.001000,0.001000
1019.980769,0.032671,0.001000,0.001000,0.001000,0.001000,0.001000
1020.000000,0.031889,0.001000,0.001000,0.001000,0.001000,0.001000
1020.019231,0.031094,0.001000,0.001000,0.001000,0.001000,0.001000
1020.038462,0.030285,0.001000,0.001000,0.001000,0.001000,0.001000
1020.057692,0.029464,0.001000,0.001000,0.001000,0.001000,0.001000
1020.076923,0.028631,0.001000,0.001000,0.001000,0.001000,0.001000
1020.096154,0.027785,0.001000,0.001000,0.001000,0.001000,0.001000
1020.115385,0.026928,0.001000,0.001000,0.001000,0.001000,0.001000
1020.134615,0.026060,0.001000,0.001000,0.001000,0.001000,0.001000
1020.153846,0.025181,0.001000,0.001000,0.001000,0.001000,0.001000
1020.173077,0.024291,0.001000,0.001000,0.001000,0.001000,0.001000
1020.192308,0.023391,0.001000,0.001000,0.001000,0.001000,0.001000
1020.211538,0.022481,0.001000,0.001000,0.001000,0.001000,0.001000
1020.230769,0.021561,0.001000,0.001000,0.001000,0.001000,0.001000
1020.250000,0.020633,0.001000,0.001000,0.001000,0.001000,0.001000
1020.269231,0.019696,0.001000,0.001000,0.001000,0.001000,0.001000
1020.288462,0.018751,0.001000,0.001000,0.001000,0.001000,0.001000
1020.307692,0.017798,0.001000,0.001000,0.001000,0.001000,0.001000
1020.326923,0.016837,0.001000,0.001000,0.001000,0.001000,0.001000
1020.346154,0.015869,0.001000,0.001000,0.001000,0.001000,0.001000
1020.365385,0.014895,0.001000,0.001000,0.001000,0.001000,0.001000
1020.384615,0.013914,0.001000,0.001000,0.001000,0.001000,0.001000
1020.403846,0.012928,0.001000,0.001000,0.001000,0.001000,0.001000
1020.423077,0.011936,0.001000,0.001000,0.001000,0.001000,0.001000
1020.442308,0.010939,0.001000,0.001000,0.001000,0.001000,0.001000
1020.461538,0.009938,0.001000,0.001000,0.001000,0.001000,0.001000
1020.480769,0.008932,0.001000,0.001000,0.001000,0.001000,0.001000
1020.500000,0.007923,0.001000,0.001000,0.001000,0.001000,0.001000
1020.519231,0.006910,0.001000,0.001000,0.001000,0.001000,0.001000
1020.538462,0.005895,0.001000,0.001000,0.001000,0.001000,0.001000
1020.557692,0.004877,0.001000,0.001000,0.001000,0.001000,0.001000
1020.576923,0.003857,0.001000,0.001000,0.001000,0.001000,0.001000
1020.596154,0.002835,0.001000,0.001000,0.001000,0.001000,0.001000
1020.615385,0.001812,0.001000,0.001000,0.001000,0.001000,0.001000
1020.634615,0.000788,0.001000,0.001000,0.001000,0.001000,0.001000
1020.653846,-0.000236,0.001000,0.001000,0.001000,0.001000,0.001000
1020.673077,-0.001260,0.001000,0.001000,0.001000,0.001000,0.001000
1020.692308,-0.002283,0.001000,0.001000,0.001000,0.001000,0.001000
1020.711538,-0.003305,0.001000,0.001000,0.001000,0.001000,0.001000
1020.730769,-0.004326,0.001000,0.001000,0.001000,0.001000,0.001000
1020.750000,-0.005346,0.001000,0.001000,0.001000,0.001000,0.001000
1020.769231,-0.006362,0.001000,0.001000,0.001000,0.001000,0.001000
1020.788462,-0.007377,0.001000,0.001000,0.001000,0.001000,0.001000
1020.807692,-0.008388,0.001000,0.001000,0.001000,0.001000,0.001000
1020.826923,-0.009396,0.001000,0.001000,0.001000,0.001000,0.001000
1020.846154,-0.010399,0.001000,0.001000,0.001000,0.001000,0.001000
1020.865385,-0.011399,0.001000,0.001000,0.001000,0.001000,0.001000
1020.884615,-0.012393,0.001000,0.001000,0.001000,0.001000,0.001000
1020.903846,-0.013383,0.001000,0.001000,0.001000,0.001000,0.001000
1020.923077,-0.014367,0.001000,0.001000,0.001000,0.001000,0.001000
1020.942308,-0.015344,0.001000,0.001000,0.001000,0.001000,0.001000
1020.961538,-0.016316,0.001000,0.001000,0.001000,0.001000,0.001000
1020.980769,-0.017280,0.001000,0.001000,0.001000,0.001000,0.001000
1021.000000,-0.018237,0.001000,0.001000,0.001000,0.001000,0.001000
1021.019231,-0.019187,0.001000,0.001000,0.001000,0.001000,0.001000
1021.038462,-0.020128,0.001000,0.001000,0.001000,0.001000,0.001000
1021.057692,-0.021061,0.001000,0.001000,0.001000,0.001000,0.001000
1021.076923,-0.021986,0.001000,0.001000,0.001000,0.001000,0.001000
1021.096154,-0.022901,0.001000,0.001000,0.001000,0.001000,0.001000
1021.115385,-0.023806,0.001000,0.001000,0.001000,0.001000,0.001000
1021.134615,-0.024702,0.001000,0.001000,0.001000,0.001000,0.001000
1021.153846,-0.025587,0.001000,0.001000,0.001000,0.001000,0.001000
1021.173077,-0.026461,0.001000,0.001000,0.001000,0.001000,0.001000
1021.192308,-0.027324,0.001000,0.001000,0.001000,0.001000,0.001000
1021.211538,-0.028176,0.001000,0.001000,0.001000,0.001000,0.001000
1021.230769,-0.029016,0.001000,0.001000,0.001000,0.001000,0.001000
1021.250000,-0.029844,0.001000,0.001000,0.001000,0.001000,0.001000
1021.269231,-0.030659,0.001000,0.001000,0.001000,0.001000,0.001000
1021.288462,-0.031462,0.001000,0.001000,0.001000,0.001000,0.001000
1021.307692,-0.032251,0.001000,0.001000,0.001000,0.001000,0.001000
1021.326923,-0.033027,0.001000,0.001000,0.001000,0.001000,0.001000
1021.346154,-0.033788,0.001000,0.001000,0.001000,0.001000,0.001000
1021.365385,-0.034536,0.001000,0.001000,0.001000,0.001000,0.001000
1021.384615,-0.035269,0.001000,0.001000,0.001000,0.001000,0.001000
1021.403846,-0.035988,0.001000,0.001000,0.001000,0.001000,0.001000
1021.423077,-0.036691,0.001000,0.001000,0.001000,0.001000,0.001000
1021.442308,-0.037379,0.001000,0.001000,0.001000,0.001000,0.001000
1021.461538,-0.038051,0.001000,0.001000,0.001000,0.001000,0.001000
1021.480769,-0.038707,0.001000,0.001000,0.001000,0.001000,0.001000
1021.500000,-0.039347,0.001000,0.001000,0.001000,0.001000,0.001000
1021.519231,-0.039971,0.001000,0.001000,0.001000,0.001000,0.001000
1021.538462,-0.040578,0.001000,0.001000,0.001000,0.001000,0.001000
1021.557692,-0.041167,0.001000,0.001000,0.001000,0.001000,0.001000
1021.576923,-0.041740,0.001000,0.001000,0.001000,0.001000,0.001000
1021.596154,-0.042295,0.001000,0.001000,0.001000,0.001000,0.001000
1021.615385,-0.042832,0.001000,0.001000,0.001000,0.001000,0.001000
1021.634615,-0.043351,0.001000,0.001000,0.001000,0.001000,0.001000
1021.653846,-0.043853,0.001000,0.001000,0.001000,0.001000,0.001000
1021.673077,-0.044335,0.001000,0.001000,0.001000,0.001000,0.001000
1021.692308,-0.044799,0.001000,0.001000,0.001000,0.001000,0.001000
1021.711538,-0.045245,0.001000,0.001000,0.001000,0.001000,0.001000
1021.730769,-0.045671,0.001000,0.001000,0.001000,0.001000,0.001000
1021.750000,-0.046078,0.001000,0.001000,0.001000,0.001000,0.001000
1021.769231,-0.046466,0.001000,0.001000,0.001000,0.001000,0.001000
1021.788462,-0.046834,0.001000,0.001000,0.001000,0.001000,0.001000
1021.807692,-0.047183,0.001000,0.001000,0.001000,0.001000,0.001000
1021.826923,-0.047512,0.001000,0.001000,0.001000,0.001000,0.001000
1021.846154,-0.047821,0.001000,0.001000,0.001000,0.001000,0.001000
1021.865385,-0.048110,0.001000,0.001000,0.001000,0.001000,0.001000
1021.884615,-0.048379,0.001000,0.001000,0.001000,0.001000,0.001000
1021.903846,-0.048627,0.001000,0.001000,0.001000,0.001000,0.001000
1021.923077,-0.048855,0.001000,0.001000,0.001000,0.001000,0.001000
1021.942308,-0.049063,0.001000,0.001000,0.001000,0.001000,0.001000
1021.961538,-0.049250,0.001000,0.001000,0.001000,0.001000,0.001000
1021.980769,-0.049416,0.001000,0.001000,0.001000,0.001000,0.001000
1022.000000,-0.049562,0.001000,0.001000,0.001000,0.001000,0.001000
1022.019231,-0.049687,0.001000,0.001000,0.001000,0.001000,0.001000
1022.038462,-0.049791,0.001000,0.001000,0.001000,0.001000,0.001000
1022.057692,-0.049874,0.001000,0.001000,0.001000,0.001000,0.001000
1022.076923,-0.049936,0.001000,0.001000,0.001000,0.001000,0.001000
1022.096154,-0.049977,0.001000,0.001000,0.001000,0.001000,0.001000
1022.115385,-0.049998,0.001000,0.001000,0.001000,0.001000,0.001000
1022.134615,-0.049997,0.001000,0.001000,0.001000,0.001000,0.001000
1022.153846,-0.049975,0.001000,0.001000,0.001000,0.001000,0.001000
1022.173077,-0.049933,0.001000,0.001000,0.001000,0.001000,0.001000
1022.192308,-0.049869,0.001000,0.001000,0.001000,0.001000,0.001000
1022.211538,-0.049785,0.001000,0.001000,0.001000,0.001000,0.001000
1022.230769,-0.049679,0.001000,0.001000,0.001000,0.001000,0.001000
1022.250000,-0.049553,0.001000,0.001000,0.001000,0.001000,0.001000
1022.269231,-0.049406,0.001000,0.001000,0.001000,0.001000,0.001000
1022.288462,-0.049239,0.001000,0.001000,0.001000,0.001000,0.001000
1022.307692,-0.049050,0.001000,0.001000,0.001000,0.001000,0.001000
1022.326923,-0.048841,0.001000,0.001000,0.001000,0.001000,0.001000
1022.346154,-0.048612,0.001000,0.001000,0.001000,0.001000,0.001000
1022.365385,-0.048362,0.001000,0.001000,0.001000,0.001000,0.001000
1022.384615,-0.048092,0.001000,0.001000,0.001000,0.001000,0.001000
1022.403846,-0.047802,0.001000,0.001000,0.001000,0.001000,0.001000
1022.423077,-0.047491,0.001000,0.001000,0.001000,0.001000,0.001000
1022.442308,-0.047161,0.001000,0.001000,0.001000,0.001000,0.001000
1022.461538,-0.046811,0.001000,0.001000,0.001000,0.001000,0.001000
1022.480769,-0.046442,0.001000,0.001000,0.001000,0.001000,0.001000
1022.500000,-0.046053,0.001000,0.001000,0.001000,0.001000,0.001000
1022.519231,-0.045644,0.001000,0.001000,0.001000,0.001000,0.001000
1022.538462,-0.045217,0.001000,0.001000,0.001000,0.001000,0.001000
1022.557692,-0.044770,0.001000,0.001000,0.001000,0.001000,0.001000
1022.576923,-0.044305,0.001000,0.001000,0.001000,0.001000,0.001000
1022.596154,-0.043821,0.001000,0.001000,0.001000,0.001000,0.001000
1022.615385,-0.043318,0.001000,0.001000,0.001000,0.001000,0.001000
1022.634615,-0.042798,0.001000,0.001000,0.001000,0.001000,0.001000
1022.653846,-0.042260,0.001000,0.001000,0.001000,0.001000,0.001000
1022.673077,-0.041704,0.001000,0.001000,0.001000,0.001000,0.001000
1022.692308,-0.041130,0.001000,0.001000,0.001000,0.001000,0.001000
1022.711538,-0.040539,0.001000,0.001000,0.001000,0.001000,0.001000
1022.730769,-0.039931,0.001000,0.001000,0.001000,0.001000,0.001000
1022.750000,-0.039307,0.001000,0.001000,0.001000,0.001000,0.001000
1022.769231,-0.038665,0.001000,0.001000,0.001000,0.001000,0.001000
1022.788462,-0.038008,0.001000,0.001000,0.001000,0.001000,0.001000
1022.807692,-0.037335,0.001000,0.001000,0.001000,0.001000,0.001000
1022.826923,-0.036646,0.001000,0.001000,0.001000,0.001000,0.001000
1022.846154,-0.035942,0.001000,0.001000,0.001000,0.001000,0.001000
1022.865385,-0.035222,0.001000,0.001000,0.001000,0.001000,0.001000
1022.884615,-0.034488,0.001000,0.001000,0.001000,0.001000,0.001000
1022.903846,-0.033740,0.001000,0.001000,0.001000,0.001000,0.001000
1022.923077,-0.032977,0.001000,0.001000,0.001000,0.001000,0.001000
1022.942308,-0.032200,0.001000,0.001000,0.001000,0.001000,0.001000
1022.961538,-0.031410,0.001000,0.001000,0.001000,0.001000,0.001000
1022.980769,-0.030607,0.001000,0.001000,0.001000,0.001000,0.001000
1023.000000,-0.029791,0.001000,0.001000,0.001000,0.001000,0.001000
1023.019231,-0.028962,0.001000,0.001000,0.001000,0.001000,0.001000
1023.038462,-0.028121,0.001000,0.001000,0.001000,0.001000,0.001000
1023.057692,-0.027269,0.001000,0.001000,0.001000,0.001000,0.001000
1023.076923,-0.026405,0.001000,0.001000,0.001000,0.001000,0.001000
1023.096154,-0.025530,0.001000,0.001000,0.001000,0.001000,0.001000
1023.115385,-0.024644,0.001000,0.001000,0.001000,0.001000,0.001000
1023.134615,-0.023748,0.001000,0.001000,0.001000,0.001000,0.001000
1023.153846,-0.022842,0.001000,0.001000,0.001000,0.001000,0.001000
1023.173077,-0.021926,0.001000,0.001000,0.001000,0.001000,0.001000
1023.192308,-0.021001,0.001000,0.001000,0.001000,0.001000,0.001000
1023.211538,-0.020068,0.001000,0.001000,0.001000,0.001000,0.001000
1023.230769,-0.019126,0.001000,0.001000,0.001000,0.001000,0.001000
1023.250000,-0.018176,0.001000,0.001000,0.001000,0.001000,0.001000
1023.269231,-0.017218,0.001000,0.001000,0.001000,0.001000,0.001000
1023.288462,-0.016253,0.001000,0.001000,0.001000,0.001000,0.001000
1023.307692,-0.015281,0.001000,0.001000,0.001000,0.001000,0.001000
1023.326923,-0.014303,0.001000,0.001000,0.001000,0.001000,0.001000
1023.346154,-0.013319,0.001000,0.001000,0.001000,0.001000,0.001000
1023.365385,-0.012329,0.001000,0.001000,0.001000,0.001000,0.001000
1023.384615,-0.011334,0.001000,0.001000,0.001000,0.001000,0.001000
1023.403846,-0.010335,0.001000,0.001000,0.001000,0.001000,0.001000
1023.423077,-0.009331,0.001000,0.001000,0.001000,0.001000,0.001000
1023.442308,-0.008323,0.001000,0.001000,0.001000,0.001000,0.001000
1023.461538,-0.007311,0.001000,0.001000,0.001000,0.001000,0.001000
1023.480769,-0.006297,0.001000,0.001000,0.001000,0.001000,0.001000
1023.500000,-0.005280,0.001000,0.001000,0.001000,0.001000,0.001000
1023.519231,-0.004260,0.001000,0.001000,0.001000,0.001000,0.001000
1023.538462,-0.003239,0.001000,0.001000,0.001000,0.001000,0.001000
1023.557692,-0.002217,0.001000,0.001000,0.001000,0.001000,0.001000
1023.576923,-0.001193,0.001000,0.001000,0.001000,0.001000,0.001000
1023.596154,-0.000170,0.001000,0.001000,0.001000,0.001000,0.001000
1023.615385,0.000854,0.001000,0.001000,0.001000,0.001000,0.001000
1023.634615,0.001878,0.001000,0.001000,0.001000,0.001000,0.001000
1023.653846,0.002901,0.001000,0.001000,0.001000,0.001000,0.001000
1023.673077,0.003923,0.001000,0.001000,0.001000,0.001000,0.001000
1023.692308,0.004942,0.001000,0.001000,0.001000,0.001000,0.001000
1023.711538,0.005960,0.001000,0.001000,0.001000,0.001000,0.001000
1023.730769,0.006976,0.001000,0.001000,0.001000,0.001000,0.001000
1023.750000,0.007988,0.001000,0.001000,0.001000,0.001000,0.001000
1023.769231,0.008997,0.001000,0.001000,0.001000,0.001000,0.001000
1023.788462,0.010003,0.001000,0.001000,0.001000,0.001000,0.001000
1023.807692,0.011004,0.001000,0.001000,0.001000,0.001000,0.001000
1023.826923,0.012000,0.001000,0.001000,0.001000,0.001000,0.001000
1023.846154,0.012992,0.001000,0.001000,0.001000,0.001000,0.001000
1023.865385,0.013978,0.001000,0.001000,0.001000,0.001000,0.001000
1023.884615,0.014958,0.001000,0.001000,0.001000,0.001000,0.001000
1023.903846,0.015932,0.001000,0.001000,0.001000,0.001000,0.001000
1023.923077,0.016899,0.001000,0.001000,0.001000,0.001000,0.001000
1023.942308,0.017859,0.001000,0.001000,0.001000,0.001000,0.001000
1023.961538,0.018812,0.001000,0.001000,0.001000,0.001000,0.001000
1023.980769,0.019757,0.001000,0.001000,0.001000,0.001000,0.001000
1024.000000,0.020693,0.001000,0.001000,0.001000,0.001000,0.001000
1024.019231,0.021621,0.001000,0.001000,0.001000,0.001000,0.001000
1024.038462,0.022540,0.001000,0.001000,0.001000,0.001000,0.001000
1024.057692,0.023449,0.001000,0.001000,0.001000,0.001000,0.001000
1024.076923,0.024349,0.001000,0.001000,0.001000,0.001000,0.001000
1024.096154,0.025238,0.001000,0.001000,0.001000,0.001000,0.001000
1024.115385,0.026116,0.001000,0.001000,0.001000,0.001000,0.001000
1024.134615,0.026984,0.001000,0.001000,0.001000,0.001000,0.001000
1024.153846,0.027840,0.001000,0.001000,0.001000,0.001000,0.001000
1024.173077,0.028685,0.001000,0.001000,0.001000,0.001000,0.001000
1024.192308,0.029518,0.001000,0.001000,0.001000,0.001000,0.001000
1024.211538,0.030338,0.001000,0.001000,0.001000,0.001000,0.001000
1024.230769,0.031146,0.001000,0.001000,0.001000,0.001000,0.001000
1024.250000,0.031940,0.001000,0.001000,0.001000,0.001000,0.001000
1024.269231,0.032721,0.001000,0.001000,0.001000,0.001000,0.001000
1024.288462,0.033489,0.001000,0.001000,0.001000,0.001000,0.001000
1024.307692,0.034242,0.001000,0.001000,0.001000,0.001000,0.001000
1024.326923,0.034981,0.001000,0.001000,0.001000,0.001000,0.001000
1024.346154,0.035705,0.001000,0.001000,0.001000,0.001000,0.001000
1024.365385,0.036414,0.001000,0.001000,0.001000,0.001000,0.001000
1024.384615,0.037109,0.001000,0.001000,0.001000,0.001000,0.001000
1024.403846,0.037787,0.001000,0.001000,0.001000,0.001000,0.001000
1024.423077,0.038450,0.001000,0.001000,0.001000,0.001000,0.001000
1024.442308,0.039096,0.001000,0.001000,0.001000,0.001000,0.001000
1024.461538,0.039726,0.001000,0.001000,0.001000,0.001000,0.001000
1024.480769,0.040340,0.001000,0.001000,0.001000,0.001000,0.001000
1024.500000,0.040936,0.001000,0.001000,0.001000,0.001000,0.001000
1024.519231,0.041516,0.001000,0.001000,0.001000,0.001000,0.001000
1024.538462,0.042077,0.001000,0.001000,0.001000,0.001000,0.001000
1024.557692,0.042622,0.001000,0.001000,0.001000,0.001000,0.001000
1024.576923,0.043148,0.001000,0.001000,0.001000,0.001000,0.001000
1024.596154,0.043656,0.001000,0.001000,0.001000,0.001000,0.001000
1024.615385,0.044147,0.001000,0.001000,0.001000,0.001000,0.001000
1024.634615,0.044618,0.001000,0.001000,0.001000,0.001000,0.001000
1024.653846,0.045071,0.001000,0.001000,0.001000,0.001000,0.001000
1024.673077,0.045505,0.001000,0.001000,0.001000,0.001000,0.001000
1024.692308,0.045919,0.001000,0.001000,0.001000,0.001000,0.001000
1024.711538,0.046315,0.001000,0.001000,0.001000,0.001000,0.001000
1024.730769,0.046691,0.001000,0.001000,0.001000,0.001000,0.001000
1024.750000,0.047048,0.001000,0.001000,0.001000,0.001000,0.001000
1024.769231,0.047384,0.001000,0.001000,0.001000,0.001000,0.001000
1024.788462,0.047701,0.001000,0.001000,0.001000,0.001000,0.001000
1024.807692,0.047998,0.001000,0.001000,0.001000,0.001000,0.001000
1024.826923,0.048275,0.001000,0.001000,0.001000,0.001000,0.001000
1024.846154,0.048531,0.001000,0.001000,0.001000,0.001000,0.001000
1024.865385,0.048768,0.001000,0.001000,0.001000,0.001000,0.001000
1024.884615,0.048983,0.001000,0.001000,0.001000,0.001000,0.001000
1024.903846,0.049178,0.001000,0.001000,0.001000,0.001000,0.001000
1024.923077,0.049353,0.001000,0.001000,0.001000,0.001000,0.001000
1024.942308,0.049507,0.001000,0.001000,0.001000,0.001000,0.001000
1024.961538,0.049640,0.001000,0.001000,0.001000,0.001000,0.001000
1024.980769,0.049752,0.001000,0.001000,0.001000,0.001000,0.001000
1025.000000,0.049844,0.001000,0.001000,0.001000,0.001000,0.001000
1025.019231,0.049914,0.001000,0.001000,0.001000,0.001000,0.001000
1025.038462,0.049964,0.001000,0.001000,0.001000,0.001000,0.001000
1025.057692,0.049992,0.001000,0.001000,0.001000,0.001000,0.001000
1025.076923,0.050000,0.001000,0.001000,0.001000,0.001000,0.001000
1025.096154,0.049986,0.001000,0.001000,0.001000,0.001000,0.001000
1025.115385,0.049952,0.001000,0.001000,0.001000,0.001000,0.001000
1025.134615,0.049897,0.001000,0.001000,0.001000,0.001000,0.001000
1025.153846,0.049821,0.001000,0.001000,0.001000,0.001000,0.001000
1025.173077,0.049724,0.001000,0.001000,0.001000,0.001000,0.001000
1025.192308,0.049606,0.001000,0.001000,0.001000,0.001000,0.001000
1025.211538,0.049467,0.001000,0.001000,0.001000,0.001000,0.001000
1025.230769,0.049307,0.001000,0.001000,0.001000,0.001000,0.001000
1025.250000,0.049127,0.001000,0.001000,0.001000,0.001000,0.001000
1025.269231,0.048926,0.001000,0.001000,0.001000,0.001000,0.001000
1025.288462,0.048705,0.001000,0.001000,0.001000,0.001000,0.001000
1025.307692,0.048463,0.001000,0.001000,0.001000,0.001000,0.001000
1025.326923,0.048201,0.001000,0.001000,0.001000,0.001000,0.001000
1025.346154,0.047919,0.001000,0.001000,0.001000,0.001000,0.001000
1025.365385,0.047617,0.001000,0.001000,0.001000,0.001000,0.001000
1025.384615,0.047294,0.001000,0.001000,0.001000,0.001000,0.001000
1025.403846,0.046952,0.001000,0.001000,0.001000,0.001000,0.001000
1025.423077,0.046590,0.001000,0.001000,0.001000,0.001000,0.001000
1025.442308,0.046209,0.001000,0.001000,0.001000,0.001000,0.001000
1025.461538,0.045808,0.001000,0.001000,0.001000,0.001000,0.001000
1025.480769,0.045388,0.001000,0.001000,0.001000,0.001000,0.001000
1025.500000,0.044949,0.001000,0.001000,0.001000,0.001000,0.001000
1025.519231,0.044491,0.001000,0.001000,0.001000,0.001000,0.001000
1025.538462,0.044014,0.001000,0.001000,0.001000,0.001000,0.001000
1025.557692,0.043519,0.001000,0.001000,0.001000,0.001000,0.001000
1025.576923,0.043006,0.001000,0.001000,0.001000,0.001000,0.001000
1025.596154,0.042475,0.001000,0.001000,0.001000,0.001000,0.001000
1025.615385,0.041926,0.001000,0.001000,0.001000,0.001000,0.001000
1025.634615,0.041359,0.001000,0.001000,0.001000,0.001000,0.001000
1025.653846,0.040775,0.001000,0.001000,0.001000,0.001000,0.001000
1025.673077,0.040174,0.001000,0.001000,0.001000,0.001000,0.001000
1025.692308,0.039556,0.001000,0.001000,0.001000,0.001000,0.001000
1025.711538,0.038921,0.001000,0.001000,0.001000,0.001000,0.001000
1025.730769,0.038270,0.001000,0.001000,0.001000,0.001000,0.001000
1025.750000,0.037603,0.001000,0.001000,0.001000,0.001000,0.001000
1025.769231,0.036920,0.001000,0.001000,0.001000,0.001000,0.001000
1025.788462,0.036222,0.001000,0.001000,0.001000,0.001000,0.001000
1025.807692,0.035509,0.001000,0.001000,0.001000,0.001000,0.001000
1025.826923,0.034780,0.001000,0.001000,0.001000,0.001000,0.001000
1025.846154,0.034037,0.001000,0.001000,0.001000,0.001000,0.001000
1025.865385,0.033280,0.001000,0.001000,0.001000,0.001000,0.001000
1025.884615,0.032509,0.001000,0.001000,0.001000,0.001000,0.001000
1025.903846,0.031724,0.001000,0.001000,0.001000,0.001000,0.001000
1025.923077,0.030926,0.001000,0.001000,0.001000,0.001000,0.001000
1025.942308,0.030115,0.001000,0.001000,0.001000,0.001000,0.001000
1025.961538,0.029291,0.001000,0.001000,0.001000,0.001000,0.001000
1025.980769,0.028456,0.001000,0.001000,0.001000,0.001000,0.001000
1026.000000,0.027608,0.001000,0.001000,0.001000,0.001000,0.001000
1026.019231,0.026748,0.001000,0.001000,0.001000,0.001000,0.001000
1026.038462,0.025877,0.001000,0.001000,0.001000,0.001000,0.001000
1026.057692,0.024996,0.001000,0.001000,0.001000,0.001000,0.001000
1026.076923,0.024104,0.001000,0.001000,0.001000,0.001000,0.001000
1026.096154,0.023202,0.001000,0.001000,0.001000,0.001000,0.001000
1026.115385,0.022290,0.001000,0.001000,0.001000,0.001000,0.001000
1026.134615,0.021368,0.001000,0.001000,0.001000,0.001000,0.001000
1026.153846,0.020438,0.001000,0.001000,0.001000,0.001000,0.001000
1026.173077,0.019499,0.001000,0.001000,0.001000,0.001000,0.001000
1026.192308,0.018553,0.001000,0.001000,0.001000,0.001000,0.001000
1026.211538,0.017598,0.001000,0.001000,0.001000,0.001000,0.001000
1026.230769,0.016636,0.001000,0.001000,0.001000,0.001000,0.001000
1026.250000,0.015667,0.001000,0.001000,0.001000,0.001000,0.001000
1026.269231,0.014691,0.001000,0.001000,0.001000,0.001000,0.001000
1026.288462,0.013709,0.001000,0.001000,0.001000,0.001000,0.001000
1026.307692,0.012721,0.001000,0.001000,0.001000,0.001000,0.001000
1026.326923,0.011729,0.001000,0.001000,0.001000,0.001000,0.001000
1026.346154,0.010731,0.001000,0.001000,0.001000,0.001000,0.001000
1026.365385,0.009728,0.001000,0.001000,0.001000,0.001000,0.001000
1026.384615,0.008722,0.001000,0.001000,0.001000,0.001000,0.001000
1026.403846,0.007712,0.001000,0.001000,0.001000,0.001000,0.001000
1026.423077,0.006699,0.001000,0.001000,0.001000,0.001000,0.001000
1026.442308,0.005682,0.001000,0.001000,0.001000,0.001000,0.001000
1026.461538,0.004664,0.001000,0.001000,0.001000,0.001000,0.001000
1026.480769,0.003644,0.001000,0.001000,0.001000,0.001000,0.001000
1026.500000,0.002622,0.001000,0.001000,0.001000,0.001000,0.001000
1026.519231,0.001598,0.001000,0.001000,0.001000,0.001000,0.001000
1026.538462,0.000575,0.001000,0.001000,0.001000,0.001000,0.001000
1026.557692,-0.000449,0.001000,0.001000,0.001000,0.001000,0.001000
1026.576923,-0.001473,0.001000,0.001000,0.001000,0.001000,0.001000
1026.596154,-0.002496,0.001000,0.001000,0.001000,0.001000,0.001000
1026.615385,-0.003518,0.001000,0.001000,0.001000,0.001000,0.001000
1026.634615,-0.004539,0.001000,0.001000,0.001000,0.001000,0.001000
1026.653846,-0.005558,0.001000,0.001000,0.001000,0.001000,0.001000
1026.673077,-0.006574,0.001000,0.001000,0.001000,0.001000,0.001000
1026.692308,-0.007588,0.001000,0.001000,0.001000,0.001000,0.001000
1026.711538,-0.008598,0.001000,0.001000,0.001000,0.001000,0.001000
1026.730769,-0.009605,0.001000,0.001000,0.001000,0.001000,0.001000
1026.750000,-0.010608,0.001000,0.001000,0.001000,0.001000,0.001000
1026.769231,-0.011607,0.001000,0.001000,0.001000,0.001000,0.001000
1026.788462,-0.012600,0.001000,0.001000,0.001000,0.001000,0.001000
1026.807692,-0.013588,0.001000,0.001000,0.001000,0.001000,0.001000
1026.826923,-0.014571,0.001000,0.001000,0.001000,0.001000,0.001000
1026.846154,-0.015547,0.001000,0.001000,0.001000,0.001000,0.001000
1026.865385,-0.016517,0.001000,0.001000,0.001000,0.001000,0.001000
1026.884615,-0.017480,0.001000,0.001000,0.001000,0.001000,0.001000
1026.903846,-0.018436,0.001000,0.001000,0.001000,0.001000,0.001000
1026.923077,-0.019384,0.001000,0.001000,0.001000,0.001000,0.001000
1026.942308,-0.020324,0.001000,0.001000,0.001000,0.001000,0.001000
1026.961538,-0.021255,0.001000,0.001000,0.001000,0.001000,0.001000
1026.980769,-0.022177,0.001000,0.001000,0.001000,0.001000,0.001000
1027.000000,-0.023090,0.001000,0.001000,0.001000,0.001000,0.001000
1027.019231,-0.023994,0.001000,0.001000,0.001000,0.001000,0.001000
1027.038462,-0.024887,0.001000,0.001000,0.001000,0.001000,0.001000
1027.057692,-0.025770,0.001000,0.001000,0.001000,0.001000,0.001000
1027.076923,-0.026642,0.001000,0.001000,0.001000,0.001000,0.001000
1027.096154,-0.027503,0.001000,0.001000,0.001000,0.001000,0.001000
1027.115385,-0.028352,0.001000,0.001000,0.001000,0.001000,0.001000
1027.134615,-0.029190,0.001000,0.001000,0.001000,0.001000,0.001000
1027.153846,-0.030015,0.001000,0.001000,0.001000,0.001000,0.001000
1027.173077,-0.030828,0.001000,0.001000,0.001000,0.001000,0.001000
1027.192308,-0.031627,0.001000,0.001000,0.001000,0.001000,0.001000
1027.211538,-0.032414,0.001000,0.001000,0.001000,0.001000,0.001000
1027.230769,-0.033187,0.001000,0.001000,0.001000,0.001000,0.001000
1027.250000,-0.033946,0.001000,0.001000,0.001000,0.001000,0.001000
1027.269231,-0.034690,0.001000,0.001000,0.001000,0.001000,0.001000
1027.288462,-0.035420,0.001000,0.001000,0.001000,0.001000,0.001000
1027.307692,-0.036136,0.001000,0.001000,0.001000,0.001000,0.001000
1027.326923,-0.036836,0.001000,0.001000,0.001000,0.001000,0.001000
1027.346154,-0.037520,0.001000,0.001000,0.001000,0.001000,0.001000
1027.365385,-0.038189,0.001000,0.001000,0.001000,0.001000,0.001000
1027.384615,-0.038842,0.001000,0.001000,0.001000,0.001000,0.001000
1027.403846,-0.039479,0.001000,0.001000,0.001000,0.001000,0.001000
1027.423077,-0.040099,0.001000,0.001000,0.001000,0.001000,0.001000
1027.442308,-0.040702,0.001000,0.001000,0.001000,0.001000,0.001000
1027.461538,-0.041288,0.001000,0.001000,0.001000,0.001000,0.001000
1027.480769,-0.041857,0.001000,0.001000,0.001000,0.001000,0.001000
1027.500000,-0.042409,0.001000,0.001000,0.001000,0.001000,0.001000
1027.519231,-0.042942,0.001000,0.001000,0.001000,0.001000,0.001000
1027.538462,-0.043458,0.001000,0.001000,0.001000,0.001000,0.001000
1027.557692,-0.043955,0.001000,0.001000,0.001000,0.001000,0.001000
1027.576923,-0.044434,0.001000,0.001000,0.001000,0.001000,0.001000
1027.596154,-0.044894,0.001000,0.001000,0.001000,0.001000,0.001000
1027.615385,-0.045335,0.001000,0.001000,0.001000,0.001000,0.001000
1027.634615,-0.045758,0.001000,0.001000,0.001000,0.001000,0.001000
1027.653846,-0.046161,0.001000,0.001000,0.001000,0.001000,0.001000
1027.673077,-0.046545,0.001000,0.001000,0.001000,0.001000,0.001000
1027.692308,-0.046909,0.001000,0.001000,0.001000,0.001000,0.001000
1027.711538,-0.047253,0.001000,0.001000,0.001000,0.001000,0.001000
1027.730769,-0.047578,0.001000,0.001000,0.001000,0.001000,0.001000
1027.750000,-0.047883,0.001000,0.001000,0.001000,0.001000,0.001000
1027.769231,-0.048168,0.001000,0.001000,0.001000,0.001000,0.001000
1027.788462,-0.048432,0.001000,0.001000,0.001000,0.001000,0.001000
1027.807692,-0.048677,0.001000,0.001000,0.001000,0.001000,0.001000
1027.826923,-0.048900,0.001000,0.001000,0.001000,0.001000,0.001000
1027.846154,-0.049104,0.001000,0.001000,0.001000,0.001000,0.001000
1027.865385,-0.049286,0.001000,0.001000,0.001000,0.001000,0.001000
1027.884615,-0.049448,0.001000,0.001000,0.001000,0.001000,0.001000
1027.903846,-0.049590,0.001000,0.001000,0.001000,0.001000,0.001000
1027.923077,-0.049710,0.001000,0.001000,0.001000,0.001000,0.001000
1027.942308,-0.049810,0.001000,0.001000,0.001000,0.001000,0.001000
1027.961538,-0.049889,0.001000,0.001000,0.001000,0.001000,0.001000
1027.980769,-0.049946,0.001000,0.001000,0.001000,0.001000,0.001000
1028.000000,-0.049983,0.001000,0.001000,0.001000,0.001000,0.001000
1028.019231,-0.049999,0.001000,0.001000,0.001000,0.001000,0.001000
1028.038462,-0.049994,0.001000,0.001000,0.001000,0.001000,0.001000
1028.057692,-0.049968,0.001000,0.001000,0.001000,0.001000,0.001000
1028.076923,-0.049921,0.001000,0.001000,0.001000,0.001000,0.001000
1028.096154,-0.049853,0.001000,0.001000,0.001000,0.001000,0.001000
1028.115385,-0.049764,0.001000,0.001000,0.001000,0.001000,0.001000
1028.134615,-0.049655,0.001000,0.001000,0.001000,0.001000,0.001000
1028.153846,-0.049524,0.001000,0.001000,0.001000,0.001000,0.001000
1028.173077,-0.049373,0.001000,0.001000,0.001000,0.001000,0.001000
1028.192308,-0.049201,0.001000,0.001000,0.001000,0.001000,0.001000
1028.211538,-0.049008,0.001000,0.001000,0.001000,0.001000,0.001000
1028.230769,-0.048795,0.001000,0.001000,0.001000,0.001000,0.001000
1028.250000,-0.048561,0.001000,0.001000,0.001000,0.001000,0.001000
1028.269231,-0.048307,0.001000,0.001000,0.001000,0.001000,0.001000
1028.288462,-0.048033,0.001000,0.001000,0.001000,0.001000,0.001000
1028.307692,-0.047739,0.001000,0.001000,0.001000,0.001000,0.001000
1028.326923,-0.047424,0.001000,0.001000,0.001000,0.001000,0.001000
1028.346154,-0.047090,0.001000,0.001000,0.001000,0.001000,0.001000
1028.365385,-0.046736,0.001000,0.001000,0.001000,0.001000,0.001000
1028.384615,-0.046362,0.001000,0.001000,0.001000,0.001000,0.001000
1028.403846,-0.045969,0.001000,0.001000,0.001000,0.001000,0.001000
1028.423077,-0.045556,0.001000,0.001000,0.001000,0.001000,0.001000
1028.442308,-0.045125,0.001000,0.001000,0.001000,0.001000,0.001000
1028.461538,-0.044674,0.001000,0.001000,0.001000,0.001000,0.001000
1028.480769,-0.044205,0.001000,0.001000,0.001000,0.001000,0.001000
1028.500000,-0.043717,0.001000,0.001000,0.001000,0.001000,0.001000
1028.519231,-0.043211,0.001000,0.001000,0.001000,0.001000,0.001000
1028.538462,-0.042687,0.001000,0.001000,0.001000,0.001000,0.001000
1028.557692,-0.042145,0.001000,0.001000,0.001000,0.001000,0.001000
1028.576923,-0.041585,0.001000,0.001000,0.001000,0.001000,0.001000
1028.596154,-0.041008,0.001000,0.001000,0.001000,0.001000,0.001000
1028.615385,-0.040414,0.001000,0.001000,0.001000,0.001000,0.001000
1028.634615,-0.039802,0.001000,0.001000,0.001000,0.001000,0.001000
1028.653846,-0.039174,0.001000,0.001000,0.001000,0.001000,0.001000
1028.673077,-0.038530,0.001000,0.001000,0.001000,0.001000,0.001000
1028.692308,-0.037869,0.001000,0.001000,0.001000,0.001000,0.001000
1028.711538,-0.037192,0.001000,0.001000,0.001000,0.001000,0.001000
1028.730769,-0.036500,0.001000,0.001000,0.001000,0.001000,0.001000
1028.750000,-0.035793,0.001000,0.001000,0.001000,0.001000,0.001000
1028.769231,-0.035070,0.001000,0.001000,0.001000,0.001000,0.001000
1028.788462,-0.034333,0.001000,0.001000,0.001000,0.001000,0.001000
1028.807692,-0.033582,0.001000,0.001000,0.001000,0.001000,0.001000
1028.826923,-0.032816,0.001000,0.001000,0.001000,0.001000,0.001000
1028.846154,-0.032036,0.001000,0.001000,0.001000,0.001000,0.001000
1028.865385,-0.031244,0.001000,0.001000,0.001000,0.001000,0.001000
1028.884615,-0.030438,0.001000,0.001000,0.001000,0.001000,0.001000
1028.903846,-0.029619,0.001000,0.001000,0.001000,0.001000,0.001000
1028.923077,-0.028788,0.001000,0.001000,0.001000,0.001000,0.001000
1028.942308,-0.027945,0.001000,0.001000,0.001000,0.001000,0.001000
1028.961538,-0.027090,0.001000,0.001000,0.001000,0.001000,0.001000
1028.980769,-0.026223,0.001000,0.001000,0.001000,0.001000,0.001000
1029.000000,-0.025346,0.001000,0.001000,0.001000,0.001000,0.001000
1029.019231,-0.024458,0.001000,0.001000,0.001000,0.001000,0.001000
1029.038462,-0.023560,0.001000,0.001000,0.001000,0.001000,0.001000
1029.057692,-0.022652,0.001000,0.001000,0.001000,0.001000,0.001000
1029.076923,-0.021734,0.001000,0.001000,0.001000,0.001000,0.001000
1029.096154,-0.020807,0.001000,0.001000,0.001000,0.001000,0.001000
1029.115385,-0.019872,0.001000,0.001000,0.001000,0.001000,0.001000
1029.134615,-0.018928,0.001000,0.001000,0.001000,0.001000,0.001000
1029.153846,-0.017976,0.001000,0.001000,0.001000,0.001000,0.001000
1029.173077,-0.017017,0.001000,0.001000,0.001000,0.001000,0.001000
1029.192308,-0.016051,0.001000,0.001000,0.001000,0.001000,0.001000
1029.211538,-0.015078,0.001000,0.001000,0.001000,0.001000,0.001000
1029.230769,-0.014098,0.001000,0.001000,0.001000,0.001000,0.001000
1029.250000,-0.013113,0.001000,0.001000,0.001000,0.001000,0.001000
1029.269231,-0.012122,0.001000,0.001000,0.001000,0.001000,0.001000
1029.288462,-0.011126,0.001000,0.001000,0.001000,0.001000,0.001000
1029.307692,-0.010126,0.001000,0.001000,0.001000,0.001000,0.001000
1029.326923,-0.009121,0.001000,0.001000,0.001000,0.001000,0.001000
1029.346154,-0.008112,0.001000,0.001000,0.001000,0.001000,0.001000
1029.365385,-0.007100,0.001000,0.001000,0.001000,0.001000,0.001000
1029.384615,-0.006085,0.001000,0.001000,0.001000,0.001000,0.001000
1029.403846,-0.005067,0.001000,0.001000,0.001000,0.001000,0.001000
1029.423077,-0.004048,0.001000,0.001000,0.001000,0.001000,0.001000
1029.442308,-0.003026,0.001000,0.001000,0.001000,0.001000,0.001000
1029.461538,-0.002003,0.001000,0.001000,0.001000,0.001000,0.001000
1029.480769,-0.000980,0.001000,0.001000,0.001000,0.001000,0.001000
1029.500000,0.000044,0.001000,0.001000,0.001000,0.001000,0.001000
1029.519231,0.001068,0.001000,0.001000,0.001000,0.001000,0.001000
1029.538462,0.002092,0.001000,0.001000,0.001000,0.001000,0.001000
1029.557692,0.003114,0.001000,0.001000,0.001000,0.001000,0.001000
1029.576923,0.004135,0.001000,0.001000,0.001000,0.001000,0.001000
1029.596154,0.005155,0.001000,0.001000,0.001000,0.001000,0.001000
1029.615385,0.006172,0.001000,0.001000,0.001000,0.001000,0.001000
1029.634615,0.007187,0.001000,0.001000,0.001000,0.001000,0.001000
1029.653846,0.008199,0.001000,0.001000,0.001000,0.001000,0.001000
1029.673077,0.009207,0.001000,0.001000,0.001000,0.001000,0.001000
1029.692308,0.010212,0.001000,0.001000,0.001000,0.001000,0.001000
1029.711538,0.011212,0.001000,0.001000,0.001000,0.001000,0.001000
1029.730769,0.012208,0.001000,0.001000,0.001000,0.001000,0.001000
1029.750000,0.013198,0.001000,0.001000,0.001000,0.001000,0.001000
1029.769231,0.014183,0.001000,0.001000,0.001000,0.001000,0.001000
1029.788462,0.015162,0.001000,0.001000,0.001000,0.001000,0.001000
1029.807692,0.016134,0.001000,0.001000,0.001000,0.001000,0.001000
1029.826923,0.017100,0.001000,0.001000,0.001000,0.001000,0.001000
1029.846154,0.018059,0.001000,0.001000,0.001000,0.001000,0.001000
1029.865385,0.019010,0.001000,0.001000,0.001000,0.001000,0.001000
1029.884615,0.019953,0.001000,0.001000,0.001000,0.001000,0.001000
1029.903846,0.020888,0.001000,0.001000,0.001000,0.001000,0.001000
1029.923077,0.021814,0.001000,0.001000,0.001000,0.001000,0.001000
1029.942308,0.022730,0.001000,0.001000,0.001000,0.001000,0.001000
1029.961538,0.023638,0.001000,0.001000,0.001000,0.001000,0.001000
1029.980769,0.024535,0.001000,0.001000,0.001000,0.001000,0.001000
1030.000000,0.000000,0.001000,0.001000,0.001000,0.001000,0.001000
1030.019231,0.001151,0.001000,0.001000,0.001000,0.001000,0.001000
1030.038462,0.002301,0.001000,0.001000,0.001000,0.001000,0.001000
1030.057692,0.003450,0.001000,0.001000,0.001000,0.001000,0.001000
1030.076923,0.004598,0.001000,0.001000,0.001000,0.001000,0.001000
1030.096154,0.005742,0.001000,0.001000,0.001000,0.001000,0.001000
1030.115385,0.006884,0.001000,0.001000,0.001000,0.001000,0.001000
1030.134615,0.008022,0.001000,0.001000,0.001000,0.001000,0.001000
1030.153846,0.009156,0.001000,0.001000,0.001000,0.001000,0.001000
1030.173077,0.010285,0.001000,0.001000,0.001000,0.001000,0.001000
1030.192308,0.011409,0.001000,0.001000,0.001000,0.001000,0.001000
1030.211538,0.012526,0.001000,0.001000,0.001000,0.001000,0.001000
1030.230769,0.013637,0.001000,0.001000,0.001000,0.001000,0.001000
1030.250000,0.014741,0.001000,0.001000,0.001000,0.001000,0.001000
1030.269231,0.015837,0.001000,0.001000,0.001000,0.001000,0.001000
1030.288462,0.016924,0.001000,0.001000,0.001000,0.001000,0.001000
1030.307692,0.018003,0.001000,0.001000,0.001000,0.001000,0.001000
1030.326923,0.019072,0.001000,0.001000,0.001000,0.001000,0.001000
1030.346154,0.020131,0.001000,0.001000,0.001000,0.001000,0.001000
1030.365385,0.021179,0.001000,0.001000,0.001000,0.001000,0.001000
1030.384615,0.022216,0.001000,0.001000,0.001000,0.001000,0.001000
1030.403846,0.023241,0.001000,0.001000,0.001000,0.001000,0.001000
1030.423077,0.024254,0.001000,0.001000,0.001000,0.001000,0.001000
1030.442308,0.025254,0.001000,0.001000,0.001000,0.001000,0.001000
1030.461538,0.026240,0.001000,0.001000,0.001000,0.001000,0.001000
1030.480769,0.027213,0.001000,0.001000,0.001000,0.001000,0.001000
1030.500000,0.028171,0.001000,0.001000,0.001000,0.001000,0.001000
1030.519231,0.029115,0.001000,0.001000,0.001000,0.001000,0.001000
1030.538462,0.030043,0.001000,0.001000,0.001000,0.001000,0.001000
1030.557692,0.030955,0.001000,0.001000,0.001000,0.001000,0.001000
1030.576923,0.031851,0.001000,0.001000,0.001000,0.001000,0.001000
1030.596154,0.032729,0.001000,0.001000,0.001000,0.001000,0.001000
1030.615385,0.033591,0.001000,0.001000,0.001000,0.001000,0.001000
1030.634615,0.034434,0.001000,0.001000,0.001000,0.001000,0.001000
1030.653846,0.035260,0.001000,0.001000,0.001000,0.001000,0.001000
1030.673077,0.036066,0.001000,0.001000,0.001000,0.001000,0.001000
1030.692308,0.036854,0.001000,0.001000,0.001000,0.001000,0.001000
1030.711538,0.037622,0.001000,0.001000,0.001000,0.001000,0.001000
1030.730769,0.038370,0.001000,0.001000,0.001000,0.001000,0.001000
1030.750000,0.039098,0.001000,0.001000,0.001000,0.001000,0.001000
1030.769231,0.039805,0.001000,0.001000,0.001000,0.001000,0.001000
1030.788462,0.040491,0.001000,0.001000,0.001000,0.001000,0.001000
1030.807692,0.041155,0.001000,0.001000,0.001000,0.001000,0.001000
1030.826923,0.041798,0.001000,0.001000,0.001000,0.001000,0.001000
1030.846154,0.042419,0.001000,0.001000,0.001000,0.001000,0.001000
1030.865385,0.043017,0.001000,0.001000,0.001000,0.001000,0.001000
1030.884615,0.043592,0.001000,0.001000,0.001000,0.001000,0.001000
1030.903846,0.044144,0.001000,0.001000,0.001000,0.001000,0.001000
1030.923077,0.044673,0.001000,0.001000,0.001000,0.001000,0.001000
1030.942308,0.045178,0.001000,0.001000,0.001000,0.001000,0.001000
1030.961538,0.045659,0.001000,0.001000,0.001000,0.001000,0.001000
1030.980769,0.046116,0.001000,0.001000,0.001000,0.001000,0.001000
1031.000000,0.046549,0.001000,0.001000,0.001000,0.001000,0.001000
1031.019231,0.046956,0.001000,0.001000,0.001000,0.001000,0.001000
1031.038462,0.047339,0.001000,0.001000,0.001000,0.001000,0.001000
1031.057692,0.047697,0.001000,0.001000,0.001000,0.001000,0.001000
1031.076923,0.048030,0.001000,0.001000,0.001000,0.001000,0.001000
1031.096154,0.048337,0.001000,0.001000,0.001000,0.001000,0.001000
1031.115385,0.048619,0.001000,0.001000,0.001000,0.001000,0.001000
1031.134615,0.048874,0.001000,0.001000,0.001000,0.001000,0.001000
1031.153846,0.049104,0.001000,0.001000,0.001000,0.001000,0.001000
1031.173077,0.049308,0.001000,0.001000,0.001000,0.001000,0.001000
1031.192308,0.049486,0.001000,0.001000,0.001000,0.001000,0.001000
1031.211538,0.049637,0.001000,0.001000,0.001000,0.001000,0.001000
1031.230769,0.049763,0.001000,0.001000,0.001000,0.001000,0.001000
1031.250000,0.049861,0.001000,0.001000,0.001000,0.001000,0.001000
1031.269231,0.049934,0.001000,0.001000,0.001000,0.001000,0.001000
1031.288462,0.049980,0.001000,0.001000,0.001000,0.001000,0.001000
1031.307692,0.049999,0.001000,0.001000,0.001000,0.001000,0.001000
1031.326923,0.049992,0.001000,0.001000,0.001000,0.001000,0.001000
1031.346154,0.049959,0.001000,0.001000,0.001000,0.001000,0.001000
1031.365385,0.049899,0.001000,0.001000,0.001000,0.001000,0.001000
1031.384615,0.049812,0.001000,0.001000,0.001000,0.001000,0.001000
1031.403846,0.049699,0.001000,0.001000,0.001000,0.001000,0.001000
1031.423077,0.049560,0.001000,0.001000,0.001000,0.001000,0.001000
1031.442308,0.049395,0.001000,0.001000,0.001000,0.001000,0.001000
1031.461538,0.049203,0.001000,0.001000,0.001000,0.001000,0.001000
1031.480769,0.048986,0.001000,0.001000,0.001000,0.001000,0.001000
1031.500000,0.048742,0.001000,0.001000,0.001000,0.001000,0.001000
1031.519231,0.048472,0.001000,0.001000,0.001000,0.001000,0.001000
1031.538462,0.048177,0.001000,0.001000,0.001000,0.001000,0.001000
1031.557692,0.047857,0.001000,0.001000,0.001000,0.001000,0.001000
1031.576923,0.047511,0.001000,0.001000,0.001000,0.001000,0.001000
1031.596154,0.047139,0.001000,0.001000,0.001000,0.001000,0.001000
1031.615385,0.046743,0.001000,0.001000,0.001000,0.001000,0.001000
1031.634615,0.046322,0.001000,0.001000,0.001000,0.001000,0.001000
1031.653846,0.045877,0.001000,0.001000,0.001000,0.001000,0.001000
1031.673077,0.045407,0.001000,0.001000,0.001000,0.001000,0.001000
1031.692308,0.044913,0.001000,0.001000,0.001000,0.001000,0.001000
1031.711538,0.044395,0.001000,0.001000,0.001000,0.001000,0.001000
1031.730769,0.043854,0.001000,0.001000,0.001000,0.001000,0.001000
1031.750000,0.043290,0.001000,0.001000,0.001000,0.001000,0.001000
1031.769231,0.042702,0.001000,0.001000,0.001000,0.001000,0.001000
1031.788462,0.042092,0.001000,0.001000,0.001000,0.001000,0.001000
1031.807692,0.041460,0.001000,0.001000,0.001000,0.001000,0.001000
1031.826923,0.040806,0.001000,0.001000,0.001000,0.001000,0.001000
1031.846154,0.040130,0.001000,0.001000,0.001000,0.001000,0.001000
1031.865385,0.039432,0.001000,0.001000,0.001000,0.001000,0.001000
1031.884615,0.038714,0.001000,0.001000,0.001000,0.001000,0.001000
1031.903846,0.037976,0.001000,0.001000,0.001000,0.001000,0.001000
1031.923077,0.037217,0.001000,0.001000,0.001000,0.001000,0.001000
1031.942308,0.036439,0.001000,0.001000,0.001000,0.001000,0.001000
1031.961538,0.035641,0.001000,0.001000,0.001000,0.001000,0.001000
1031.980769,0.034824,0.001000,0.001000,0.001000,0.001000,0.001000
1032.000000,0.033989,0.001000,0.001000,0.001000,0.001000,0.001000
1032.019231,0.033136,0.001000,0.001000,0.001000,0.001000,0.001000
1032.038462,0.032265,0.001000,0.001000,0.001000,0.001000,0.001000
1032.057692,0.031378,0.001000,0.001000,0.001000,0.001000,0.001000
1032.076923,0.030473,0.001000,0.001000,0.001000,0.001000,0.001000
1032.096154,0.029553,0.001000,0.001000,0.001000,0.001000,0.001000
1032.115385,0.028616,0.001000,0.001000,0.001000,0.001000,0.001000
1032.134615,0.027665,0.001000,0.001000,0.001000,0.001000,0.001000
1032.153846,0.026699,0.001000,0.001000,0.001000,0.001000,0.001000
1032.173077,0.025719,0.001000,0.001000,0.001000,0.001000,0.001000
1032.192308,0.024725,0.001000,0.001000,0.001000,0.001000,0.001000
1032.211538,0.023718,0.001000,0.001000,0.001000,0.001000,0.001000
1032.230769,0.022699,0.001000,0.001000,0.001000,0.001000,0.001000
1032.250000,0.021667,0.001000,0.001000,0.001000,0.001000,0.001000
1032.269231,0.020624,0.001000,0.001000,0.001000,0.001000,0.001000
1032.288462,0.019570,0.001000,0.001000,0.001000,0.001000,0.001000
1032.307692,0.018506,0.001000,0.001000,0.001000,0.001000,0.001000
1032.326923,0.017432,0.001000,0.001000,0.001000,0.001000,0.001000
1032.346154,0.016349,0.001000,0.001000,0.001000,0.001000,0.001000
1032.365385,0.015257,0.001000,0.001000,0.001000,0.001000,0.001000
1032.384615,0.014157,0.001000,0.001000,0.001000,0.001000,0.001000
1032.403846,0.013049,0.001000,0.001000,0.001000,0.001000,0.001000
1032.423077,0.011935,0.001000,0.001000,0.001000,0.001000,0.001000
1032.442308,0.010814,0.001000,0.001000,0.001000,0.001000,0.001000
1032.461538,0.009687,0.001000,0.001000,0.001000,0.001000,0.001000
1032.480769,0.008555,0.001000,0.001000,0.001000,0.001000,0.001000
1032.500000,0.007419,0.001000,0.001000,0.001000,0.001000,0.001000
1032.519231,0.006279,0.001000,0.001000,0.001000,0.001000,0.001000
1032.538462,0.005136,0.001000,0.001000,0.001000,0.001000,0.001000
1032.557692,0.003989,0.001000,0.001000,0.001000,0.001000,0.001000
1032.576923,0.002841,0.001000,0.001000,0.001000,0.001000,0.001000
1032.596154,0.001691,0.001000,0.001000,0.001000,0.001000,0.001000
1032.615385,0.000541,0.001000,0.001000,0.001000,0.001000,0.001000
1032.634615,-0.000610,0.001000,0.001000,0.001000,0.001000,0.001000
1032.653846,-0.001761,0.001000,0.001000,0.001000,0.001000,0.001000
1032.673077,-0.002911,0.001000,0.001000,0.001000,0.001000,0.001000
1032.692308,-0.004059,0.001000,0.001000,0.001000,0.001000,0.001000
1032.711538,-0.005205,0.001000,0.001000,0.001000,0.001000,0.001000
1032.730769,-0.006348,0.001000,0.001000,0.001000,0.001000,0.001000
1032.750000,-0.007488,0.001000,0.001000,0.001000,0.001000,0.001000
1032.769231,-0.008624,0.001000,0.001000,0.001000,0.001000,0.001000
1032.788462,-0.009756,0.001000,0.001000,0.001000,0.001000,0.001000
1032.807692,-0.010882,0.001000,0.001000,0.001000,0.001000,0.001000
1032.826923,-0.012002,0.001000,0.001000,0.001000,0.001000,0.001000
1032.846154,-0.013116,0.001000,0.001000,0.001000,0.001000,0.001000
1032.865385,-0.014223,0.001000,0.001000,0.001000,0.001000,0.001000
1032.884615,-0.015323,0.001000,0.001000,0.001000,0.001000,0.001000
1032.903846,-0.016415,0.001000,0.001000,0.001000,0.001000,0.001000
1032.923077,-0.017497,0.001000,0.001000,0.001000,0.001000,0.001000
1032.942308,-0.018571,0.001000,0.001000,0.001000,0.001000,0.001000
1032.961538,-0.019635,0.001000,0.001000,0.001000,0.001000,0.001000
1032.980769,-0.020688,0.001000,0.001000,0.001000,0.001000,0.001000
1033.000000,-0.021730,0.001000,0.001000,0.001000,0.001000,0.001000
1033.019231,-0.022761,0.001000,0.001000,0.001000,0.001000,0.001000
1033.038462,-0.023780,0.001000,0.001000,0.001000,0.001000,0.001000
1033.057692,-0.024786,0.001000,0.001000,0.001000,0.001000,0.001000
1033.076923,-0.025779,0.001000,0.001000,0.001000,0.001000,0.001000
1033.096154,-0.026758,0.001000,0.001000,0.001000,0.001000,0.001000
1033.115385,-0.027723,0.001000,0.001000,0.001000,0.001000,0.001000
1033.134615,-0.028674,0.001000,0.001000,0.001000,0.001000,0.001000
1033.153846,-0.029609,0.001000,0.001000,0.001000,0.001000,0.001000
1033.173077,-0.030529,0.001000,0.001000,0.001000,0.001000,0.001000
1033.192308,-0.031432,0.001000,0.001000,0.001000,0.001000,0.001000
1033.211538,-0.032319,0.001000,0.001000,0.001000,0.001000,0.001000
1033.230769,-0.033188,0.001000,0.001000,0.001000,0.001000,0.001000
1033.250000,-0.034040,0.001000,0.001000,0.001000,0.001000,0.001000
1033.269231,-0.034874,0.001000,0.001000,0.001000,0.001000,0.001000
1033.288462,-0.035690,0.001000,0.001000,0.001000,0.001000,0.001000
1033.307692,-0.036486,0.001000,0.001000,0.001000,0.001000,0.001000
1033.326923,-0.037264,0.001000,0.001000,0.001000,0.001000,0.001000
1033.346154,-0.038021,0.001000,0.001000,0.001000,0.001000,0.001000
1033.365385,-0.038759,0.001000,0.001000,0.001000,0.001000,0.001000
1033.384615,-0.039475,0.001000,0.001000,0.001000,0.001000,0.001000
1033.403846,-0.040171,0.001000,0.001000,0.001000,0.001000,0.001000
1033.423077,-0.040846,0.001000,0.001000,0.001000,0.001000,0.001000
1033.442308,-0.041499,0.001000,0.001000,0.001000,0.001000,0.001000
1033.461538,-0.042130,0.001000,0.001000,0.001000,0.001000,0.001000
1033.480769,-0.042739,0.001000,0.001000,0.001000,0.001000,0.001000
1033.500000,-0.043325,0.001000,0.001000,0.001000,0.001000,0.001000
1033.519231,-0.043888,0.001000,0.001000,0.001000,0.001000,0.001000
1033.538462,-0.044427,0.001000,0.001000,0.001000,0.001000,0.001000
1033.557692,-0.044944,0.001000,0.001000,0.001000,0.001000,0.001000
1033.576923,-0.045436,0.001000,0.001000,0.001000,0.001000,0.001000
1033.596154,-0.045904,0.001000,0.001000,0.001000,0.001000,0.001000
1033.615385,-0.046348,0.001000,0.001000,0.001000,0.001000,0.001000
1033.634615,-0.046768,0.001000,0.001000,0.001000,0.001000,0.001000
1033.653846,-0.047163,0.001000,0.001000,0.001000,0.001000,0.001000
1033.673077,-0.047532,0.001000,0.001000,0.001000,0.001000,0.001000
1033.692308,-0.047877,0.001000,0.001000,0.001000,0.001000,0.001000
1033.711538,-0.048196,0.001000,0.001000,0.001000,0.001000,0.001000
1033.730769,-0.048490,0.001000,0.001000,0.001000,0.001000,0.001000
1033.750000,-0.048757,0.001000,0.001000,0.001000,0.001000,0.001000
1033.769231,-0.049000,0.001000,0.001000,0.001000,0.001000,0.001000
1033.788462,-0.049216,0.001000,0.001000,0.001000,0.001000,0.001000
1033.807692,-0.049406,0.001000,0.001000,0.001000,0.001000,0.001000
1033.826923,-0.049569,0.001000,0.001000,0.001000,0.001000,0.001000
1033.846154,-0.049707,0.001000,0.001000,0.001000,0.001000,0.001000
1033.865385,-0.049818,0.001000,0.001000,0.001000,0.001000,0.001000
1033.884615,-0.049903,0.001000,0.001000,0.001000,0.001000,0.001000
1033.903846,-0.049962,0.001000,0.001000,0.001000,0.001000,0.001000
1033.923077,-0.049993,0.001000,0.001000,0.001000,0.001000,0.001000
1033.942308,-0.049999,0.001000,0.001000,0.001000,0.001000,0.001000
1033.961538,-0.049978,0.001000,0.001000,0.001000,0.001000,0.001000
1033.980769,-0.049930,0.001000,0.001000,0.001000,0.001000,0.001000
1034.000000,-0.049856,0.001000,0.001000,0.001000,0.001000,0.001000
1034.019231,-0.049756,0.001000,0.001000,0.001000,0.001000,0.001000
1034.038462,-0.049629,0.001000,0.001000,0.001000,0.001000,0.001000
1034.057692,-0.049476,0.001000,0.001000,0.001000,0.001000,0.001000
1034.076923,-0.049297,0.001000,0.001000,0.001000,0.001000,0.001000
1034.096154,-0.049091,0.001000,0.001000,0.001000,0.001000,0.001000
1034.115385,-0.048860,0.001000,0.001000,0.001000,0.001000,0.001000
1034.134615,-0.048602,0.001000,0.001000,0.001000,0.001000,0.001000
1034.153846,-0.048319,0.001000,0.001000,0.001000,0.001000,0.001000
1034.173077,-0.048010,0.001000,0.001000,0.001000,0.001000,0.001000
1034.192308,-0.047676,0.001000,0.001000,0.001000,0.001000,0.001000
1034.211538,-0.047317,0.001000,0.001000,0.001000,0.001000,0.001000
1034.230769,-0.046932,0.001000,0.001000,0.001000,0.001000,0.001000
1034.250000,-0.046523,0.001000,0.001000,0.001000,0.001000,0.001000
1034.269231,-0.046089,0.001000,0.001000,0.001000,0.001000,0.001000
1034.288462,-0.045631,0.001000,0.001000,0.001000,0.001000,0.001000
1034.307692,-0.045148,0.001000,0.001000,0.001000,0.001000,0.001000
1034.326923,-0.044641,0.001000,0.001000,0.001000,0.001000,0.001000
1034.346154,-0.044111,0.001000,0.001000,0.001000,0.001000,0.001000
1034.365385,-0.043558,0.001000,0.001000,0.001000,0.001000,0.001000
1034.384615,-0.042981,0.001000,0.001000,0.001000,0.001000,0.001000
1034.403846,-0.042382,0.001000,0.001000,0.001000,0.001000,0.001000
1034.423077,-0.041760,0.001000,0.001000,0.001000,0.001000,0.001000
1034.442308,-0.041116,0.001000,0.001000,0.001000,0.001000,0.001000
1034.461538,-0.040450,0.001000,0.001000,0.001000,0.001000,0.001000
1034.480769,-0.039763,0.001000,0.001000,0.001000,0.001000,0.001000
1034.500000,-0.039054,0.001000,0.001000,0.001000,0.001000,0.001000
1034.519231,-0.038325,0.001000,0.001000,0.001000,0.001000,0.001000
1034.538462,-0.037576,0.001000,0.001000,0.001000,0.001000,0.001000
1034.557692,-0.036807,0.001000,0.001000,0.001000,0.001000,0.001000
1034.576923,-0.036018,0.001000,0.001000,0.001000,0.001000,0.001000
1034.596154,-0.035210,0.001000,0.001000,0.001000,0.001000,0.001000
1034.615385,-0.034384,0.001000,0.001000,0.001000,0.001000,0.001000
1034.634615,-0.033539,0.001000,0.001000,0.001000,0.001000,0.001000
1034.653846,-0.032676,0.001000,0.001000,0.001000,0.001000,0.001000
1034.673077,-0.031797,0.001000,0.001000,0.001000,0.001000,0.001000
