timestamp,ax,ay,az,gx,gy,gz
1000.000000,0.000000,0.001000,0.001000,0.001000,0.001000,0.001000
1000.019231,0.001058,0.001000,0.001000,0.001000,0.001000,0.001000
1000.038462,0.002115,0.001000,0.001000,0.001000,0.001000,0.001000
1000.057692,0.003171,0.001000,0.001000,0.001000,0.001000,0.001000
1000.076923,0.004225,0.001000,0.001000,0.001000,0.001000,0.001000
1000.096154,0.005278,0.001000,0.001000,0.001000,0.001000,0.001000
1000.115385,0.006329,0.001000,0.001000,0.001000,0.001000,0.001000
1000.134615,0.007376,0.001000,0.001000,0.001000,0.001000,0.001000
1000.153846,0.008420,0.001000,0.001000,0.001000,0.001000,0.001000
1000.173077,0.009461,0.001000,0.001000,0.001000,0.001000,0.001000
1000.192308,0.010497,0.001000,0.001000,0.001000,0.001000,0.001000
1000.211538,0.011529,0.001000,0.001000,0.001000,0.001000,0.001000
1000.230769,0.012555,0.001000,0.001000,0.001000,0.001000,0.001000
1000.250000,0.013576,0.001000,0.001000,0.001000,0.001000,0.001000
1000.269231,0.014591,0.001000,0.001000,0.001000,0.001000,0.001000
1000.288462,0.015599,0.001000,0.001000,0.001000,0.001000,0.001000
1000.307692,0.016600,0.001000,0.001000,0.001000,0.001000,0.001000
1000.326923,0.017594,0.001000,0.001000,0.001000,0.001000,0.001000
1000.346154,0.018580,0.001000,0.001000,0.001000,0.001000,0.001000
1000.365385,0.019558,0.001000,0.001000,0.001000,0.001000,0.001000
1000.384615,0.020527,0.001000,0.001000,0.001000,0.001000,0.001000
1000.403846,0.021486,0.001000,0.001000,0.001000,0.001000,0.001000
1000.423077,0.022437,0.001000,0.001000,0.001000,0.001000,0.001000
1000.442308,0.023377,0.001000,0.001000,0.001000,0.001000,0.001000
1000.461538,0.024306,0.001000,0.001000,0.001000,0.001000,0.001000
1000.480769,0.025225,0.001000,0.001000,0.001000,0.001000,0.001000
1000.500000,0.026132,0.001000,0.001000,0.001000,0.001000,0.001000
1000.519231,0.027028,0.001000,0.001000,0.001000,0.001000,0.001000
1000.538462,0.027912,0.001000,0.001000,0.001000,0.001000,0.001000
1000.557692,0.028783,0.001000,0.001000,0.001000,0.001000,0.001000
1000.576923,0.029641,0.001000,0.001000,0.001000,0.001000,0.001000
1000.596154,0.030486,0.001000,0.001000,0.001000,0.001000,0.001000
1000.615385,0.031318,0.001000,0.001000,0.001000,0.001000,0.001000
1000.634615,0.032135,0.001000,0.001000,0.001000,0.001000,0.001000
1000.653846,0.032938,0.001000,0.001000,0.001000,0.001000,0.001000
1000.673077,0.033726,0.001000,0.001000,0.001000,0.001000,0.001000
1000.692308,0.034499,0.001000,0.001000,0.001000,0.001000,0.001000
1000.711538,0.035257,0.001000,0.001000,0.001000,0.001000,0.001000
1000.730769,0.035999,0.001000,0.001000,0.001000,0.001000,0.001000
1000.750000,0.036725,0.001000,0.001000,0.001000,0.001000,0.001000
1000.769231,0.037434,0.001000,0.001000,0.001000,0.001000,0.001000
1000.788462,0.038127,0.001000,0.001000,0.001000,0.001000,0.001000
1000.807692,0.038803,0.001000,0.001000,0.001000,0.001000,0.001000
1000.826923,0.039461,0.001000,0.001000,0.001000,0.001000,0.001000
1000.846154,0.040102,0.001000,0.001000,0.001000,0.001000,0.001000
1000.865385,0.040724,0.001000,0.001000,0.001000,0.001000,0.001000
1000.884615,0.041329,0.001000,0.001000,0.001000,0.001000,0.001000
1000.903846,0.041915,0.001000,0.001000,0.001000,0.001000,0.001000
1000.923077,0.042482,0.001000,0.001000,0.001000,0.001000,0.001000
1000.942308,0.043030,0.001000,0.001000,0.001000,0.001000,0.001000
1000.961538,0.043559,0.001000,0.001000,0.001000,0.001000,0.001000
1000.980769,0.044068,0.001000,0.001000,0.001000,0.001000,0.001000
1001.000000,0.044558,0.001000,0.001000,0.001000,0.001000,0.001000
1001.019231,0.045028,0.001000,0.001000,0.001000,0.001000,0.001000
1001.038462,0.045478,0.001000,0.001000,0.001000,0.001000,0.001000
1001.057692,0.045907,0.001000,0.001000,0.001000,0.001000,0.001000
1001.076923,0.046316,0.001000,0.001000,0.001000,0.001000,0.001000
1001.096154,0.046704,0.001000,0.001000,0.001000,0.001000,0.001000
1001.115385,0.047071,0.001000,0.001000,0.001000,0.001000,0.001000
1001.134615,0.047417,0.001000,0.001000,0.001000,0.001000,0.001000
1001.153846,0.047742,0.001000,0.001000,0.001000,0.001000,0.001000
1001.173077,0.048046,0.001000,0.001000,0.001000,0.001000,0.001000
1001.192308,0.048328,0.001000,0.001000,0.001000,0.001000,0.001000
1001.211538,0.048588,0.001000,0.001000,0.001000,0.001000,0.001000
1001.230769,0.048827,0.001000,0.001000,0.001000,0.001000,0.001000
1001.250000,0.049043,0.001000,0.001000,0.001000,0.001000,0.001000
1001.269231,0.049238,0.001000,0.001000,0.001000,0.001000,0.001000
1001.288462,0.049411,0.001000,0.001000,0.001000,0.001000,0.001000
1001.307692,0.049562,0.001000,0.001000,0.001000,0.001000,0.001000
1001.326923,0.049691,0.001000,0.001000,0.001000,0.001000,0.001000
1001.346154,0.049797,0.001000,0.001000,0.001000,0.001000,0.001000
1001.365385,0.049881,0.001000,0.001000,0.001000,0.001000,0.001000
1001.384615,0.049943,0.001000,0.001000,0.001000,0.001000,0.001000
1001.403846,0.049982,0.001000,0.001000,0.001000,0.001000,0.001000
1001.423077,0.049999,0.001000,0.001000,0.001000,0.001000,0.001000
1001.442308,0.049994,0.001000,0.001000,0.001000,0.001000,0.001000
1001.461538,0.049966,0.001000,0.001000,0.001000,0.001000,0.001000
1001.480769,0.049916,0.001000,0.001000,0.001000,0.001000,0.001000
1001.500000,0.049844,0.001000,0.001000,0.001000,0.001000,0.001000
1001.519231,0.049749,0.001000,0.001000,0.001000,0.001000,0.001000
1001.538462,0.049632,0.001000,0.001000,0.001000,0.001000,0.001000
1001.557692,0.049493,0.001000,0.001000,0.001000,0.001000,0.001000
1001.576923,0.049332,0.001000,0.001000,0.001000,0.001000,0.001000
1001.596154,0.049148,0.001000,0.001000,0.001000,0.001000,0.001000
1001.615385,0.048943,0.001000,0.001000,0.001000,0.001000,0.001000
1001.634615,0.048716,0.001000,0.001000,0.001000,0.001000,0.001000
1001.653846,0.048467,0.001000,0.001000,0.001000,0.001000,0.001000
1001.673077,0.048196,0.001000,0.001000,0.001000,0.001000,0.001000
1001.692308,0.047904,0.001000,0.001000,0.001000,0.001000,0.001000
1001.711538,0.047590,0.001000,0.001000,0.001000,0.001000,0.001000
1001.730769,0.047255,0.001000,0.001000,0.001000,0.001000,0.001000
1001.750000,0.046899,0.001000,0.001000,0.001000,0.001000,0.001000
1001.769231,0.046522,0.001000,0.001000,0.001000,0.001000,0.001000
1001.788462,0.046124,0.001000,0.001000,0.001000,0.001000,0.001000
1001.807692,0.045705,0.001000,0.001000,0.001000,0.001000,0.001000
1001.826923,0.045266,0.001000,0.001000,0.001000,0.001000,0.001000
1001.846154,0.044807,0.001000,0.001000,0.001000,0.001000,0.001000
1001.865385,0.044328,0.001000,0.001000,0.001000,0.001000,0.001000
1001.884615,0.043829,0.001000,0.001000,0.001000,0.001000,0.001000
1001.903846,0.043310,0.001000,0.001000,0.001000,0.001000,0.001000
1001.923077,0.042772,0.001000,0.001000,0.001000,0.001000,0.001000
1001.942308,0.042215,0.001000,0.001000,0.001000,0.001000,0.001000
1001.961538,0.041638,0.001000,0.001000,0.001000,0.001000,0.001000
1001.980769,0.041044,0.001000,0.001000,0.001000,0.001000,0.001000
1002.000000,0.040430,0.001000,0.001000,0.001000,0.001000,0.001000
1002.019231,0.039799,0.001000,0.001000,0.001000,0.001000,0.001000
1002.038462,0.039150,0.001000,0.001000,0.001000,0.001000,0.001000
1002.057692,0.038484,0.001000,0.001000,0.001000,0.001000,0.001000
1002.076923,0.037800,0.001000,0.001000,0.001000,0.001000,0.001000
1002.096154,0.037099,0.001000,0.001000,0.001000,0.001000,0.001000
1002.115385,0.036382,0.001000,0.001000,0.001000,0.001000,0.001000
1002.134615,0.035648,0.001000,0.001000,0.001000,0.001000,0.001000
1002.153846,0.034899,0.001000,0.001000,0.001000,0.001000,0.001000
1002.173077,0.034134,0.001000,0.001000,0.001000,0.001000,0.001000
1002.192308,0.033353,0.001000,0.001000,0.001000,0.001000,0.001000
1002.211538,0.032558,0.001000,0.001000,0.001000,0.001000,0.001000
1002.230769,0.031748,0.001000,0.001000,0.001000,0.001000,0.001000
1002.250000,0.030924,0.001000,0.001000,0.001000,0.001000,0.001000
1002.269231,0.030086,0.001000,0.001000,0.001000,0.001000,0.001000
1002.288462,0.029235,0.001000,0.001000,0.001000,0.001000,0.001000
1002.307692,0.028370,0.001000,0.001000,0.001000,0.001000,0.001000
1002.326923,0.027493,0.001000,0.001000,0.001000,0.001000,0.001000
1002.346154,0.026604,0.001000,0.001000,0.001000,0.001000,0.001000
1002.365385,0.025702,0.001000,0.001000,0.001000,0.001000,0.001000
1002.384615,0.024790,0.001000,0.001000,0.001000,0.001000,0.001000
1002.403846,0.023866,0.001000,0.001000,0.001000,0.001000,0.001000
1002.423077,0.022931,0.001000,0.001000,0.001000,0.001000,0.001000
1002.442308,0.021986,0.001000,0.001000,0.001000,0.001000,0.001000
1002.461538,0.021031,0.001000,0.001000,0.001000,0.001000,0.001000
1002.480769,0.020067,0.001000,0.001000,0.001000,0.001000,0.001000
1002.500000,0.019094,0.001000,0.001000,0.001000,0.001000,0.001000
1002.519231,0.018113,0.001000,0.001000,0.001000,0.001000,0.001000
1002.538462,0.017123,0.001000,0.001000,0.001000,0.001000,0.001000
1002.557692,0.016125,0.001000,0.001000,0.001000,0.001000,0.001000
1002.576923,0.015121,0.001000,0.001000,0.001000,0.001000,0.001000
1002.596154,0.014109,0.001000,0.001000,0.001000,0.001000,0.001000
1002.615385,0.013092,0.001000,0.001000,0.001000,0.001000,0.001000
1002.634615,0.012068,0.001000,0.001000,0.001000,0.001000,0.001000
1002.653846,0.011039,0.001000,0.001000,0.001000,0.001000,0.001000
1002.673077,0.010005,0.001000,0.001000,0.001000,0.001000,0.001000
1002.692308,0.008967,0.001000,0.001000,0.001000,0.001000,0.001000
1002.711538,0.007925,0.001000,0.001000,0.001000,0.001000,0.001000
1002.730769,0.006879,0.001000,0.001000,0.001000,0.001000,0.001000
1002.750000,0.005830,0.001000,0.001000,0.001000,0.001000,0.001000
1002.769231,0.004778,0.001000,0.001000,0.001000,0.001000,0.001000
1002.788462,0.003724,0.001000,0.001000,0.001000,0.001000,0.001000
1002.807692,0.002669,0.001000,0.001000,0.001000,0.001000,0.001000
1002.826923,0.001612,0.001000,0.001000,0.001000,0.001000,0.001000
1002.846154,0.000555,0.001000,0.001000,0.001000,0.001000,0.001000
1002.865385,-0.000503,0.001000,0.001000,0.001000,0.001000,0.001000
1002.884615,-0.001560,0.001000,0.001000,0.001000,0.001000,0.001000
1002.903846,-0.002617,0.001000,0.001000,0.001000,0.001000,0.001000
1002.923077,-0.003672,0.001000,0.001000,0.001000,0.001000,0.001000
1002.942308,-0.004726,0.001000,0.001000,0.001000,0.001000,0.001000
1002.961538,-0.005778,0.001000,0.001000,0.001000,0.001000,0.001000
1002.980769,-0.006827,0.001000,0.001000,0.001000,0.001000,0.001000
1003.000000,-0.007873,0.001000,0.001000,0.001000,0.001000,0.001000
1003.019231,-0.008916,0.001000,0.001000,0.001000,0.001000,0.001000
1003.038462,-0.009954,0.001000,0.001000,0.001000,0.001000,0.001000
1003.057692,-0.010988,0.001000,0.001000,0.001000,0.001000,0.001000
1003.076923,-0.012017,0.001000,0.001000,0.001000,0.001000,0.001000
1003.096154,-0.013041,0.001000,0.001000,0.001000,0.001000,0.001000
1003.115385,-0.014059,0.001000,0.001000,0.001000,0.001000,0.001000
1003.134615,-0.015071,0.001000,0.001000,0.001000,0.001000,0.001000
1003.153846,-0.016076,0.001000,0.001000,0.001000,0.001000,0.001000
1003.173077,-0.017074,0.001000,0.001000,0.001000,0.001000,0.001000
1003.192308,-0.018064,0.001000,0.001000,0.001000,0.001000,0.001000
1003.211538,-0.019046,0.001000,0.001000,0.001000,0.001000,0.001000
1003.230769,-0.020019,0.001000,0.001000,0.001000,0.001000,0.001000
1003.250000,-0.020984,0.001000,0.001000,0.001000,0.001000,0.001000
1003.269231,-0.021939,0.001000,0.001000,0.001000,0.001000,0.001000
1003.288462,-0.022885,0.001000,0.001000,0.001000,0.001000,0.001000
1003.307692,-0.023820,0.001000,0.001000,0.001000,0.001000,0.001000
1003.326923,-0.024744,0.001000,0.001000,0.001000,0.001000,0.001000
1003.346154,-0.025658,0.001000,0.001000,0.001000,0.001000,0.001000
1003.365385,-0.026560,0.001000,0.001000,0.001000,0.001000,0.001000
1003.384615,-0.027450,0.001000,0.001000,0.001000,0.001000,0.001000
1003.403846,-0.028327,0.001000,0.001000,0.001000,0.001000,0.001000
1003.423077,-0.029192,0.001000,0.001000,0.001000,0.001000,0.001000
1003.442308,-0.030045,0.001000,0.001000,0.001000,0.001000,0.001000
1003.461538,-0.030883,0.001000,0.001000,0.001000,0.001000,0.001000
1003.480769,-0.031708,0.001000,0.001000,0.001000,0.001000,0.001000
1003.500000,-0.032518,0.001000,0.001000,0.001000,0.001000,0.001000
1003.519231,-0.033314,0.001000,0.001000,0.001000,0.001000,0.001000
1003.538462,-0.034096,0.001000,0.001000,0.001000,0.001000,0.001000
1003.557692,-0.034862,0.001000,0.001000,0.001000,0.001000,0.001000
1003.576923,-0.035612,0.001000,0.001000,0.001000,0.001000,0.001000
1003.596154,-0.036346,0.001000,0.001000,0.001000,0.001000,0.001000
1003.615385,-0.037064,0.001000,0.001000,0.001000,0.001000,0.001000
1003.634615,-0.037766,0.001000,0.001000,0.001000,0.001000,0.001000
1003.653846,-0.038450,0.001000,0.001000,0.001000,0.001000,0.001000
1003.673077,-0.039118,0.001000,0.001000,0.001000,0.001000,0.001000
1003.692308,-0.039768,0.001000,0.001000,0.001000,0.001000,0.001000
1003.711538,-0.040400,0.001000,0.001000,0.001000,0.001000,0.001000
1003.730769,-0.041014,0.001000,0.001000,0.001000,0.001000,0.001000
1003.750000,-0.041610,0.001000,0.001000,0.001000,0.001000,0.001000
1003.769231,-0.042187,0.001000,0.001000,0.001000,0.001000,0.001000
1003.788462,-0.042745,0.001000,0.001000,0.001000,0.001000,0.001000
1003.807692,-0.043284,0.001000,0.001000,0.001000,0.001000,0.001000
1003.826923,-0.043804,0.001000,0.001000,0.001000,0.001000,0.001000
1003.846154,-0.044304,0.001000,0.001000,0.001000,0.001000,0.001000
1003.865385,-0.044784,0.001000,0.001000,0.001000,0.001000,0.001000
1003.884615,-0.045244,0.001000,0.001000,0.001000,0.001000,0.001000
1003.903846,-0.045684,0.001000,0.001000,0.001000,0.001000,0.001000
1003.923077,-0.046104,0.001000,0.001000,0.001000,0.001000,0.001000
1003.942308,-0.046503,0.001000,0.001000,0.001000,0.001000,0.001000
1003.961538,-0.046881,0.001000,0.001000,0.001000,0.001000,0.001000
1003.980769,-0.047238,0.001000,0.001000,0.001000,0.001000,0.001000
1004.000000,-0.047574,0.001000,0.001000,0.001000,0.001000,0.001000
1004.019231,-0.047889,0.001000,0.001000,0.001000,0.001000,0.001000
1004.038462,-0.048182,0.001000,0.001000,0.001000,0.001000,0.001000
1004.057692,-0.048454,0.001000,0.001000,0.001000,0.001000,0.001000
1004.076923,-0.048704,0.001000,0.001000,0.001000,0.001000,0.001000
1004.096154,-0.048932,0.001000,0.001000,0.001000,0.001000,0.001000
1004.115385,-0.049139,0.001000,0.001000,0.001000,0.001000,0.001000
1004.134615,-0.049323,0.001000,0.001000,0.001000,0.001000,0.001000
1004.153846,-0.049486,0.001000,0.001000,0.001000,0.001000,0.001000
1004.173077,-0.049626,0.001000,0.001000,0.001000,0.001000,0.001000
1004.192308,-0.049744,0.001000,0.001000,0.001000,0.001000,0.001000
1004.211538,-0.049840,0.001000,0.001000,0.001000,0.001000,0.001000
1004.230769,-0.049913,0.001000,0.001000,0.001000,0.001000,0.001000
1004.250000,-0.049964,0.001000,0.001000,0.001000,0.001000,0.001000
1004.269231,-0.049993,0.001000,0.001000,0.001000,0.001000,0.001000
1004.288462,-0.049999,0.001000,0.001000,0.001000,0.001000,0.001000
1004.307692,-0.049984,0.001000,0.001000,0.001000,0.001000,0.001000
1004.326923,-0.049945,0.001000,0.001000,0.001000,0.001000,0.001000
1004.346154,-0.049885,0.001000,0.001000,0.001000,0.001000,0.001000
1004.365385,-0.049802,0.001000,0.001000,0.001000,0.001000,0.001000
1004.384615,-0.049696,0.001000,0.001000,0.001000,0.001000,0.001000
1004.403846,-0.049569,0.001000,0.001000,0.001000,0.001000,0.001000
1004.423077,-0.049419,0.001000,0.001000,0.001000,0.001000,0.001000
1004.442308,-0.049247,0.001000,0.001000,0.001000,0.001000,0.001000
1004.461538,-0.049054,0.001000,0.001000,0.001000,0.001000,0.001000
1004.480769,-0.048838,0.001000,0.001000,0.001000,0.001000,0.001000
1004.500000,-0.048600,0.001000,0.001000,0.001000,0.001000,0.001000
1004.519231,-0.048341,0.001000,0.001000,0.001000,0.001000,0.001000
1004.538462,-0.048060,0.001000,0.001000,0.001000,0.001000,0.001000
1004.557692,-0.047757,0.001000,0.001000,0.001000,0.001000,0.001000
1004.576923,-0.047434,0.001000,0.001000,0.001000,0.001000,0.001000
1004.596154,-0.047089,0.001000,0.001000,0.001000,0.001000,0.001000
1004.615385,-0.046722,0.001000,0.001000,0.001000,0.001000,0.001000
1004.634615,-0.046335,0.001000,0.001000,0.001000,0.001000,0.001000
1004.653846,-0.045928,0.001000,0.001000,0.001000,0.001000,0.001000
1004.673077,-0.045499,0.001000,0.001000,0.001000,0.001000,0.001000
1004.692308,-0.045051,0.001000,0.001000,0.001000,0.001000,0.001000
1004.711538,-0.044582,0.001000,0.001000,0.001000,0.001000,0.001000
1004.730769,-0.044093,0.001000,0.001000,0.001000,0.001000,0.001000
1004.750000,-0.043585,0.001000,0.001000,0.001000,0.001000,0.001000
1004.769231,-0.043057,0.001000,0.001000,0.001000,0.001000,0.001000
1004.788462,-0.042509,0.001000,0.001000,0.001000,0.001000,0.001000
1004.807692,-0.041943,0.001000,0.001000,0.001000,0.001000,0.001000
1004.826923,-0.041358,0.001000,0.001000,0.001000,0.001000,0.001000
1004.846154,-0.040754,0.001000,0.001000,0.001000,0.001000,0.001000
1004.865385,-0.040133,0.001000,0.001000,0.001000,0.001000,0.001000
1004.884615,-0.039493,0.001000,0.001000,0.001000,0.001000,0.001000
1004.903846,-0.038836,0.001000,0.001000,0.001000,0.001000,0.001000
1004.923077,-0.038161,0.001000,0.001000,0.001000,0.001000,0.001000
1004.942308,-0.037469,0.001000,0.001000,0.001000,0.001000,0.001000
1004.961538,-0.036760,0.001000,0.001000,0.001000,0.001000,0.001000
1004.980769,-0.036035,0.001000,0.001000,0.001000,0.001000,0.001000
1005.000000,-0.035294,0.001000,0.001000,0.001000,0.001000,0.001000
1005.019231,-0.034537,0.001000,0.001000,0.001000,0.001000,0.001000
1005.038462,-0.033765,0.001000,0.001000,0.001000,0.001000,0.001000
1005.057692,-0.032977,0.001000,0.001000,0.001000,0.001000,0.001000
1005.076923,-0.032175,0.001000,0.001000,0.001000,0.001000,0.001000
1005.096154,-0.031358,0.001000,0.001000,0.001000,0.001000,0.001000
1005.115385,-0.030528,0.001000,0.001000,0.001000,0.001000,0.001000
1005.134615,-0.029683,0.001000,0.001000,0.001000,0.001000,0.001000
1005.153846,-0.028826,0.001000,0.001000,0.001000,0.001000,0.001000
1005.173077,-0.027955,0.001000,0.001000,0.001000,0.001000,0.001000
1005.192308,-0.027072,0.001000,0.001000,0.001000,0.001000,0.001000
1005.211538,-0.026177,0.001000,0.001000,0.001000,0.001000,0.001000
1005.230769,-0.025270,0.001000,0.001000,0.001000,0.001000,0.001000
1005.250000,-0.024352,0.001000,0.001000,0.001000,0.001000,0.001000
1005.269231,-0.023423,0.001000,0.001000,0.001000,0.001000,0.001000
1005.288462,-0.022483,0.001000,0.001000,0.001000,0.001000,0.001000
1005.307692,-0.021534,0.001000,0.001000,0.001000,0.001000,0.001000
1005.326923,-0.020574,0.001000,0.001000,0.001000,0.001000,0.001000
1005.346154,-0.019606,0.001000,0.001000,0.001000,0.001000,0.001000
1005.365385,-0.018629,0.001000,0.001000,0.001000,0.001000,0.001000
1005.384615,-0.017643,0.001000,0.001000,0.001000,0.001000,0.001000
1005.403846,-0.016650,0.001000,0.001000,0.001000,0.001000,0.001000
1005.423077,-0.015649,0.001000,0.001000,0.001000,0.001000,0.001000
1005.442308,-0.014641,0.001000,0.001000,0.001000,0.001000,0.001000
1005.461538,-0.013626,0.001000,0.001000,0.001000,0.001000,0.001000
1005.480769,-0.012606,0.001000,0.001000,0.001000,0.001000,0.001000
1005.500000,-0.011580,0.001000,0.001000,0.001000,0.001000,0.001000
1005.519231,-0.010548,0.001000,0.001000,0.001000,0.001000,0.001000
1005.538462,-0.009512,0.001000,0.001000,0.001000,0.001000,0.001000
1005.557692,-0.008472,0.001000,0.001000,0.001000,0.001000,0.001000
1005.576923,-0.007428,0.001000,0.001000,0.001000,0.001000,0.001000
1005.596154,-0.006380,0.001000,0.001000,0.001000,0.001000,0.001000
1005.615385,-0.005330,0.001000,0.001000,0.001000,0.001000,0.001000
1005.634615,-0.004277,0.001000,0.001000,0.001000,0.001000,0.001000
1005.653846,-0.003223,0.001000,0.001000,0.001000,0.001000,0.001000
1005.673077,-0.002167,0.001000,0.001000,0.001000,0.001000,0.001000
1005.692308,-0.001110,0.001000,0.001000,0.001000,0.001000,0.001000
1005.711538,-0.000052,0.001000,0.001000,0.001000,0.001000,0.001000
1005.730769,0.001005,0.001000,0.001000,0.001000,0.001000,0.001000
1005.750000,0.002062,0.001000,0.001000,0.001000,0.001000,0.001000
1005.769231,0.003119,0.001000,0.001000,0.001000,0.001000,0.001000
1005.788462,0.004173,0.001000,0.001000,0.001000,0.001000,0.001000
1005.807692,0.005226,0.001000,0.001000,0.001000,0.001000,0.001000
1005.826923,0.006277,0.001000,0.001000,0.001000,0.001000,0.001000
1005.846154,0.007325,0.001000,0.001000,0.001000,0.001000,0.001000
1005.865385,0.008369,0.001000,0.001000,0.001000,0.001000,0.001000
1005.884615,0.009410,0.001000,0.001000,0.001000,0.001000,0.001000
1005.903846,0.010446,0.001000,0.001000,0.001000,0.001000,0.001000
1005.923077,0.011478,0.001000,0.001000,0.001000,0.001000,0.001000
1005.942308,0.012505,0.001000,0.001000,0.001000,0.001000,0.001000
1005.961538,0.013526,0.001000,0.001000,0.001000,0.001000,0.001000
1005.980769,0.014541,0.001000,0.001000,0.001000,0.001000,0.001000
1006.000000,0.015550,0.001000,0.001000,0.001000,0.001000,0.001000
1006.019231,0.016551,0.001000,0.001000,0.001000,0.001000,0.001000
1006.038462,0.017545,0.001000,0.001000,0.001000,0.001000,0.001000
1006.057692,0.018532,0.001000,0.001000,0.001000,0.001000,0.001000
1006.076923,0.019510,0.001000,0.001000,0.001000,0.001000,0.001000
1006.096154,0.020479,0.001000,0.001000,0.001000,0.001000,0.001000
1006.115385,0.021439,0.001000,0.001000,0.001000,0.001000,0.001000
1006.134615,0.022390,0.001000,0.001000,0.001000,0.001000,0.001000
1006.153846,0.023330,0.001000,0.001000,0.001000,0.001000,0.001000
1006.173077,0.024261,0.001000,0.001000,0.001000,0.001000,0.001000
1006.192308,0.025180,0.001000,0.001000,0.001000,0.001000,0.001000
1006.211538,0.026088,0.001000,0.001000,0.001000,0.001000,0.001000
1006.230769,0.026984,0.001000,0.001000,0.001000,0.001000,0.001000
1006.250000,0.027868,0.001000,0.001000,0.001000,0.001000,0.001000
1006.269231,0.028740,0.001000,0.001000,0.001000,0.001000,0.001000
1006.288462,0.029599,0.001000,0.001000,0.001000,0.001000,0.001000
1006.307692,0.030445,0.001000,0.001000,0.001000,0.001000,0.001000
1006.326923,0.031277,0.001000,0.001000,0.001000,0.001000,0.001000
1006.346154,0.032095,0.001000,0.001000,0.001000,0.001000,0.001000
1006.365385,0.032899,0.001000,0.001000,0.001000,0.001000,0.001000
1006.384615,0.033688,0.001000,0.001000,0.001000,0.001000,0.001000
1006.403846,0.034462,0.001000,0.001000,0.001000,0.001000,0.001000
1006.423077,0.035220,0.001000,0.001000,0.001000,0.001000,0.001000
1006.442308,0.035963,0.001000,0.001000,0.001000,0.001000,0.001000
1006.461538,0.036690,0.001000,0.001000,0.001000,0.001000,0.001000
1006.480769,0.037400,0.001000,0.001000,0.001000,0.001000,0.001000
1006.500000,0.038093,0.001000,0.001000,0.001000,0.001000,0.001000
1006.519231,0.038770,0.001000,0.001000,0.001000,0.001000,0.001000
1006.538462,0.039429,0.001000,0.001000,0.001000,0.001000,0.001000
1006.557692,0.040070,0.001000,0.001000,0.001000,0.001000,0.001000
1006.576923,0.040694,0.001000,0.001000,0.001000,0.001000,0.001000
1006.596154,0.041299,0.001000,0.001000,0.001000,0.001000,0.001000
1006.615385,0.041886,0.001000,0.001000,0.001000,0.001000,0.001000
1006.634615,0.042454,0.001000,0.001000,0.001000,0.001000,0.001000
1006.653846,0.043003,0.001000,0.001000,0.001000,0.001000,0.001000
1006.673077,0.043533,0.001000,0.001000,0.001000,0.001000,0.001000
1006.692308,0.044044,0.001000,0.001000,0.001000,0.001000,0.001000
1006.711538,0.044534,0.001000,0.001000,0.001000,0.001000,0.001000
1006.730769,0.045005,0.001000,0.001000,0.001000,0.001000,0.001000
1006.750000,0.045456,0.001000,0.001000,0.001000,0.001000,0.001000
1006.769231,0.045886,0.001000,0.001000,0.001000,0.001000,0.001000
1006.788462,0.046296,0.001000,0.001000,0.001000,0.001000,0.001000
1006.807692,0.046685,0.001000,0.001000,0.001000,0.001000,0.001000
1006.826923,0.047053,0.001000,0.001000,0.001000,0.001000,0.001000
1006.846154,0.047401,0.001000,0.001000,0.001000,0.001000,0.001000
1006.865385,0.047726,0.001000,0.001000,0.001000,0.001000,0.001000
1006.884615,0.048031,0.001000,0.001000,0.001000,0.001000,0.001000
1006.903846,0.048314,0.001000,0.001000,0.001000,0.001000,0.001000
1006.923077,0.048576,0.001000,0.001000,0.001000,0.001000,0.001000
1006.942308,0.048815,0.001000,0.001000,0.001000,0.001000,0.001000
1006.961538,0.049033,0.001000,0.001000,0.001000,0.001000,0.001000
1006.980769,0.049229,0.001000,0.001000,0.001000,0.001000,0.001000
1007.000000,0.049403,0.001000,0.001000,0.001000,0.001000,0.001000
1007.019231,0.049555,0.001000,0.001000,0.001000,0.001000,0.001000
1007.038462,0.049685,0.001000,0.001000,0.001000,0.001000,0.001000
1007.057692,0.049792,0.001000,0.001000,0.001000,0.001000,0.001000
1007.076923,0.049877,0.001000,0.001000,0.001000,0.001000,0.001000
1007.096154,0.049940,0.001000,0.001000,0.001000,0.001000,0.001000
1007.115385,0.049981,0.001000,0.001000,0.001000,0.001000,0.001000
1007.134615,0.049999,0.001000,0.001000,0.001000,0.001000,0.001000
1007.153846,0.049995,0.001000,0.001000,0.001000,0.001000,0.001000
1007.173077,0.049968,0.001000,0.001000,0.001000,0.001000,0.001000
1007.192308,0.049919,0.001000,0.001000,0.001000,0.001000,0.001000
1007.211538,0.049848,0.001000,0.001000,0.001000,0.001000,0.001000
1007.230769,0.049754,0.001000,0.001000,0.001000,0.001000,0.001000
1007.250000,0.049639,0.001000,0.001000,0.001000,0.001000,0.001000
1007.269231,0.049500,0.001000,0.001000,0.001000,0.001000,0.001000
1007.288462,0.049340,0.001000,0.001000,0.001000,0.001000,0.001000
1007.307692,0.049158,0.001000,0.001000,0.001000,0.001000,0.001000
1007.326923,0.048954,0.001000,0.001000,0.001000,0.001000,0.001000
1007.346154,0.048728,0.001000,0.001000,0.001000,0.001000,0.001000
1007.365385,0.048480,0.001000,0.001000,0.001000,0.001000,0.001000
1007.384615,0.048210,0.001000,0.001000,0.001000,0.001000,0.001000
1007.403846,0.047919,0.001000,0.001000,0.001000,0.001000,0.001000
1007.423077,0.047606,0.001000,0.001000,0.001000,0.001000,0.001000
1007.442308,0.047272,0.001000,0.001000,0.001000,0.001000,0.001000
1007.461538,0.046917,0.001000,0.001000,0.001000,0.001000,0.001000
1007.480769,0.046541,0.001000,0.001000,0.001000,0.001000,0.001000
1007.500000,0.046144,0.001000,0.001000,0.001000,0.001000,0.001000
1007.519231,0.045727,0.001000,0.001000,0.001000,0.001000,0.001000
1007.538462,0.045289,0.001000,0.001000,0.001000,0.001000,0.001000
1007.557692,0.044830,0.001000,0.001000,0.001000,0.001000,0.001000
1007.576923,0.044352,0.001000,0.001000,0.001000,0.001000,0.001000
1007.596154,0.043854,0.001000,0.001000,0.001000,0.001000,0.001000
1007.615385,0.043336,0.001000,0.001000,0.001000,0.001000,0.001000
1007.634615,0.042799,0.001000,0.001000,0.001000,0.001000,0.001000
1007.653846,0.042242,0.001000,0.001000,0.001000,0.001000,0.001000
1007.673077,0.041667,0.001000,0.001000,0.001000,0.001000,0.001000
1007.692308,0.041073,0.001000,0.001000,0.001000,0.001000,0.001000
1007.711538,0.040461,0.001000,0.001000,0.001000,0.001000,0.001000
1007.730769,0.039831,0.001000,0.001000,0.001000,0.001000,0.001000
1007.750000,0.039183,0.001000,0.001000,0.001000,0.001000,0.001000
1007.769231,0.038517,0.001000,0.001000,0.001000,0.001000,0.001000
1007.788462,0.037834,0.001000,0.001000,0.001000,0.001000,0.001000
1007.807692,0.037134,0.001000,0.001000,0.001000,0.001000,0.001000
1007.826923,0.036418,0.001000,0.001000,0.001000,0.001000,0.001000
1007.846154,0.035685,0.001000,0.001000,0.001000,0.001000,0.001000
1007.865385,0.034936,0.001000,0.001000,0.001000,0.001000,0.001000
1007.884615,0.034172,0.001000,0.001000,0.001000,0.001000,0.001000
1007.903846,0.033392,0.001000,0.001000,0.001000,0.001000,0.001000
1007.923077,0.032598,0.001000,0.001000,0.001000,0.001000,0.001000
1007.942308,0.031788,0.001000,0.001000,0.001000,0.001000,0.001000
1007.961538,0.030965,0.001000,0.001000,0.001000,0.001000,0.001000
1007.980769,0.030128,0.001000,0.001000,0.001000,0.001000,0.001000
1008.000000,0.029277,0.001000,0.001000,0.001000,0.001000,0.001000
1008.019231,0.028413,0.001000,0.001000,0.001000,0.001000,0.001000
1008.038462,0.027537,0.001000,0.001000,0.001000,0.001000,0.001000
1008.057692,0.026648,0.001000,0.001000,0.001000,0.001000,0.001000
1008.076923,0.025747,0.001000,0.001000,0.001000,0.001000,0.001000
1008.096154,0.024835,0.001000,0.001000,0.001000,0.001000,0.001000
1008.115385,0.023911,0.001000,0.001000,0.001000,0.001000,0.001000
1008.134615,0.022977,0.001000,0.001000,0.001000,0.001000,0.001000
1008.153846,0.022033,0.001000,0.001000,0.001000,0.001000,0.001000
1008.173077,0.021079,0.001000,0.001000,0.001000,0.001000,0.001000
1008.192308,0.020115,0.001000,0.001000,0.001000,0.001000,0.001000
1008.211538,0.019142,0.001000,0.001000,0.001000,0.001000,0.001000
1008.230769,0.018161,0.001000,0.001000,0.001000,0.001000,0.001000
1008.250000,0.017172,0.001000,0.001000,0.001000,0.001000,0.001000
1008.269231,0.016175,0.001000,0.001000,0.001000,0.001000,0.001000
1008.288462,0.015170,0.001000,0.001000,0.001000,0.001000,0.001000
1008.307692,0.014159,0.001000,0.001000,0.001000,0.001000,0.001000
1008.326923,0.013142,0.001000,0.001000,0.001000,0.001000,0.001000
1008.346154,0.012119,0.001000,0.001000,0.001000,0.001000,0.001000
1008.365385,0.011090,0.001000,0.001000,0.001000,0.001000,0.001000
1008.384615,0.010056,0.001000,0.001000,0.001000,0.001000,0.001000
1008.403846,0.009018,0.001000,0.001000,0.001000,0.001000,0.001000
1008.423077,0.007976,0.001000,0.001000,0.001000,0.001000,0.001000
1008.442308,0.006930,0.001000,0.001000,0.001000,0.001000,0.001000
1008.461538,0.005881,0.001000,0.001000,0.001000,0.001000,0.001000
1008.480769,0.004830,0.001000,0.001000,0.001000,0.001000,0.001000
1008.500000,0.003776,0.001000,0.001000,0.001000,0.001000,0.001000
1008.519231,0.002721,0.001000,0.001000,0.001000,0.001000,0.001000
1008.538462,0.001664,0.001000,0.001000,0.001000,0.001000,0.001000
1008.557692,0.000607,0.001000,0.001000,0.001000,0.001000,0.001000
1008.576923,-0.000451,0.001000,0.001000,0.001000,0.001000,0.001000
1008.596154,-0.001508,0.001000,0.001000,0.001000,0.001000,0.001000
1008.615385,-0.002565,0.001000,0.001000,0.001000,0.001000,0.001000
1008.634615,-0.003620,0.001000,0.001000,0.001000,0.001000,0.001000
1008.653846,-0.004674,0.001000,0.001000,0.001000,0.001000,0.001000
1008.673077,-0.005726,0.001000,0.001000,0.001000,0.001000,0.001000
1008.692308,-0.006775,0.001000,0.001000,0.001000,0.001000,0.001000
1008.711538,-0.007821,0.001000,0.001000,0.001000,0.001000,0.001000
1008.730769,-0.008864,0.001000,0.001000,0.001000,0.001000,0.001000
1008.750000,-0.009903,0.001000,0.001000,0.001000,0.001000,0.001000
1008.769231,-0.010937,0.001000,0.001000,0.001000,0.001000,0.001000
1008.788462,-0.011967,0.001000,0.001000,0.001000,0.001000,0.001000
1008.807692,-0.012991,0.001000,0.001000,0.001000,0.001000,0.001000
1008.826923,-0.014009,0.001000,0.001000,0.001000,0.001000,0.001000
1008.846154,-0.015021,0.001000,0.001000,0.001000,0.001000,0.001000
1008.865385,-0.016027,0.001000,0.001000,0.001000,0.001000,0.001000
1008.884615,-0.017025,0.001000,0.001000,0.001000,0.001000,0.001000
1008.903846,-0.018015,0.001000,0.001000,0.001000,0.001000,0.001000
1008.923077,-0.018998,0.001000,0.001000,0.001000,0.001000,0.001000
1008.942308,-0.019972,0.001000,0.001000,0.001000,0.001000,0.001000
1008.961538,-0.020937,0.001000,0.001000,0.001000,0.001000,0.001000
1008.980769,-0.021892,0.001000,0.001000,0.001000,0.001000,0.001000
1009.000000,-0.022838,0.001000,0.001000,0.001000,0.001000,0.001000
1009.019231,-0.023774,0.001000,0.001000,0.001000,0.001000,0.001000
1009.038462,-0.024699,0.001000,0.001000,0.001000,0.001000,0.001000
1009.057692,-0.025613,0.001000,0.001000,0.001000,0.001000,0.001000
1009.076923,-0.026515,0.001000,0.001000,0.001000,0.001000,0.001000
1009.096154,-0.027406,0.001000,0.001000,0.001000,0.001000,0.001000
1009.115385,-0.028284,0.001000,0.001000,0.001000,0.001000,0.001000
1009.134615,-0.029150,0.001000,0.001000,0.001000,0.001000,0.001000
1009.153846,-0.030003,0.001000,0.001000,0.001000,0.001000,0.001000
1009.173077,-0.030842,0.001000,0.001000,0.001000,0.001000,0.001000
1009.192308,-0.031668,0.001000,0.001000,0.001000,0.001000,0.001000
1009.211538,-0.032479,0.001000,0.001000,0.001000,0.001000,0.001000
1009.230769,-0.033276,0.001000,0.001000,0.001000,0.001000,0.001000
1009.250000,-0.034057,0.001000,0.001000,0.001000,0.001000,0.001000
1009.269231,-0.034824,0.001000,0.001000,0.001000,0.001000,0.001000
1009.288462,-0.035575,0.001000,0.001000,0.001000,0.001000,0.001000
1009.307692,-0.036310,0.001000,0.001000,0.001000,0.001000,0.001000
1009.326923,-0.037029,0.001000,0.001000,0.001000,0.001000,0.001000
1009.346154,-0.037732,0.001000,0.001000,0.001000,0.001000,0.001000
1009.365385,-0.038417,0.001000,0.001000,0.001000,0.001000,0.001000
1009.384615,-0.039085,0.001000,0.001000,0.001000,0.001000,0.001000
1009.403846,-0.039736,0.001000,0.001000,0.001000,0.001000,0.001000
1009.423077,-0.040369,0.001000,0.001000,0.001000,0.001000,0.001000
1009.442308,-0.040984,0.001000,0.001000,0.001000,0.001000,0.001000
1009.461538,-0.041581,0.001000,0.001000,0.001000,0.001000,0.001000
1009.480769,-0.042159,0.001000,0.001000,0.001000,0.001000,0.001000
1009.500000,-0.042718,0.001000,0.001000,0.001000,0.001000,0.001000
1009.519231,-0.043258,0.001000,0.001000,0.001000,0.001000,0.001000
1009.538462,-0.043778,0.001000,0.001000,0.001000,0.001000,0.001000
1009.557692,-0.044279,0.001000,0.001000,0.001000,0.001000,0.001000
1009.576923,-0.044761,0.001000,0.001000,0.001000,0.001000,0.001000
1009.596154,-0.045222,0.001000,0.001000,0.001000,0.001000,0.001000
1009.615385,-0.045663,0.001000,0.001000,0.001000,0.001000,0.001000
1009.634615,-0.046084,0.001000,0.001000,0.001000,0.001000,0.001000
1009.653846,-0.046484,0.001000,0.001000,0.001000,0.001000,0.001000
1009.673077,-0.046863,0.001000,0.001000,0.001000,0.001000,0.001000
1009.692308,-0.047221,0.001000,0.001000,0.001000,0.001000,0.001000
1009.711538,-0.047558,0.001000,0.001000,0.001000,0.001000,0.001000
1009.730769,-0.047874,0.001000,0.001000,0.001000,0.001000,0.001000
1009.750000,-0.048168,0.001000,0.001000,0.001000,0.001000,0.001000
1009.769231,-0.048441,0.001000,0.001000,0.001000,0.001000,0.001000
1009.788462,-0.048692,0.001000,0.001000,0.001000,0.001000,0.001000
1009.807692,-0.048922,0.001000,0.001000,0.001000,0.001000,0.001000
1009.826923,-0.049129,0.001000,0.001000,0.001000,0.001000,0.001000
1009.846154,-0.049315,0.001000,0.001000,0.001000,0.001000,0.001000
1009.865385,-0.049478,0.001000,0.001000,0.001000,0.001000,0.001000
1009.884615,-0.049619,0.001000,0.001000,0.001000,0.001000,0.001000
1009.903846,-0.049739,0.001000,0.001000,0.001000,0.001000,0.001000
1009.923077,-0.049835,0.001000,0.001000,0.001000,0.001000,0.001000
1009.942308,-0.049910,0.001000,0.001000,0.001000,0.001000,0.001000
1009.961538,-0.049962,0.001000,0.001000,0.001000,0.001000,0.001000
1009.980769,-0.049992,0.001000,0.001000,0.001000,0.001000,0.001000
1010.000000,-0.050000,0.001000,0.001000,0.001000,0.001000,0.001000
1010.019231,-0.049985,0.001000,0.001000,0.001000,0.001000,0.001000
1010.038462,-0.049948,0.001000,0.001000,0.001000,0.001000,0.001000
1010.057692,-0.049888,0.001000,0.001000,0.001000,0.001000,0.001000
1010.076923,-0.049806,0.001000,0.001000,0.001000,0.001000,0.001000
1010.096154,-0.049702,0.001000,0.001000,0.001000,0.001000,0.001000
1010.115385,-0.049576,0.001000,0.001000,0.001000,0.001000,0.001000
1010.134615,-0.049427,0.001000,0.001000,0.001000,0.001000,0.001000
1010.153846,-0.049256,0.001000,0.001000,0.001000,0.001000,0.001000
1010.173077,-0.049064,0.001000,0.001000,0.001000,0.001000,0.001000
1010.192308,-0.048849,0.001000,0.001000,0.001000,0.001000,0.001000
1010.211538,-0.048612,0.001000,0.001000,0.001000,0.001000,0.001000
1010.230769,-0.048354,0.001000,0.001000,0.001000,0.001000,0.001000
1010.250000,-0.048074,0.001000,0.001000,0.001000,0.001000,0.001000
1010.269231,-0.047773,0.001000,0.001000,0.001000,0.001000,0.001000
1010.288462,-0.047450,0.001000,0.001000,0.001000,0.001000,0.001000
1010.307692,-0.047106,0.001000,0.001000,0.001000,0.001000,0.001000
1010.326923,-0.046741,0.001000,0.001000,0.001000,0.001000,0.001000
1010.346154,-0.046355,0.001000,0.001000,0.001000,0.001000,0.001000
1010.365385,-0.045948,0.001000,0.001000,0.001000,0.001000,0.001000
1010.384615,-0.045521,0.001000,0.001000,0.001000,0.001000,0.001000
1010.403846,-0.045073,0.001000,0.001000,0.001000,0.001000,0.001000
1010.423077,-0.044605,0.001000,0.001000,0.001000,0.001000,0.001000
1010.442308,-0.044118,0.001000,0.001000,0.001000,0.001000,0.001000
1010.461538,-0.043610,0.001000,0.001000,0.001000,0.001000,0.001000
1010.480769,-0.043083,0.001000,0.001000,0.001000,0.001000,0.001000
1010.500000,-0.042537,0.001000,0.001000,0.001000,0.001000,0.001000
1010.519231,-0.041971,0.001000,0.001000,0.001000,0.001000,0.001000
1010.538462,-0.041387,0.001000,0.001000,0.001000,0.001000,0.001000
1010.557692,-0.040785,0.001000,0.001000,0.001000,0.001000,0.001000
1010.576923,-0.040164,0.001000,0.001000,0.001000,0.001000,0.001000
1010.596154,-0.039525,0.001000,0.001000,0.001000,0.001000,0.001000
1010.615385,-0.038868,0.001000,0.001000,0.001000,0.001000,0.001000
1010.634615,-0.038194,0.001000,0.001000,0.001000,0.001000,0.001000
1010.653846,-0.037503,0.001000,0.001000,0.001000,0.001000,0.001000
1010.673077,-0.036796,0.001000,0.001000,0.001000,0.001000,0.001000
1010.692308,-0.036071,0.001000,0.001000,0.001000,0.001000,0.001000
1010.711538,-0.035331,0.001000,0.001000,0.001000,0.001000,0.001000
1010.730769,-0.034575,0.001000,0.001000,0.001000,0.001000,0.001000
1010.750000,-0.033803,0.001000,0.001000,0.001000,0.001000,0.001000
1010.769231,-0.033016,0.001000,0.001000,0.001000,0.001000,0.001000
1010.788462,-0.032215,0.001000,0.001000,0.001000,0.001000,0.001000
1010.807692,-0.031399,0.001000,0.001000,0.001000,0.001000,0.001000
1010.826923,-0.030569,0.001000,0.001000,0.001000,0.001000,0.001000
1010.846154,-0.029725,0.001000,0.001000,0.001000,0.001000,0.001000
1010.865385,-0.028868,0.001000,0.001000,0.001000,0.001000,0.001000
1010.884615,-0.027998,0.001000,0.001000,0.001000,0.001000,0.001000
1010.903846,-0.027116,0.001000,0.001000,0.001000,0.001000,0.001000
1010.923077,-0.026221,0.001000,0.001000,0.001000,0.001000,0.001000
1010.942308,-0.025315,0.001000,0.001000,0.001000,0.001000,0.001000
1010.961538,-0.024397,0.001000,0.001000,0.001000,0.001000,0.001000
1010.980769,-0.023469,0.001000,0.001000,0.001000,0.001000,0.001000
1011.000000,-0.022530,0.001000,0.001000,0.001000,0.001000,0.001000
1011.019231,-0.021581,0.001000,0.001000,0.001000,0.001000,0.001000
1011.038462,-0.020622,0.001000,0.001000,0.001000,0.001000,0.001000
1011.057692,-0.019654,0.001000,0.001000,0.001000,0.001000,0.001000
1011.076923,-0.018677,0.001000,0.001000,0.001000,0.001000,0.001000
1011.096154,-0.017692,0.001000,0.001000,0.001000,0.001000,0.001000
1011.115385,-0.016699,0.001000,0.001000,0.001000,0.001000,0.001000
1011.134615,-0.015698,0.001000,0.001000,0.001000,0.001000,0.001000
1011.153846,-0.014691,0.001000,0.001000,0.001000,0.001000,0.001000
1011.173077,-0.013677,0.001000,0.001000,0.001000,0.001000,0.001000
1011.192308,-0.012656,0.001000,0.001000,0.001000,0.001000,0.001000
1011.211538,-0.011630,0.001000,0.001000,0.001000,0.001000,0.001000
1011.230769,-0.010599,0.001000,0.001000,0.001000,0.001000,0.001000
1011.250000,-0.009563,0.001000,0.001000,0.001000,0.001000,0.001000
1011.269231,-0.008523,0.001000,0.001000,0.001000,0.001000,0.001000
1011.288462,-0.007479,0.001000,0.001000,0.001000,0.001000,0.001000
1011.307692,-0.006432,0.001000,0.001000,0.001000,0.001000,0.001000
1011.326923,-0.005382,0.001000,0.001000,0.001000,0.001000,0.001000
1011.346154,-0.004329,0.001000,0.001000,0.001000,0.001000,0.001000
1011.365385,-0.003275,0.001000,0.001000,0.001000,0.001000,0.001000
1011.384615,-0.002219,0.001000,0.001000,0.001000,0.001000,0.001000
1011.403846,-0.001162,0.001000,0.001000,0.001000,0.001000,0.001000
1011.423077,-0.000104,0.001000,0.001000,0.001000,0.001000,0.001000
1011.442308,0.000953,0.001000,0.001000,0.001000,0.001000,0.001000
1011.461538,0.002010,0.001000,0.001000,0.001000,0.001000,0.001000
1011.480769,0.003067,0.001000,0.001000,0.001000,0.001000,0.001000
1011.500000,0.004121,0.001000,0.001000,0.001000,0.001000,0.001000
1011.519231,0.005174,0.001000,0.001000,0.001000,0.001000,0.001000
1011.538462,0.006225,0.001000,0.001000,0.001000,0.001000,0.001000
1011.557692,0.007273,0.001000,0.001000,0.001000,0.001000,0.001000
1011.576923,0.008318,0.001000,0.001000,0.001000,0.001000,0.001000
1011.596154,0.009359,0.001000,0.001000,0.001000,0.001000,0.001000
1011.615385,0.010395,0.001000,0.001000,0.001000,0.001000,0.001000
1011.634615,0.011427,0.001000,0.001000,0.001000,0.001000,0.001000
1011.653846,0.012454,0.001000,0.001000,0.001000,0.001000,0.001000
1011.673077,0.013476,0.001000,0.001000,0.001000,0.001000,0.001000
1011.692308,0.014491,0.001000,0.001000,0.001000,0.001000,0.001000
1011.711538,0.015500,0.001000,0.001000,0.001000,0.001000,0.001000
1011.730769,0.016502,0.001000,0.001000,0.001000,0.001000,0.001000
1011.750000,0.017497,0.001000,0.001000,0.001000,0.001000,0.001000
1011.769231,0.018483,0.001000,0.001000,0.001000,0.001000,0.001000
1011.788462,0.019462,0.001000,0.001000,0.001000,0.001000,0.001000
1011.807692,0.020432,0.001000,0.001000,0.001000,0.001000,0.001000
1011.826923,0.021392,0.001000,0.001000,0.001000,0.001000,0.001000
1011.846154,0.022343,0.001000,0.001000,0.001000,0.001000,0.001000
1011.865385,0.023284,0.001000,0.001000,0.001000,0.001000,0.001000
1011.884615,0.024215,0.001000,0.001000,0.001000,0.001000,0.001000
1011.903846,0.025135,0.001000,0.001000,0.001000,0.001000,0.001000
1011.923077,0.026043,0.001000,0.001000,0.001000,0.001000,0.001000
1011.942308,0.026940,0.001000,0.001000,0.001000,0.001000,0.001000
1011.961538,0.027825,0.001000,0.001000,0.001000,0.001000,0.001000
1011.980769,0.028697,0.001000,0.001000,0.001000,0.001000,0.001000
1012.000000,0.029557,0.001000,0.001000,0.001000,0.001000,0.001000
1012.019231,0.030403,0.001000,0.001000,0.001000,0.001000,0.001000
1012.038462,0.031236,0.001000,0.001000,0.001000,0.001000,0.001000
1012.057692,0.032055,0.001000,0.001000,0.001000,0.001000,0.001000
1012.076923,0.032859,0.001000,0.001000,0.001000,0.001000,0.001000
1012.096154,0.033649,0.001000,0.001000,0.001000,0.001000,0.001000
1012.115385,0.034424,0.001000,0.001000,0.001000,0.001000,0.001000
1012.134615,0.035183,0.001000,0.001000,0.001000,0.001000,0.001000
1012.153846,0.035927,0.001000,0.001000,0.001000,0.001000,0.001000
1012.173077,0.036654,0.001000,0.001000,0.001000,0.001000,0.001000
1012.192308,0.037365,0.001000,0.001000,0.001000,0.001000,0.001000
1012.211538,0.038059,0.001000,0.001000,0.001000,0.001000,0.001000
1012.230769,0.038737,0.001000,0.001000,0.001000,0.001000,0.001000
1012.250000,0.039397,0.001000,0.001000,0.001000,0.001000,0.001000
1012.269231,0.040039,0.001000,0.001000,0.001000,0.001000,0.001000
1012.288462,0.040664,0.001000,0.001000,0.001000,0.001000,0.001000
1012.307692,0.041270,0.001000,0.001000,0.001000,0.001000,0.001000
1012.326923,0.041858,0.001000,0.001000,0.001000,0.001000,0.001000
1012.346154,0.042427,0.001000,0.001000,0.001000,0.001000,0.001000
1012.365385,0.042977,0.001000,0.001000,0.001000,0.001000,0.001000
1012.384615,0.043508,0.001000,0.001000,0.001000,0.001000,0.001000
1012.403846,0.044019,0.001000,0.001000,0.001000,0.001000,0.001000
1012.423077,0.044511,0.001000,0.001000,0.001000,0.001000,0.001000
1012.442308,0.044983,0.001000,0.001000,0.001000,0.001000,0.001000
1012.461538,0.045434,0.001000,0.001000,0.001000,0.001000,0.001000
1012.480769,0.045866,0.001000,0.001000,0.001000,0.001000,0.001000
1012.500000,0.046276,0.001000,0.001000,0.001000,0.001000,0.001000
1012.519231,0.046666,0.001000,0.001000,0.001000,0.001000,0.001000
1012.538462,0.047036,0.001000,0.001000,0.001000,0.001000,0.001000
1012.557692,0.047384,0.001000,0.001000,0.001000,0.001000,0.001000
1012.576923,0.047711,0.001000,0.001000,0.001000,0.001000,0.001000
1012.596154,0.048017,0.001000,0.001000,0.001000,0.001000,0.001000
1012.615385,0.048301,0.001000,0.001000,0.001000,0.001000,0.001000
1012.634615,0.048563,0.001000,0.001000,0.001000,0.001000,0.001000
1012.653846,0.048804,0.001000,0.001000,0.001000,0.001000,0.001000
1012.673077,0.049023,0.001000,0.001000,0.001000,0.001000,0.001000
1012.692308,0.049220,0.001000,0.001000,0.001000,0.001000,0.001000
1012.711538,0.049395,0.001000,0.001000,0.001000,0.001000,0.001000
1012.730769,0.049548,0.001000,0.001000,0.001000,0.001000,0.001000
1012.750000,0.049679,0.001000,0.001000,0.001000,0.001000,0.001000
1012.769231,0.049787,0.001000,0.001000,0.001000,0.001000,0.001000
1012.788462,0.049874,0.001000,0.001000,0.001000,0.001000,0.001000
1012.807692,0.049938,0.001000,0.001000,0.001000,0.001000,0.001000
1012.826923,0.049979,0.001000,0.001000,0.001000,0.001000,0.001000
1012.846154,0.049999,0.001000,0.001000,0.001000,0.001000,0.001000
1012.865385,0.049995,0.001000,0.001000,0.001000,0.001000,0.001000
1012.884615,0.049970,0.001000,0.001000,0.001000,0.001000,0.001000
1012.903846,0.049922,0.001000,0.001000,0.001000,0.001000,0.001000
1012.923077,0.049852,0.001000,0.001000,0.001000,0.001000,0.001000
1012.942308,0.049759,0.001000,0.001000,0.001000,0.001000,0.001000
1012.961538,0.049645,0.001000,0.001000,0.001000,0.001000,0.001000
1012.980769,0.049508,0.001000,0.001000,0.001000,0.001000,0.001000
1013.000000,0.049349,0.001000,0.001000,0.001000,0.001000,0.001000
1013.019231,0.049168,0.001000,0.001000,0.001000,0.001000,0.001000
1013.038462,0.048964,0.001000,0.001000,0.001000,0.001000,0.001000
1013.057692,0.048739,0.001000,0.001000,0.001000,0.001000,0.001000
1013.076923,0.048492,0.001000,0.001000,0.001000,0.001000,0.001000
1013.096154,0.048224,0.001000,0.001000,0.001000,0.001000,0.001000
1013.115385,0.047934,0.001000,0.001000,0.001000,0.001000,0.001000
1013.134615,0.047622,0.001000,0.001000,0.001000,0.001000,0.001000
1013.153846,0.047289,0.001000,0.001000,0.001000,0.001000,0.001000
1013.173077,0.046935,0.001000,0.001000,0.001000,0.001000,0.001000
1013.192308,0.046560,0.001000,0.001000,0.001000,0.001000,0.001000
1013.211538,0.046164,0.001000,0.001000,0.001000,0.001000,0.001000
1013.230769,0.045748,0.001000,0.001000,0.001000,0.001000,0.001000
1013.250000,0.045311,0.001000,0.001000,0.001000,0.001000,0.001000
1013.269231,0.044853,0.001000,0.001000,0.001000,0.001000,0.001000
1013.288462,0.044376,0.001000,0.001000,0.001000,0.001000,0.001000
1013.307692,0.043879,0.001000,0.001000,0.001000,0.001000,0.001000
1013.326923,0.043362,0.001000,0.001000,0.001000,0.001000,0.001000
1013.346154,0.042826,0.001000,0.001000,0.001000,0.001000,0.001000
1013.365385,0.042270,0.001000,0.001000,0.001000,0.001000,0.001000
1013.384615,0.041696,0.001000,0.001000,0.001000,0.001000,0.001000
1013.403846,0.041103,0.001000,0.001000,0.001000,0.001000,0.001000
1013.423077,0.040492,0.001000,0.001000,0.001000,0.001000,0.001000
1013.442308,0.039862,0.001000,0.001000,0.001000,0.001000,0.001000
1013.461538,0.039215,0.001000,0.001000,0.001000,0.001000,0.001000
1013.480769,0.038550,0.001000,0.001000,0.001000,0.001000,0.001000
1013.500000,0.037868,0.001000,0.001000,0.001000,0.001000,0.001000
1013.519231,0.037169,0.001000,0.001000,0.001000,0.001000,0.001000
1013.538462,0.036453,0.001000,0.001000,0.001000,0.001000,0.001000
1013.557692,0.035721,0.001000,0.001000,0.001000,0.001000,0.001000
1013.576923,0.034974,0.001000,0.001000,0.001000,0.001000,0.001000
1013.596154,0.034210,0.001000,0.001000,0.001000,0.001000,0.001000
1013.615385,0.033431,0.001000,0.001000,0.001000,0.001000,0.001000
1013.634615,0.032637,0.001000,0.001000,0.001000,0.001000,0.001000
1013.653846,0.031829,0.001000,0.001000,0.001000,0.001000,0.001000
1013.673077,0.031006,0.001000,0.001000,0.001000,0.001000,0.001000
1013.692308,0.030169,0.001000,0.001000,0.001000,0.001000,0.001000
1013.711538,0.029319,0.001000,0.001000,0.001000,0.001000,0.001000
1013.730769,0.028456,0.001000,0.001000,0.001000,0.001000,0.001000
1013.750000,0.027580,0.001000,0.001000,0.001000,0.001000,0.001000
1013.769231,0.026692,0.001000,0.001000,0.001000,0.001000,0.001000
1013.788462,0.025792,0.001000,0.001000,0.001000,0.001000,0.001000
1013.807692,0.024880,0.001000,0.001000,0.001000,0.001000,0.001000
1013.826923,0.023957,0.001000,0.001000,0.001000,0.001000,0.001000
1013.846154,0.023024,0.001000,0.001000,0.001000,0.001000,0.001000
1013.865385,0.022080,0.001000,0.001000,0.001000,0.001000,0.001000
1013.884615,0.021126,0.001000,0.001000,0.001000,0.001000,0.001000
1013.903846,0.020163,0.001000,0.001000,0.001000,0.001000,0.001000
1013.923077,0.019191,0.001000,0.001000,0.001000,0.001000,0.001000
1013.942308,0.018210,0.001000,0.001000,0.001000,0.001000,0.001000
1013.961538,0.017221,0.001000,0.001000,0.001000,0.001000,0.001000
1013.980769,0.016224,0.001000,0.001000,0.001000,0.001000,0.001000
1014.000000,0.015220,0.001000,0.001000,0.001000,0.001000,0.001000
1014.019231,0.014209,0.001000,0.001000,0.001000,0.001000,0.001000
1014.038462,0.013192,0.001000,0.001000,0.001000,0.001000,0.001000
1014.057692,0.012169,0.001000,0.001000,0.001000,0.001000,0.001000
1014.076923,0.011141,0.001000,0.001000,0.001000,0.001000,0.001000
1014.096154,0.010107,0.001000,0.001000,0.001000,0.001000,0.001000
1014.115385,0.009070,0.001000,0.001000,0.001000,0.001000,0.001000
1014.134615,0.008028,0.001000,0.001000,0.001000,0.001000,0.001000
1014.153846,0.006982,0.001000,0.001000,0.001000,0.001000,0.001000
1014.173077,0.005933,0.001000,0.001000,0.001000,0.001000,0.001000
1014.192308,0.004882,0.001000,0.001000,0.001000,0.001000,0.001000
1014.211538,0.003828,0.001000,0.001000,0.001000,0.001000,0.001000
1014.230769,0.002773,0.001000,0.001000,0.001000,0.001000,0.001000
1014.250000,0.001716,0.001000,0.001000,0.001000,0.001000,0.001000
1014.269231,0.000659,0.001000,0.001000,0.001000,0.001000,0.001000
1014.288462,-0.000398,0.001000,0.001000,0.001000,0.001000,0.001000
1014.307692,-0.001456,0.001000,0.001000,0.001000,0.001000,0.001000
1014.326923,-0.002513,0.001000,0.001000,0.001000,0.001000,0.001000
1014.346154,-0.003568,0.001000,0.001000,0.001000,0.001000,0.001000
1014.365385,-0.004622,0.001000,0.001000,0.001000,0.001000,0.001000
1014.384615,-0.005674,0.001000,0.001000,0.001000,0.001000,0.001000
1014.403846,-0.006724,0.001000,0.001000,0.001000,0.001000,0.001000
1014.423077,-0.007770,0.001000,0.001000,0.001000,0.001000,0.001000
1014.442308,-0.008813,0.001000,0.001000,0.001000,0.001000,0.001000
1014.461538,-0.009852,0.001000,0.001000,0.001000,0.001000,0.001000
1014.480769,-0.010886,0.001000,0.001000,0.001000,0.001000,0.001000
1014.500000,-0.011916,0.001000,0.001000,0.001000,0.001000,0.001000
1014.519231,-0.012941,0.001000,0.001000,0.001000,0.001000,0.001000
1014.538462,-0.013959,0.001000,0.001000,0.001000,0.001000,0.001000
1014.557692,-0.014972,0.001000,0.001000,0.001000,0.001000,0.001000
1014.576923,-0.015977,0.001000,0.001000,0.001000,0.001000,0.001000
1014.596154,-0.016976,0.001000,0.001000,0.001000,0.001000,0.001000
1014.615385,-0.017967,0.001000,0.001000,0.001000,0.001000,0.001000
1014.634615,-0.018949,0.001000,0.001000,0.001000,0.001000,0.001000
1014.653846,-0.019924,0.001000,0.001000,0.001000,0.001000,0.001000
1014.673077,-0.020889,0.001000,0.001000,0.001000,0.001000,0.001000
1014.692308,-0.021845,0.001000,0.001000,0.001000,0.001000,0.001000
1014.711538,-0.022792,0.001000,0.001000,0.001000,0.001000,0.001000
1014.730769,-0.023728,0.001000,0.001000,0.001000,0.001000,0.001000
1014.750000,-0.024654,0.001000,0.001000,0.001000,0.001000,0.001000
1014.769231,-0.025568,0.001000,0.001000,0.001000,0.001000,0.001000
1014.788462,-0.026471,0.001000,0.001000,0.001000,0.001000,0.001000
1014.807692,-0.027362,0.001000,0.001000,0.001000,0.001000,0.001000
1014.826923,-0.028241,0.001000,0.001000,0.001000,0.001000,0.001000
1014.846154,-0.029108,0.001000,0.001000,0.001000,0.001000,0.001000
1014.865385,-0.029961,0.001000,0.001000,0.001000,0.001000,0.001000
1014.884615,-0.030801,0.001000,0.001000,0.001000,0.001000,0.001000
1014.903846,-0.031627,0.001000,0.001000,0.001000,0.001000,0.001000
1014.923077,-0.032439,0.001000,0.001000,0.001000,0.001000,0.001000
1014.942308,-0.033237,0.001000,0.001000,0.001000,0.001000,0.001000
1014.961538,-0.034019,0.001000,0.001000,0.001000,0.001000,0.001000
1014.980769,-0.034787,0.001000,0.001000,0.001000,0.001000,0.001000
1015.000000,-0.035538,0.001000,0.001000,0.001000,0.001000,0.001000
1015.019231,-0.036274,0.001000,0.001000,0.001000,0.001000,0.001000
1015.038462,-0.036994,0.001000,0.001000,0.001000,0.001000,0.001000
1015.057692,-0.037697,0.001000,0.001000,0.001000,0.001000,0.001000
1015.076923,-0.038384,0.001000,0.001000,0.001000,0.001000,0.001000
1015.096154,-0.039053,0.001000,0.001000,0.001000,0.001000,0.001000
1015.115385,-0.039704,0.001000,0.001000,0.001000,0.001000,0.001000
1015.134615,-0.040338,0.001000,0.001000,0.001000,0.001000,0.001000
1015.153846,-0.040954,0.001000,0.001000,0.001000,0.001000,0.001000
1015.173077,-0.041552,0.001000,0.001000,0.001000,0.001000,0.001000
1015.192308,-0.042130,0.001000,0.001000,0.001000,0.001000,0.001000
1015.211538,-0.042691,0.001000,0.001000,0.001000,0.001000,0.001000
1015.230769,-0.043232,0.001000,0.001000,0.001000,0.001000,0.001000
1015.250000,-0.043753,0.001000,0.001000,0.001000,0.001000,0.001000
1015.269231,-0.044255,0.001000,0.001000,0.001000,0.001000,0.001000
1015.288462,-0.044738,0.001000,0.001000,0.001000,0.001000,0.001000
1015.307692,-0.045200,0.001000,0.001000,0.001000,0.001000,0.001000
1015.326923,-0.045642,0.001000,0.001000,0.001000,0.001000,0.001000
1015.346154,-0.046063,0.001000,0.001000,0.001000,0.001000,0.001000
1015.365385,-0.046464,0.001000,0.001000,0.001000,0.001000,0.001000
1015.384615,-0.046845,0.001000,0.001000,0.001000,0.001000,0.001000
1015.403846,-0.047204,0.001000,0.001000,0.001000,0.001000,0.001000
1015.423077,-0.047542,0.001000,0.001000,0.001000,0.001000,0.001000
1015.442308,-0.047859,0.001000,0.001000,0.001000,0.001000,0.001000
1015.461538,-0.048154,0.001000,0.001000,0.001000,0.001000,0.001000
1015.480769,-0.048428,0.001000,0.001000,0.001000,0.001000,0.001000
1015.500000,-0.048680,0.001000,0.001000,0.001000,0.001000,0.001000
1015.519231,-0.048911,0.001000,0.001000,0.001000,0.001000,0.001000
1015.538462,-0.049119,0.001000,0.001000,0.001000,0.001000,0.001000
1015.557692,-0.049306,0.001000,0.001000,0.001000,0.001000,0.001000
1015.576923,-0.049471,0.001000,0.001000,0.001000,0.001000,0.001000
1015.596154,-0.049613,0.001000,0.001000,0.001000,0.001000,0.001000
1015.615385,-0.049733,0.001000,0.001000,0.001000,0.001000,0.001000
1015.634615,-0.049831,0.001000,0.001000,0.001000,0.001000,0.001000
1015.653846,-0.049907,0.001000,0.001000,0.001000,0.001000,0.001000
1015.673077,-0.049960,0.001000,0.001000,0.001000,0.001000,0.001000
1015.692308,-0.049991,0.001000,0.001000,0.001000,0.001000,0.001000
1015.711538,-0.050000,0.001000,0.001000,0.001000,0.001000,0.001000
1015.730769,-0.049986,0.001000,0.001000,0.001000,0.001000,0.001000
1015.750000,-0.049950,0.001000,0.001000,0.001000,0.001000,0.001000
1015.769231,-0.049892,0.001000,0.001000,0.001000,0.001000,0.001000
1015.788462,-0.049811,0.001000,0.001000,0.001000,0.001000,0.001000
1015.807692,-0.049708,0.001000,0.001000,0.001000,0.001000,0.001000
1015.826923,-0.049582,0.001000,0.001000,0.001000,0.001000,0.001000
1015.846154,-0.049435,0.001000,0.001000,0.001000,0.001000,0.001000
1015.865385,-0.049265,0.001000,0.001000,0.001000,0.001000,0.001000
1015.884615,-0.049074,0.001000,0.001000,0.001000,0.001000,0.001000
1015.903846,-0.048860,0.001000,0.001000,0.001000,0.001000,0.001000
1015.923077,-0.048625,0.001000,0.001000,0.001000,0.001000,0.001000
1015.942308,-0.048367,0.001000,0.001000,0.001000,0.001000,0.001000
1015.961538,-0.048089,0.001000,0.001000,0.001000,0.001000,0.001000
1015.980769,-0.047788,0.001000,0.001000,0.001000,0.001000,0.001000
1016.000000,-0.047467,0.001000,0.001000,0.001000,0.001000,0.001000
1016.019231,-0.047124,0.001000,0.001000,0.001000,0.001000,0.001000
1016.038462,-0.046759,0.001000,0.001000,0.001000,0.001000,0.001000
1016.057692,-0.046374,0.001000,0.001000,0.001000,0.001000,0.001000
1016.076923,-0.045969,0.001000,0.001000,0.001000,0.001000,0.001000
1016.096154,-0.045542,0.001000,0.001000,0.001000,0.001000,0.001000
1016.115385,-0.045096,0.001000,0.001000,0.001000,0.001000,0.001000
1016.134615,-0.044629,0.001000,0.001000,0.001000,0.001000,0.001000
1016.153846,-0.044142,0.001000,0.001000,0.001000,0.001000,0.001000
1016.173077,-0.043636,0.001000,0.001000,0.001000,0.001000,0.001000
1016.192308,-0.043110,0.001000,0.001000,0.001000,0.001000,0.001000
1016.211538,-0.042564,0.001000,0.001000,0.001000,0.001000,0.001000
1016.230769,-0.042000,0.001000,0.001000,0.001000,0.001000,0.001000
1016.250000,-0.041417,0.001000,0.001000,0.001000,0.001000,0.001000
1016.269231,-0.040815,0.001000,0.001000,0.001000,0.001000,0.001000
1016.288462,-0.040195,0.001000,0.001000,0.001000,0.001000,0.001000
1016.307692,-0.039557,0.001000,0.001000,0.001000,0.001000,0.001000
1016.326923,-0.038901,0.001000,0.001000,0.001000,0.001000,0.001000
1016.346154,-0.038228,0.001000,0.001000,0.001000,0.001000,0.001000
1016.365385,-0.037538,0.001000,0.001000,0.001000,0.001000,0.001000
1016.384615,-0.036831,0.001000,0.001000,0.001000,0.001000,0.001000
1016.403846,-0.036108,0.001000,0.001000,0.001000,0.001000,0.001000
1016.423077,-0.035368,0.001000,0.001000,0.001000,0.001000,0.001000
1016.442308,-0.034612,0.001000,0.001000,0.001000,0.001000,0.001000
1016.461538,-0.033842,0.001000,0.001000,0.001000,0.001000,0.001000
1016.480769,-0.033056,0.001000,0.001000,0.001000,0.001000,0.001000
1016.500000,-0.032255,0.001000,0.001000,0.001000,0.001000,0.001000
1016.519231,-0.031439,0.001000,0.001000,0.001000,0.001000,0.001000
1016.538462,-0.030610,0.001000,0.001000,0.001000,0.001000,0.001000
1016.557692,-0.029767,0.001000,0.001000,0.001000,0.001000,0.001000
1016.576923,-0.028911,0.001000,0.001000,0.001000,0.001000,0.001000
1016.596154,-0.028041,0.001000,0.001000,0.001000,0.001000,0.001000
1016.615385,-0.027160,0.001000,0.001000,0.001000,0.001000,0.001000
1016.634615,-0.026266,0.001000,0.001000,0.001000,0.001000,0.001000
1016.653846,-0.025360,0.001000,0.001000,0.001000,0.001000,0.001000
1016.673077,-0.024443,0.001000,0.001000,0.001000,0.001000,0.001000
1016.692308,-0.023515,0.001000,0.001000,0.001000,0.001000,0.001000
1016.711538,-0.022576,0.001000,0.001000,0.001000,0.001000,0.001000
1016.730769,-0.021628,0.001000,0.001000,0.001000,0.001000,0.001000
1016.750000,-0.020669,0.001000,0.001000,0.001000,0.001000,0.001000
1016.769231,-0.019702,0.001000,0.001000,0.001000,0.001000,0.001000
1016.788462,-0.018725,0.001000,0.001000,0.001000,0.001000,0.001000
1016.807692,-0.017741,0.001000,0.001000,0.001000,0.001000,0.001000
1016.826923,-0.016748,0.001000,0.001000,0.001000,0.001000,0.001000
1016.846154,-0.015748,0.001000,0.001000,0.001000,0.001000,0.001000
1016.865385,-0.014741,0.001000,0.001000,0.001000,0.001000,0.001000
1016.884615,-0.013727,0.001000,0.001000,0.001000,0.001000,0.001000
1016.903846,-0.012707,0.001000,0.001000,0.001000,0.001000,0.001000
1016.923077,-0.011681,0.001000,0.001000,0.001000,0.001000,0.001000
1016.942308,-0.010650,0.001000,0.001000,0.001000,0.001000,0.001000
1016.961538,-0.009615,0.001000,0.001000,0.001000,0.001000,0.001000
1016.980769,-0.008575,0.001000,0.001000,0.001000,0.001000,0.001000
1017.000000,-0.007531,0.001000,0.001000,0.001000,0.001000,0.001000
1017.019231,-0.006484,0.001000,0.001000,0.001000,0.001000,0.001000
1017.038462,-0.005434,0.001000,0.001000,0.001000,0.001000,0.001000
1017.057692,-0.004381,0.001000,0.001000,0.001000,0.001000,0.001000
1017.076923,-0.003327,0.001000,0.001000,0.001000,0.001000,0.001000
1017.096154,-0.002271,0.001000,0.001000,0.001000,0.001000,0.001000
1017.115385,-0.001214,0.001000,0.001000,0.001000,0.001000,0.001000
1017.134615,-0.000156,0.001000,0.001000,0.001000,0.001000,0.001000
1017.153846,0.000901,0.001000,0.001000,0.001000,0.001000,0.001000
1017.173077,0.001958,0.001000,0.001000,0.001000,0.001000,0.001000
1017.192308,0.003014,0.001000,0.001000,0.001000,0.001000,0.001000
1017.211538,0.004069,0.001000,0.001000,0.001000,0.001000,0.001000
1017.230769,0.005123,0.001000,0.001000,0.001000,0.001000,0.001000
1017.250000,0.006173,0.001000,0.001000,0.001000,0.001000,0.001000
1017.269231,0.007221,0.001000,0.001000,0.001000,0.001000,0.001000
1017.288462,0.008266,0.001000,0.001000,0.001000,0.001000,0.001000
1017.307692,0.009307,0.001000,0.001000,0.001000,0.001000,0.001000
1017.326923,0.010344,0.001000,0.001000,0.001000,0.001000,0.001000
1017.346154,0.011377,0.001000,0.001000,0.001000,0.001000,0.001000
1017.365385,0.012404,0.001000,0.001000,0.001000,0.001000,0.001000
1017.384615,0.013426,0.001000,0.001000,0.001000,0.001000,0.001000
1017.403846,0.014441,0.001000,0.001000,0.001000,0.001000,0.001000
1017.423077,0.015450,0.001000,0.001000,0.001000,0.001000,0.001000
1017.442308,0.016453,0.001000,0.001000,0.001000,0.001000,0.001000
1017.461538,0.017448,0.001000,0.001000,0.001000,0.001000,0.001000
1017.480769,0.018435,0.001000,0.001000,0.001000,0.001000,0.001000
1017.500000,0.019414,0.001000,0.001000,0.001000,0.001000,0.001000
1017.519231,0.020384,0.001000,0.001000,0.001000,0.001000,0.001000
1017.538462,0.021345,0.001000,0.001000,0.001000,0.001000,0.001000
1017.557692,0.022297,0.001000,0.001000,0.001000,0.001000,0.001000
1017.576923,0.023238,0.001000,0.001000,0.001000,0.001000,0.001000
1017.596154,0.024169,0.001000,0.001000,0.001000,0.001000,0.001000
1017.615385,0.025090,0.001000,0.001000,0.001000,0.001000,0.001000
1017.634615,0.025999,0.001000,0.001000,0.001000,0.001000,0.001000
1017.653846,0.026896,0.001000,0.001000,0.001000,0.001000,0.001000
1017.673077,0.027782,0.001000,0.001000,0.001000,0.001000,0.001000
1017.692308,0.028655,0.001000,0.001000,0.001000,0.001000,0.001000
1017.711538,0.029515,0.001000,0.001000,0.001000,0.001000,0.001000
1017.730769,0.030362,0.001000,0.001000,0.001000,0.001000,0.001000
1017.750000,0.031195,0.001000,0.001000,0.001000,0.001000,0.001000
1017.769231,0.032015,0.001000,0.001000,0.001000,0.001000,0.001000
1017.788462,0.032820,0.001000,0.001000,0.001000,0.001000,0.001000
1017.807692,0.033611,0.001000,0.001000,0.001000,0.001000,0.001000
1017.826923,0.034386,0.001000,0.001000,0.001000,0.001000,0.001000
1017.846154,0.035146,0.001000,0.001000,0.001000,0.001000,0.001000
1017.865385,0.035890,0.001000,0.001000,0.001000,0.001000,0.001000
1017.884615,0.036619,0.001000,0.001000,0.001000,0.001000,0.001000
1017.903846,0.037330,0.001000,0.001000,0.001000,0.001000,0.001000
1017.923077,0.038026,0.001000,0.001000,0.001000,0.001000,0.001000
1017.942308,0.038704,0.001000,0.001000,0.001000,0.001000,0.001000
1017.961538,0.039365,0.001000,0.001000,0.001000,0.001000,0.001000
1017.980769,0.040008,0.001000,0.001000,0.001000,0.001000,0.001000
1018.000000,0.040633,0.001000,0.001000,0.001000,0.001000,0.001000
1018.019231,0.041240,0.001000,0.001000,0.001000,0.001000,0.001000
1018.038462,0.041829,0.001000,0.001000,0.001000,0.001000,0.001000
1018.057692,0.042399,0.001000,0.001000,0.001000,0.001000,0.001000
1018.076923,0.042950,0.001000,0.001000,0.001000,0.001000,0.001000
1018.096154,0.043482,0.001000,0.001000,0.001000,0.001000,0.001000
1018.115385,0.043994,0.001000,0.001000,0.001000,0.001000,0.001000
1018.134615,0.044487,0.001000,0.001000,0.001000,0.001000,0.001000
1018.153846,0.044960,0.001000,0.001000,0.001000,0.001000,0.001000
1018.173077,0.045412,0.001000,0.001000,0.001000,0.001000,0.001000
1018.192308,0.045845,0.001000,0.001000,0.001000,0.001000,0.001000
1018.211538,0.046257,0.001000,0.001000,0.001000,0.001000,0.001000
1018.230769,0.046648,0.001000,0.001000,0.001000,0.001000,0.001000
1018.250000,0.047018,0.001000,0.001000,0.001000,0.001000,0.001000
1018.269231,0.047367,0.001000,0.001000,0.001000,0.001000,0.001000
1018.288462,0.047695,0.001000,0.001000,0.001000,0.001000,0.001000
1018.307692,0.048002,0.001000,0.001000,0.001000,0.001000,0.001000
1018.326923,0.048287,0.001000,0.001000,0.001000,0.001000,0.001000
1018.346154,0.048551,0.001000,0.001000,0.001000,0.001000,0.001000
1018.365385,0.048793,0.001000,0.001000,0.001000,0.001000,0.001000
1018.384615,0.049013,0.001000,0.001000,0.001000,0.001000,0.001000
1018.403846,0.049211,0.001000,0.001000,0.001000,0.001000,0.001000
1018.423077,0.049387,0.001000,0.001000,0.001000,0.001000,0.001000
1018.442308,0.049541,0.001000,0.001000,0.001000,0.001000,0.001000
1018.461538,0.049673,0.001000,0.001000,0.001000,0.001000,0.001000
1018.480769,0.049783,0.001000,0.001000,0.001000,0.001000,0.001000
1018.500000,0.049870,0.001000,0.001000,0.001000,0.001000,0.001000
1018.519231,0.049935,0.001000,0.001000,0.001000,0.001000,0.001000
1018.538462,0.049978,0.001000,0.001000,0.001000,0.001000,0.001000
1018.557692,0.049998,0.001000,0.001000,0.001000,0.001000,0.001000
1018.576923,0.049996,0.001000,0.001000,0.001000,0.001000,0.001000
1018.596154,0.049972,0.001000,0.001000,0.001000,0.001000,0.001000
1018.615385,0.049925,0.001000,0.001000,0.001000,0.001000,0.001000
1018.634615,0.049856,0.001000,0.001000,0.001000,0.001000,0.001000
1018.653846,0.049765,0.001000,0.001000,0.001000,0.001000,0.001000
1018.673077,0.049651,0.001000,0.001000,0.001000,0.001000,0.001000
1018.692308,0.049515,0.001000,0.001000,0.001000,0.001000,0.001000
1018.711538,0.049357,0.001000,0.001000,0.001000,0.001000,0.001000
1018.730769,0.049177,0.001000,0.001000,0.001000,0.001000,0.001000
1018.750000,0.048975,0.001000,0.001000,0.001000,0.001000,0.001000
1018.769231,0.048751,0.001000,0.001000,0.001000,0.001000,0.001000
1018.788462,0.048505,0.001000,0.001000,0.001000,0.001000,0.001000
1018.807692,0.048238,0.001000,0.001000,0.001000,0.001000,0.001000
1018.826923,0.047949,0.001000,0.001000,0.001000,0.001000,0.001000
1018.846154,0.047638,0.001000,0.001000,0.001000,0.001000,0.001000
1018.865385,0.047306,0.001000,0.001000,0.001000,0.001000,0.001000
1018.884615,0.046953,0.001000,0.001000,0.001000,0.001000,0.001000
1018.903846,0.046579,0.001000,0.001000,0.001000,0.001000,0.001000
1018.923077,0.046184,0.001000,0.001000,0.001000,0.001000,0.001000
1018.942308,0.045769,0.001000,0.001000,0.001000,0.001000,0.001000
1018.961538,0.045333,0.001000,0.001000,0.001000,0.001000,0.001000
1018.980769,0.044876,0.001000,0.001000,0.001000,0.001000,0.001000
1019.000000,0.044400,0.001000,0.001000,0.001000,0.001000,0.001000
1019.019231,0.043904,0.001000,0.001000,0.001000,0.001000,0.001000
1019.038462,0.043388,0.001000,0.001000,0.001000,0.001000,0.001000
1019.057692,0.042853,0.001000,0.001000,0.001000,0.001000,0.001000
1019.076923,0.042298,0.001000,0.001000,0.001000,0.001000,0.001000
1019.096154,0.041725,0.001000,0.001000,0.001000,0.001000,0.001000
1019.115385,0.041133,0.001000,0.001000,0.001000,0.001000,0.001000
1019.134615,0.040522,0.001000,0.001000,0.001000,0.001000,0.001000
1019.153846,0.039894,0.001000,0.001000,0.001000,0.001000,0.001000
1019.173077,0.039247,0.001000,0.001000,0.001000,0.001000,0.001000
1019.192308,0.038583,0.001000,0.001000,0.001000,0.001000,0.001000
1019.211538,0.037902,0.001000,0.001000,0.001000,0.001000,0.001000
1019.230769,0.037204,0.001000,0.001000,0.001000,0.001000,0.001000
1019.250000,0.036489,0.001000,0.001000,0.001000,0.001000,0.001000
1019.269231,0.035758,0.001000,0.001000,0.001000,0.001000,0.001000
1019.288462,0.035011,0.001000,0.001000,0.001000,0.001000,0.001000
1019.307692,0.034248,0.001000,0.001000,0.001000,0.001000,0.001000
1019.326923,0.033470,0.001000,0.001000,0.001000,0.001000,0.001000
1019.346154,0.032677,0.001000,0.001000,0.001000,0.001000,0.001000
1019.365385,0.031869,0.001000,0.001000,0.001000,0.001000,0.001000
1019.384615,0.031047,0.001000,0.001000,0.001000,0.001000,0.001000
1019.403846,0.030211,0.001000,0.001000,0.001000,0.001000,0.001000
1019.423077,0.029362,0.001000,0.001000,0.001000,0.001000,0.001000
1019.442308,0.028499,0.001000,0.001000,0.001000,0.001000,0.001000
1019.461538,0.027624,0.001000,0.001000,0.001000,0.001000,0.001000
1019.480769,0.026736,0.001000,0.001000,0.001000,0.001000,0.001000
1019.500000,0.025837,0.001000,0.001000,0.001000,0.001000,0.001000
1019.519231,0.024925,0.001000,0.001000,0.001000,0.001000,0.001000
1019.538462,0.024003,0.001000,0.001000,0.001000,0.001000,0.001000
1019.557692,0.023070,0.001000,0.001000,0.001000,0.001000,0.001000
1019.576923,0.022127,0.001000,0.001000,0.001000,0.001000,0.001000
1019.596154,0.021173,0.001000,0.001000,0.001000,0.001000,0.001000
1019.615385,0.020211,0.001000,0.001000,0.001000,0.001000,0.001000
1019.634615,0.019239,0.001000,0.001000,0.001000,0.001000,0.001000
1019.653846,0.018258,0.001000,0.001000,0.001000,0.001000,0.001000
1019.673077,0.017270,0.001000,0.001000,0.001000,0.001000,0.001000
1019.692308,0.016273,0.001000,0.001000,0.001000,0.001000,0.001000
1019.711538,0.015270,0.001000,0.001000,0.001000,0.001000,0.001000
1019.730769,0.014259,0.001000,0.001000,0.001000,0.001000,0.001000
1019.750000,0.013243,0.001000,0.001000,0.001000,0.001000,0.001000
1019.769231,0.012220,0.001000,0.001000,0.001000,0.001000,0.001000
1019.788462,0.011192,0.001000,0.001000,0.001000,0.001000,0.001000
1019.807692,0.010159,0.001000,0.001000,0.001000,0.001000,0.001000
1019.826923,0.009121,0.001000,0.001000,0.001000,0.001000,0.001000
1019.846154,0.008079,0.001000,0.001000,0.001000,0.001000,0.001000
1019.865385,0.007034,0.001000,0.001000,0.001000,0.001000,0.001000
1019.884615,0.005985,0.001000,0.001000,0.001000,0.001000,0.001000
1019.903846,0.004934,0.001000,0.001000,0.001000,0.001000,0.001000
1019.923077,0.003880,0.001000,0.001000,0.001000,0.001000,0.001000
1019.942308,0.002825,0.001000,0.001000,0.001000,0.001000,0.001000
1019.961538,0.001769,0.001000,0.001000,0.001000,0.001000,0.001000
1019.980769,0.000711,0.001000,0.001000,0.001000,0.001000,0.001000
1020.000000,-0.000346,0.001000,0.001000,0.001000,0.001000,0.001000
1020.019231,-0.001404,0.001000,0.001000,0.001000,0.001000,0.001000
1020.038462,-0.002460,0.001000,0.001000,0.001000,0.001000,0.001000
1020.057692,-0.003516,0.001000,0.001000,0.001000,0.001000,0.001000
1020.076923,-0.004570,0.001000,0.001000,0.001000,0.001000,0.001000
1020.096154,-0.005622,0.001000,0.001000,0.001000,0.001000,0.001000
1020.115385,-0.006672,0.001000,0.001000,0.001000,0.001000,0.001000
1020.134615,-0.007718,0.001000,0.001000,0.001000,0.001000,0.001000
1020.153846,-0.008762,0.001000,0.001000,0.001000,0.001000,0.001000
1020.173077,-0.009801,0.001000,0.001000,0.001000,0.001000,0.001000
1020.192308,-0.010836,0.001000,0.001000,0.001000,0.001000,0.001000
1020.211538,-0.011866,0.001000,0.001000,0.001000,0.001000,0.001000
1020.230769,-0.012890,0.001000,0.001000,0.001000,0.001000,0.001000
1020.250000,-0.013909,0.001000,0.001000,0.001000,0.001000,0.001000
1020.269231,-0.014922,0.001000,0.001000,0.001000,0.001000,0.001000
1020.288462,-0.015928,0.001000,0.001000,0.001000,0.001000,0.001000
1020.307692,-0.016927,0.001000,0.001000,0.001000,0.001000,0.001000
1020.326923,-0.017918,0.001000,0.001000,0.001000,0.001000,0.001000
1020.346154,-0.018901,0.001000,0.001000,0.001000,0.001000,0.001000
1020.365385,-0.019876,0.001000,0.001000,0.001000,0.001000,0.001000
1020.384615,-0.020842,0.001000,0.001000,0.001000,0.001000,0.001000
1020.403846,-0.021799,0.001000,0.001000,0.001000,0.001000,0.001000
1020.423077,-0.022745,0.001000,0.001000,0.001000,0.001000,0.001000
1020.442308,-0.023682,0.001000,0.001000,0.001000,0.001000,0.001000
1020.461538,-0.024608,0.001000,0.001000,0.001000,0.001000,0.001000
1020.480769,-0.025523,0.001000,0.001000,0.001000,0.001000,0.001000
1020.500000,-0.026427,0.001000,0.001000,0.001000,0.001000,0.001000
1020.519231,-0.027319,0.001000,0.001000,0.001000,0.001000,0.001000
1020.538462,-0.028198,0.001000,0.001000,0.001000,0.001000,0.001000
1020.557692,-0.029065,0.001000,0.001000,0.001000,0.001000,0.001000
1020.576923,-0.029919,0.001000,0.001000,0.001000,0.001000,0.001000
1020.596154,-0.030760,0.001000,0.001000,0.001000,0.001000,0.001000
1020.615385,-0.031587,0.001000,0.001000,0.001000,0.001000,0.001000
1020.634615,-0.032399,0.001000,0.001000,0.001000,0.001000,0.001000
1020.653846,-0.033198,0.001000,0.001000,0.001000,0.001000,0.001000
1020.673077,-0.033981,0.001000,0.001000,0.001000,0.001000,0.001000
1020.692308,-0.034749,0.001000,0.001000,0.001000,0.001000,0.001000
1020.711538,-0.035502,0.001000,0.001000,0.001000,0.001000,0.001000
1020.730769,-0.036238,0.001000,0.001000,0.001000,0.001000,0.001000
1020.750000,-0.036959,0.001000,0.001000,0.001000,0.001000,0.001000
1020.769231,-0.037663,0.001000,0.001000,0.001000,0.001000,0.001000
1020.788462,-0.038350,0.001000,0.001000,0.001000,0.001000,0.001000
1020.807692,-0.039020,0.001000,0.001000,0.001000,0.001000,0.001000
1020.826923,-0.039673,0.001000,0.001000,0.001000,0.001000,0.001000
1020.846154,-0.040307,0.001000,0.001000,0.001000,0.001000,0.001000
1020.865385,-0.040924,0.001000,0.001000,0.001000,0.001000,0.001000
1020.884615,-0.041523,0.001000,0.001000,0.001000,0.001000,0.001000
1020.903846,-0.042102,0.001000,0.001000,0.001000,0.001000,0.001000
1020.923077,-0.042663,0.001000,0.001000,0.001000,0.001000,0.001000
1020.942308,-0.043205,0.001000,0.001000,0.001000,0.001000,0.001000
1020.961538,-0.043728,0.001000,0.001000,0.001000,0.001000,0.001000
1020.980769,-0.044231,0.001000,0.001000,0.001000,0.001000,0.001000
1021.000000,-0.044714,0.001000,0.001000,0.001000,0.001000,0.001000
1021.019231,-0.045177,0.001000,0.001000,0.001000,0.001000,0.001000
1021.038462,-0.045620,0.001000,0.001000,0.001000,0.001000,0.001000
1021.057692,-0.046043,0.001000,0.001000,0.001000,0.001000,0.001000
1021.076923,-0.046445,0.001000,0.001000,0.001000,0.001000,0.001000
1021.096154,-0.046826,0.001000,0.001000,0.001000,0.001000,0.001000
1021.115385,-0.047187,0.001000,0.001000,0.001000,0.001000,0.001000
1021.134615,-0.047526,0.001000,0.001000,0.001000,0.001000,0.001000
1021.153846,-0.047844,0.001000,0.001000,0.001000,0.001000,0.001000
1021.173077,-0.048140,0.001000,0.001000,0.001000,0.001000,0.001000
1021.192308,-0.048415,0.001000,0.001000,0.001000,0.001000,0.001000
1021.211538,-0.048669,0.001000,0.001000,0.001000,0.001000,0.001000
1021.230769,-0.048900,0.001000,0.001000,0.001000,0.001000,0.001000
1021.250000,-0.049110,0.001000,0.001000,0.001000,0.001000,0.001000
1021.269231,-0.049297,0.001000,0.001000,0.001000,0.001000,0.001000
1021.288462,-0.049463,0.001000,0.001000,0.001000,0.001000,0.001000
1021.307692,-0.049607,0.001000,0.001000,0.001000,0.001000,0.001000
1021.326923,-0.049728,0.001000,0.001000,0.001000,0.001000,0.001000
1021.346154,-0.049827,0.001000,0.001000,0.001000,0.001000,0.001000
1021.365385,-0.049904,0.001000,0.001000,0.001000,0.001000,0.001000
1021.384615,-0.049958,0.001000,0.001000,0.001000,0.001000,0.001000
1021.403846,-0.049990,0.001000,0.001000,0.001000,0.001000,0.001000
1021.423077,-0.050000,0.001000,0.001000,0.001000,0.001000,0.001000
1021.442308,-0.049987,0.001000,0.001000,0.001000,0.001000,0.001000
1021.461538,-0.049952,0.001000,0.001000,0.001000,0.001000,0.001000
1021.480769,-0.049895,0.001000,0.001000,0.001000,0.001000,0.001000
1021.500000,-0.049815,0.001000,0.001000,0.001000,0.001000,0.001000
1021.519231,-0.049713,0.001000,0.001000,0.001000,0.001000,0.001000
1021.538462,-0.049589,0.001000,0.001000,0.001000,0.001000,0.001000
1021.557692,-0.049443,0.001000,0.001000,0.001000,0.001000,0.001000
1021.576923,-0.049274,0.001000,0.001000,0.001000,0.001000,0.001000
1021.596154,-0.049084,0.001000,0.001000,0.001000,0.001000,0.001000
1021.615385,-0.048871,0.001000,0.001000,0.001000,0.001000,0.001000
1021.634615,-0.048637,0.001000,0.001000,0.001000,0.001000,0.001000
1021.653846,-0.048381,0.001000,0.001000,0.001000,0.001000,0.001000
1021.673077,-0.048103,0.001000,0.001000,0.001000,0.001000,0.001000
1021.692308,-0.047804,0.001000,0.001000,0.001000,0.001000,0.001000
1021.711538,-0.047483,0.001000,0.001000,0.001000,0.001000,0.001000
1021.730769,-0.047141,0.001000,0.001000,0.001000,0.001000,0.001000
1021.750000,-0.046778,0.001000,0.001000,0.001000,0.001000,0.001000
1021.769231,-0.046394,0.001000,0.001000,0.001000,0.001000,0.001000
1021.788462,-0.045989,0.001000,0.001000,0.001000,0.001000,0.001000
1021.807692,-0.045564,0.001000,0.001000,0.001000,0.001000,0.001000
1021.826923,-0.045118,0.001000,0.001000,0.001000,0.001000,0.001000
1021.846154,-0.044652,0.001000,0.001000,0.001000,0.001000,0.001000
1021.865385,-0.044167,0.001000,0.001000,0.001000,0.001000,0.001000
1021.884615,-0.043661,0.001000,0.001000,0.001000,0.001000,0.001000
1021.903846,-0.043136,0.001000,0.001000,0.001000,0.001000,0.001000
1021.923077,-0.042591,0.001000,0.001000,0.001000,0.001000,0.001000
1021.942308,-0.042028,0.001000,0.001000,0.001000,0.001000,0.001000
1021.961538,-0.041446,0.001000,0.001000,0.001000,0.001000,0.001000
1021.980769,-0.040845,0.001000,0.001000,0.001000,0.001000,0.001000
1022.000000,-0.040226,0.001000,0.001000,0.001000,0.001000,0.001000
1022.019231,-0.039589,0.001000,0.001000,0.001000,0.001000,0.001000
1022.038462,-0.038934,0.001000,0.001000,0.001000,0.001000,0.001000
1022.057692,-0.038262,0.001000,0.001000,0.001000,0.001000,0.001000
1022.076923,-0.037572,0.001000,0.001000,0.001000,0.001000,0.001000
1022.096154,-0.036866,0.001000,0.001000,0.001000,0.001000,0.001000
1022.115385,-0.036144,0.001000,0.001000,0.001000,0.001000,0.001000
1022.134615,-0.035405,0.001000,0.001000,0.001000,0.001000,0.001000
1022.153846,-0.034650,0.001000,0.001000,0.001000,0.001000,0.001000
1022.173077,-0.033880,0.001000,0.001000,0.001000,0.001000,0.001000
1022.192308,-0.033095,0.001000,0.001000,0.001000,0.001000,0.001000
1022.211538,-0.032295,0.001000,0.001000,0.001000,0.001000,0.001000
1022.230769,-0.031480,0.001000,0.001000,0.001000,0.001000,0.001000
1022.250000,-0.030651,0.001000,0.001000,0.001000,0.001000,0.001000
1022.269231,-0.029809,0.001000,0.001000,0.001000,0.001000,0.001000
1022.288462,-0.028953,0.001000,0.001000,0.001000,0.001000,0.001000
1022.307692,-0.028085,0.001000,0.001000,0.001000,0.001000,0.001000
1022.326923,-0.027203,0.001000,0.001000,0.001000,0.001000,0.001000
1022.346154,-0.026310,0.001000,0.001000,0.001000,0.001000,0.001000
1022.365385,-0.025405,0.001000,0.001000,0.001000,0.001000,0.001000
1022.384615,-0.024488,0.001000,0.001000,0.001000,0.001000,0.001000
1022.403846,-0.023561,0.001000,0.001000,0.001000,0.001000,0.001000
1022.423077,-0.022623,0.001000,0.001000,0.001000,0.001000,0.001000
1022.442308,-0.021675,0.001000,0.001000,0.001000,0.001000,0.001000
1022.461538,-0.020717,0.001000,0.001000,0.001000,0.001000,0.001000
1022.480769,-0.019750,0.001000,0.001000,0.001000,0.001000,0.001000
1022.500000,-0.018774,0.001000,0.001000,0.001000,0.001000,0.001000
1022.519231,-0.017789,0.001000,0.001000,0.001000,0.001000,0.001000
1022.538462,-0.016797,0.001000,0.001000,0.001000,0.001000,0.001000
1022.557692,-0.015797,0.001000,0.001000,0.001000,0.001000,0.001000
1022.576923,-0.014790,0.001000,0.001000,0.001000,0.001000,0.001000
1022.596154,-0.013777,0.001000,0.001000,0.001000,0.001000,0.001000
1022.615385,-0.012757,0.001000,0.001000,0.001000,0.001000,0.001000
1022.634615,-0.011732,0.001000,0.001000,0.001000,0.001000,0.001000
1022.653846,-0.010701,0.001000,0.001000,0.001000,0.001000,0.001000
1022.673077,-0.009666,0.001000,0.001000,0.001000,0.001000,0.001000
1022.692308,-0.008626,0.001000,0.001000,0.001000,0.001000,0.001000
1022.711538,-0.007582,0.001000,0.001000,0.001000,0.001000,0.001000
1022.730769,-0.006536,0.001000,0.001000,0.001000,0.001000,0.001000
1022.750000,-0.005486,0.001000,0.001000,0.001000,0.001000,0.001000
1022.769231,-0.004433,0.001000,0.001000,0.001000,0.001000,0.001000
1022.788462,-0.003379,0.001000,0.001000,0.001000,0.001000,0.001000
1022.807692,-0.002323,0.001000,0.001000,0.001000,0.001000,0.001000
1022.826923,-0.001266,0.001000,0.001000,0.001000,0.001000,0.001000
1022.846154,-0.000209,0.001000,0.001000,0.001000,0.001000,0.001000
1022.865385,0.000849,0.001000,0.001000,0.001000,0.001000,0.001000
1022.884615,0.001906,0.001000,0.001000,0.001000,0.001000,0.001000
1022.903846,0.002962,0.001000,0.001000,0.001000,0.001000,0.001000
1022.923077,0.004017,0.001000,0.001000,0.001000,0.001000,0.001000
1022.942308,0.005071,0.001000,0.001000,0.001000,0.001000,0.001000
1022.961538,0.006122,0.001000,0.001000,0.001000,0.001000,0.001000
1022.980769,0.007170,0.001000,0.001000,0.001000,0.001000,0.001000
1023.000000,0.008215,0.001000,0.001000,0.001000,0.001000,0.001000
1023.019231,0.009256,0.001000,0.001000,0.001000,0.001000,0.001000
1023.038462,0.010293,0.001000,0.001000,0.001000,0.001000,0.001000
1023.057692,0.011326,0.001000,0.001000,0.001000,0.001000,0.001000
1023.076923,0.012353,0.001000,0.001000,0.001000,0.001000,0.001000
1023.096154,0.013375,0.001000,0.001000,0.001000,0.001000,0.001000
1023.115385,0.014391,0.001000,0.001000,0.001000,0.001000,0.001000
1023.134615,0.015401,0.001000,0.001000,0.001000,0.001000,0.001000
1023.153846,0.016403,0.001000,0.001000,0.001000,0.001000,0.001000
1023.173077,0.017399,0.001000,0.001000,0.001000,0.001000,0.001000
1023.192308,0.018386,0.001000,0.001000,0.001000,0.001000,0.001000
1023.211538,0.019366,0.001000,0.001000,0.001000,0.001000,0.001000
1023.230769,0.020336,0.001000,0.001000,0.001000,0.001000,0.001000
1023.250000,0.021298,0.001000,0.001000,0.001000,0.001000,0.001000
1023.269231,0.022250,0.001000,0.001000,0.001000,0.001000,0.001000
1023.288462,0.023192,0.001000,0.001000,0.001000,0.001000,0.001000
1023.307692,0.024124,0.001000,0.001000,0.001000,0.001000,0.001000
1023.326923,0.025044,0.001000,0.001000,0.001000,0.001000,0.001000
1023.346154,0.025954,0.001000,0.001000,0.001000,0.001000,0.001000
1023.365385,0.026852,0.001000,0.001000,0.001000,0.001000,0.001000
1023.384615,0.027738,0.001000,0.001000,0.001000,0.001000,0.001000
1023.403846,0.028612,0.001000,0.001000,0.001000,0.001000,0.001000
1023.423077,0.029473,0.001000,0.001000,0.001000,0.001000,0.001000
1023.442308,0.030321,0.001000,0.001000,0.001000,0.001000,0.001000
1023.461538,0.031155,0.001000,0.001000,0.001000,0.001000,0.001000
1023.480769,0.031975,0.001000,0.001000,0.001000,0.001000,0.001000
1023.500000,0.032781,0.001000,0.001000,0.001000,0.001000,0.001000
1023.519231,0.033572,0.001000,0.001000,0.001000,0.001000,0.001000
1023.538462,0.034348,0.001000,0.001000,0.001000,0.001000,0.001000
1023.557692,0.035109,0.001000,0.001000,0.001000,0.001000,0.001000
1023.576923,0.035854,0.001000,0.001000,0.001000,0.001000,0.001000
1023.596154,0.036583,0.001000,0.001000,0.001000,0.001000,0.001000
1023.615385,0.037296,0.001000,0.001000,0.001000,0.001000,0.001000
1023.634615,0.037992,0.001000,0.001000,0.001000,0.001000,0.001000
1023.653846,0.038671,0.001000,0.001000,0.001000,0.001000,0.001000
1023.673077,0.039332,0.001000,0.001000,0.001000,0.001000,0.001000
1023.692308,0.039977,0.001000,0.001000,0.001000,0.001000,0.001000
1023.711538,0.040603,0.001000,0.001000,0.001000,0.001000,0.001000
1023.730769,0.041211,0.001000,0.001000,0.001000,0.001000,0.001000
1023.750000,0.041800,0.001000,0.001000,0.001000,0.001000,0.001000
1023.769231,0.042371,0.001000,0.001000,0.001000,0.001000,0.001000
1023.788462,0.042923,0.001000,0.001000,0.001000,0.001000,0.001000
1023.807692,0.043456,0.001000,0.001000,0.001000,0.001000,0.001000
1023.826923,0.043969,0.001000,0.001000,0.001000,0.001000,0.001000
1023.846154,0.044463,0.001000,0.001000,0.001000,0.001000,0.001000
1023.865385,0.044937,0.001000,0.001000,0.001000,0.001000,0.001000
1023.884615,0.045391,0.001000,0.001000,0.001000,0.001000,0.001000
1023.903846,0.045824,0.001000,0.001000,0.001000,0.001000,0.001000
1023.923077,0.046237,0.001000,0.001000,0.001000,0.001000,0.001000
1023.942308,0.046629,0.001000,0.001000,0.001000,0.001000,0.001000
1023.961538,0.047000,0.001000,0.001000,0.001000,0.001000,0.001000
1023.980769,0.047350,0.001000,0.001000,0.001000,0.001000,0.001000
1024.000000,0.047680,0.001000,0.001000,0.001000,0.001000,0.001000
1024.019231,0.047987,0.001000,0.001000,0.001000,0.001000,0.001000
1024.038462,0.048274,0.001000,0.001000,0.001000,0.001000,0.001000
1024.057692,0.048538,0.001000,0.001000,0.001000,0.001000,0.001000
1024.076923,0.048781,0.001000,0.001000,0.001000,0.001000,0.001000
1024.096154,0.049002,0.001000,0.001000,0.001000,0.001000,0.001000
1024.115385,0.049202,0.001000,0.001000,0.001000,0.001000,0.001000
1024.134615,0.049379,0.001000,0.001000,0.001000,0.001000,0.001000
1024.153846,0.049534,0.001000,0.001000,0.001000,0.001000,0.001000
1024.173077,0.049667,0.001000,0.001000,0.001000,0.001000,0.001000
1024.192308,0.049778,0.001000,0.001000,0.001000,0.001000,0.001000
1024.211538,0.049866,0.001000,0.001000,0.001000,0.001000,0.001000
1024.230769,0.049932,0.001000,0.001000,0.001000,0.001000,0.001000
1024.250000,0.049976,0.001000,0.001000,0.001000,0.001000,0.001000
1024.269231,0.049998,0.001000,0.001000,0.001000,0.001000,0.001000
1024.288462,0.049997,0.001000,0.001000,0.001000,0.001000,0.001000
1024.307692,0.049973,0.001000,0.001000,0.001000,0.001000,0.001000
1024.326923,0.049928,0.001000,0.001000,0.001000,0.001000,0.001000
1024.346154,0.049860,0.001000,0.001000,0.001000,0.001000,0.001000
1024.365385,0.049770,0.001000,0.001000,0.001000,0.001000,0.001000
1024.384615,0.049657,0.001000,0.001000,0.001000,0.001000,0.001000
1024.403846,0.049522,0.001000,0.001000,0.001000,0.001000,0.001000
1024.423077,0.049365,0.001000,0.001000,0.001000,0.001000,0.001000
1024.442308,0.049186,0.001000,0.001000,0.001000,0.001000,0.001000
1024.461538,0.048985,0.001000,0.001000,0.001000,0.001000,0.001000
1024.480769,0.048762,0.001000,0.001000,0.001000,0.001000,0.001000
1024.500000,0.048518,0.001000,0.001000,0.001000,0.001000,0.001000
1024.519231,0.048251,0.001000,0.001000,0.001000,0.001000,0.001000
1024.538462,0.047963,0.001000,0.001000,0.001000,0.001000,0.001000
1024.557692,0.047654,0.001000,0.001000,0.001000,0.001000,0.001000
1024.576923,0.047323,0.001000,0.001000,0.001000,0.001000,0.001000
1024.596154,0.046971,0.001000,0.001000,0.001000,0.001000,0.001000
1024.615385,0.046598,0.001000,0.001000,0.001000,0.001000,0.001000
1024.634615,0.046204,0.001000,0.001000,0.001000,0.001000,0.001000
1024.653846,0.045790,0.001000,0.001000,0.001000,0.001000,0.001000
1024.673077,0.045355,0.001000,0.001000,0.001000,0.001000,0.001000
1024.692308,0.044899,0.001000,0.001000,0.001000,0.001000,0.001000
1024.711538,0.044424,0.001000,0.001000,0.001000,0.001000,0.001000
1024.730769,0.043929,0.001000,0.001000,0.001000,0.001000,0.001000
1024.750000,0.043414,0.001000,0.001000,0.001000,0.001000,0.001000
1024.769231,0.042880,0.001000,0.001000,0.001000,0.001000,0.001000
1024.788462,0.042326,0.001000,0.001000,0.001000,0.001000,0.001000
1024.807692,0.041754,0.001000,0.001000,0.001000,0.001000,0.001000
1024.826923,0.041162,0.001000,0.001000,0.001000,0.001000,0.001000
1024.846154,0.040553,0.001000,0.001000,0.001000,0.001000,0.001000
1024.865385,0.039925,0.001000,0.001000,0.001000,0.001000,0.001000
1024.884615,0.039280,0.001000,0.001000,0.001000,0.001000,0.001000
1024.903846,0.038617,0.001000,0.001000,0.001000,0.001000,0.001000
1024.923077,0.037936,0.001000,0.001000,0.001000,0.001000,0.001000
1024.942308,0.037239,0.001000,0.001000,0.001000,0.001000,0.001000
1024.961538,0.036525,0.001000,0.001000,0.001000,0.001000,0.001000
1024.980769,0.035794,0.001000,0.001000,0.001000,0.001000,0.001000
1025.000000,0.035048,0.001000,0.001000,0.001000,0.001000,0.001000
1025.019231,0.034286,0.001000,0.001000,0.001000,0.001000,0.001000
1025.038462,0.033509,0.001000,0.001000,0.001000,0.001000,0.001000
1025.057692,0.032716,0.001000,0.001000,0.001000,0.001000,0.001000
1025.076923,0.031909,0.001000,0.001000,0.001000,0.001000,0.001000
1025.096154,0.031088,0.001000,0.001000,0.001000,0.001000,0.001000
1025.115385,0.030253,0.001000,0.001000,0.001000,0.001000,0.001000
1025.134615,0.029404,0.001000,0.001000,0.001000,0.001000,0.001000
1025.153846,0.028542,0.001000,0.001000,0.001000,0.001000,0.001000
1025.173077,0.027667,0.001000,0.001000,0.001000,0.001000,0.001000
1025.192308,0.026780,0.001000,0.001000,0.001000,0.001000,0.001000
1025.211538,0.025881,0.001000,0.001000,0.001000,0.001000,0.001000
1025.230769,0.024971,0.001000,0.001000,0.001000,0.001000,0.001000
1025.250000,0.024049,0.001000,0.001000,0.001000,0.001000,0.001000
1025.269231,0.023116,0.001000,0.001000,0.001000,0.001000,0.001000
1025.288462,0.022173,0.001000,0.001000,0.001000,0.001000,0.001000
1025.307692,0.021221,0.001000,0.001000,0.001000,0.001000,0.001000
1025.326923,0.020258,0.001000,0.001000,0.001000,0.001000,0.001000
1025.346154,0.019287,0.001000,0.001000,0.001000,0.001000,0.001000
1025.365385,0.018307,0.001000,0.001000,0.001000,0.001000,0.001000
1025.384615,0.017319,0.001000,0.001000,0.001000,0.001000,0.001000
1025.403846,0.016323,0.001000,0.001000,0.001000,0.001000,0.001000
1025.423077,0.015320,0.001000,0.001000,0.001000,0.001000,0.001000
1025.442308,0.014309,0.001000,0.001000,0.001000,0.001000,0.001000
1025.461538,0.013293,0.001000,0.001000,0.001000,0.001000,0.001000
1025.480769,0.012271,0.001000,0.001000,0.001000,0.001000,0.001000
1025.500000,0.011243,0.001000,0.001000,0.001000,0.001000,0.001000
1025.519231,0.010210,0.001000,0.001000,0.001000,0.001000,0.001000
1025.538462,0.009172,0.001000,0.001000,0.001000,0.001000,0.001000
1025.557692,0.008130,0.001000,0.001000,0.001000,0.001000,0.001000
1025.576923,0.007085,0.001000,0.001000,0.001000,0.001000,0.001000
1025.596154,0.006037,0.001000,0.001000,0.001000,0.001000,0.001000
1025.615385,0.004986,0.001000,0.001000,0.001000,0.001000,0.001000
1025.634615,0.003932,0.001000,0.001000,0.001000,0.001000,0.001000
1025.653846,0.002877,0.001000,0.001000,0.001000,0.001000,0.001000
1025.673077,0.001821,0.001000,0.001000,0.001000,0.001000,0.001000
1025.692308,0.000764,0.001000,0.001000,0.001000,0.001000,0.001000
1025.711538,-0.000294,0.001000,0.001000,0.001000,0.001000,0.001000
1025.730769,-0.001351,0.001000,0.001000,0.001000,0.001000,0.001000
1025.750000,-0.002408,0.001000,0.001000,0.001000,0.001000,0.001000
1025.769231,-0.003464,0.001000,0.001000,0.001000,0.001000,0.001000
1025.788462,-0.004518,0.001000,0.001000,0.001000,0.001000,0.001000
1025.807692,-0.005570,0.001000,0.001000,0.001000,0.001000,0.001000
1025.826923,-0.006620,0.001000,0.001000,0.001000,0.001000,0.001000
1025.846154,-0.007667,0.001000,0.001000,0.001000,0.001000,0.001000
1025.865385,-0.008710,0.001000,0.001000,0.001000,0.001000,0.001000
1025.884615,-0.009750,0.001000,0.001000,0.001000,0.001000,0.001000
1025.903846,-0.010785,0.001000,0.001000,0.001000,0.001000,0.001000
1025.923077,-0.011815,0.001000,0.001000,0.001000,0.001000,0.001000
1025.942308,-0.012840,0.001000,0.001000,0.001000,0.001000,0.001000
1025.961538,-0.013859,0.001000,0.001000,0.001000,0.001000,0.001000
1025.980769,-0.014872,0.001000,0.001000,0.001000,0.001000,0.001000
1026.000000,-0.015878,0.001000,0.001000,0.001000,0.001000,0.001000
1026.019231,-0.016878,0.001000,0.001000,0.001000,0.001000,0.001000
1026.038462,-0.017869,0.001000,0.001000,0.001000,0.001000,0.001000
1026.057692,-0.018853,0.001000,0.001000,0.001000,0.001000,0.001000
1026.076923,-0.019828,0.001000,0.001000,0.001000,0.001000,0.001000
1026.096154,-0.020794,0.001000,0.001000,0.001000,0.001000,0.001000
1026.115385,-0.021752,0.001000,0.001000,0.001000,0.001000,0.001000
1026.134615,-0.022699,0.001000,0.001000,0.001000,0.001000,0.001000
1026.153846,-0.023636,0.001000,0.001000,0.001000,0.001000,0.001000
1026.173077,-0.024563,0.001000,0.001000,0.001000,0.001000,0.001000
1026.192308,-0.025478,0.001000,0.001000,0.001000,0.001000,0.001000
1026.211538,-0.026383,0.001000,0.001000,0.001000,0.001000,0.001000
1026.230769,-0.027275,0.001000,0.001000,0.001000,0.001000,0.001000
1026.250000,-0.028155,0.001000,0.001000,0.001000,0.001000,0.001000
1026.269231,-0.029023,0.001000,0.001000,0.001000,0.001000,0.001000
1026.288462,-0.029877,0.001000,0.001000,0.001000,0.001000,0.001000
1026.307692,-0.030719,0.001000,0.001000,0.001000,0.001000,0.001000
1026.326923,-0.031546,0.001000,0.001000,0.001000,0.001000,0.001000
1026.346154,-0.032360,0.001000,0.001000,0.001000,0.001000,0.001000
1026.365385,-0.033159,0.001000,0.001000,0.001000,0.001000,0.001000
1026.384615,-0.033943,0.001000,0.001000,0.001000,0.001000,0.001000
1026.403846,-0.034712,0.001000,0.001000,0.001000,0.001000,0.001000
1026.423077,-0.035465,0.001000,0.001000,0.001000,0.001000,0.001000
1026.442308,-0.036203,0.001000,0.001000,0.001000,0.001000,0.001000
1026.461538,-0.036924,0.001000,0.001000,0.001000,0.001000,0.001000
1026.480769,-0.037629,0.001000,0.001000,0.001000,0.001000,0.001000
1026.500000,-0.038317,0.001000,0.001000,0.001000,0.001000,0.001000
1026.519231,-0.038987,0.001000,0.001000,0.001000,0.001000,0.001000
1026.538462,-0.039641,0.001000,0.001000,0.001000,0.001000,0.001000
1026.557692,-0.040276,0.001000,0.001000,0.001000,0.001000,0.001000
1026.576923,-0.040894,0.001000,0.001000,0.001000,0.001000,0.001000
1026.596154,-0.041493,0.001000,0.001000,0.001000,0.001000,0.001000
1026.615385,-0.042074,0.001000,0.001000,0.001000,0.001000,0.001000
1026.634615,-0.042636,0.001000,0.001000,0.001000,0.001000,0.001000
1026.653846,-0.043179,0.001000,0.001000,0.001000,0.001000,0.001000
1026.673077,-0.043703,0.001000,0.001000,0.001000,0.001000,0.001000
1026.692308,-0.044207,0.001000,0.001000,0.001000,0.001000,0.001000
1026.711538,-0.044691,0.001000,0.001000,0.001000,0.001000,0.001000
1026.730769,-0.045155,0.001000,0.001000,0.001000,0.001000,0.001000
1026.750000,-0.045599,0.001000,0.001000,0.001000,0.001000,0.001000
1026.769231,-0.046023,0.001000,0.001000,0.001000,0.001000,0.001000
1026.788462,-0.046426,0.001000,0.001000,0.001000,0.001000,0.001000
1026.807692,-0.046808,0.001000,0.001000,0.001000,0.001000,0.001000
1026.826923,-0.047169,0.001000,0.001000,0.001000,0.001000,0.001000
1026.846154,-0.047510,0.001000,0.001000,0.001000,0.001000,0.001000
1026.865385,-0.047829,0.001000,0.001000,0.001000,0.001000,0.001000
1026.884615,-0.048126,0.001000,0.001000,0.001000,0.001000,0.001000
1026.903846,-0.048402,0.001000,0.001000,0.001000,0.001000,0.001000
1026.923077,-0.048657,0.001000,0.001000,0.001000,0.001000,0.001000
1026.942308,-0.048889,0.001000,0.001000,0.001000,0.001000,0.001000
1026.961538,-0.049100,0.001000,0.001000,0.001000,0.001000,0.001000
1026.980769,-0.049289,0.001000,0.001000,0.001000,0.001000,0.001000
1027.000000,-0.049455,0.001000,0.001000,0.001000,0.001000,0.001000
1027.019231,-0.049600,0.001000,0.001000,0.001000,0.001000,0.001000
1027.038462,-0.049722,0.001000,0.001000,0.001000,0.001000,0.001000
1027.057692,-0.049823,0.001000,0.001000,0.001000,0.001000,0.001000
1027.076923,-0.049900,0.001000,0.001000,0.001000,0.001000,0.001000
1027.096154,-0.049956,0.001000,0.001000,0.001000,0.001000,0.001000
1027.115385,-0.049989,0.001000,0.001000,0.001000,0.001000,0.001000
1027.134615,-0.050000,0.001000,0.001000,0.001000,0.001000,0.001000
1027.153846,-0.049988,0.001000,0.001000,0.001000,0.001000,0.001000
1027.173077,-0.049955,0.001000,0.001000,0.001000,0.001000,0.001000
1027.192308,-0.049898,0.001000,0.001000,0.001000,0.001000,0.001000
1027.211538,-0.049820,0.001000,0.001000,0.001000,0.001000,0.001000
1027.230769,-0.049719,0.001000,0.001000,0.001000,0.001000,0.001000
1027.250000,-0.049596,0.001000,0.001000,0.001000,0.001000,0.001000
1027.269231,-0.049450,0.001000,0.001000,0.001000,0.001000,0.001000
1027.288462,-0.049283,0.001000,0.001000,0.001000,0.001000,0.001000
1027.307692,-0.049094,0.001000,0.001000,0.001000,0.001000,0.001000
1027.326923,-0.048882,0.001000,0.001000,0.001000,0.001000,0.001000
1027.346154,-0.048649,0.001000,0.001000,0.001000,0.001000,0.001000
1027.365385,-0.048394,0.001000,0.001000,0.001000,0.001000,0.001000
1027.384615,-0.048117,0.001000,0.001000,0.001000,0.001000,0.001000
1027.403846,-0.047819,0.001000,0.001000,0.001000,0.001000,0.001000
1027.423077,-0.047499,0.001000,0.001000,0.001000,0.001000,0.001000
1027.442308,-0.047158,0.001000,0.001000,0.001000,0.001000,0.001000
1027.461538,-0.046796,0.001000,0.001000,0.001000,0.001000,0.001000
1027.480769,-0.046413,0.001000,0.001000,0.001000,0.001000,0.001000
1027.500000,-0.046010,0.001000,0.001000,0.001000,0.001000,0.001000
1027.519231,-0.045585,0.001000,0.001000,0.001000,0.001000,0.001000
1027.538462,-0.045141,0.001000,0.001000,0.001000,0.001000,0.001000
1027.557692,-0.044676,0.001000,0.001000,0.001000,0.001000,0.001000
1027.576923,-0.044191,0.001000,0.001000,0.001000,0.001000,0.001000
1027.596154,-0.043686,0.001000,0.001000,0.001000,0.001000,0.001000
1027.615385,-0.043162,0.001000,0.001000,0.001000,0.001000,0.001000
1027.634615,-0.042619,0.001000,0.001000,0.001000,0.001000,0.001000
1027.653846,-0.042056,0.001000,0.001000,0.001000,0.001000,0.001000
1027.673077,-0.041475,0.001000,0.001000,0.001000,0.001000,0.001000
1027.692308,-0.040875,0.001000,0.001000,0.001000,0.001000,0.001000
1027.711538,-0.040257,0.001000,0.001000,0.001000,0.001000,0.001000
1027.730769,-0.039621,0.001000,0.001000,0.001000,0.001000,0.001000
1027.750000,-0.038967,0.001000,0.001000,0.001000,0.001000,0.001000
1027.769231,-0.038295,0.001000,0.001000,0.001000,0.001000,0.001000
1027.788462,-0.037607,0.001000,0.001000,0.001000,0.001000,0.001000
1027.807692,-0.036901,0.001000,0.001000,0.001000,0.001000,0.001000
1027.826923,-0.036180,0.001000,0.001000,0.001000,0.001000,0.001000
1027.846154,-0.035442,0.001000,0.001000,0.001000,0.001000,0.001000
1027.865385,-0.034688,0.001000,0.001000,0.001000,0.001000,0.001000
1027.884615,-0.033918,0.001000,0.001000,0.001000,0.001000,0.001000
1027.903846,-0.033134,0.001000,0.001000,0.001000,0.001000,0.001000
1027.923077,-0.032334,0.001000,0.001000,0.001000,0.001000,0.001000
1027.942308,-0.031520,0.001000,0.001000,0.001000,0.001000,0.001000
1027.961538,-0.030692,0.001000,0.001000,0.001000,0.001000,0.001000
1027.980769,-0.029851,0.001000,0.001000,0.001000,0.001000,0.001000
1028.000000,-0.028996,0.001000,0.001000,0.001000,0.001000,0.001000
1028.019231,-0.028128,0.001000,0.001000,0.001000,0.001000,0.001000
1028.038462,-0.027247,0.001000,0.001000,0.001000,0.001000,0.001000
1028.057692,-0.026354,0.001000,0.001000,0.001000,0.001000,0.001000
1028.076923,-0.025450,0.001000,0.001000,0.001000,0.001000,0.001000
1028.096154,-0.024534,0.001000,0.001000,0.001000,0.001000,0.001000
1028.115385,-0.023607,0.001000,0.001000,0.001000,0.001000,0.001000
1028.134615,-0.022669,0.001000,0.001000,0.001000,0.001000,0.001000
1028.153846,-0.021722,0.001000,0.001000,0.001000,0.001000,0.001000
1028.173077,-0.020764,0.001000,0.001000,0.001000,0.001000,0.001000
1028.192308,-0.019798,0.001000,0.001000,0.001000,0.001000,0.001000
1028.211538,-0.018822,0.001000,0.001000,0.001000,0.001000,0.001000
1028.230769,-0.017838,0.001000,0.001000,0.001000,0.001000,0.001000
1028.250000,-0.016846,0.001000,0.001000,0.001000,0.001000,0.001000
1028.269231,-0.015847,0.001000,0.001000,0.001000,0.001000,0.001000
1028.288462,-0.014840,0.001000,0.001000,0.001000,0.001000,0.001000
1028.307692,-0.013827,0.001000,0.001000,0.001000,0.001000,0.001000
1028.326923,-0.012808,0.001000,0.001000,0.001000,0.001000,0.001000
1028.346154,-0.011783,0.001000,0.001000,0.001000,0.001000,0.001000
1028.365385,-0.010752,0.001000,0.001000,0.001000,0.001000,0.001000
1028.384615,-0.009717,0.001000,0.001000,0.001000,0.001000,0.001000
1028.403846,-0.008677,0.001000,0.001000,0.001000,0.001000,0.001000
1028.423077,-0.007634,0.001000,0.001000,0.001000,0.001000,0.001000
1028.442308,-0.006587,0.001000,0.001000,0.001000,0.001000,0.001000
1028.461538,-0.005537,0.001000,0.001000,0.001000,0.001000,0.001000
1028.480769,-0.004485,0.001000,0.001000,0.001000,0.001000,0.001000
1028.500000,-0.003431,0.001000,0.001000,0.001000,0.001000,0.001000
1028.519231,-0.002375,0.001000,0.001000,0.001000,0.001000,0.001000
1028.538462,-0.001318,0.001000,0.001000,0.001000,0.001000,0.001000
1028.557692,-0.000261,0.001000,0.001000,0.001000,0.001000,0.001000
1028.576923,0.000797,0.001000,0.001000,0.001000,0.001000,0.001000
1028.596154,0.001854,0.001000,0.001000,0.001000,0.001000,0.001000
1028.615385,0.002910,0.001000,0.001000,0.001000,0.001000,0.001000
1028.634615,0.003965,0.001000,0.001000,0.001000,0.001000,0.001000
1028.653846,0.005019,0.001000,0.001000,0.001000,0.001000,0.001000
1028.673077,0.006070,0.001000,0.001000,0.001000,0.001000,0.001000
1028.692308,0.007118,0.001000,0.001000,0.001000,0.001000,0.001000
1028.711538,0.008163,0.001000,0.001000,0.001000,0.001000,0.001000
1028.730769,0.009205,0.001000,0.001000,0.001000,0.001000,0.001000
1028.750000,0.010242,0.001000,0.001000,0.001000,0.001000,0.001000
1028.769231,0.011275,0.001000,0.001000,0.001000,0.001000,0.001000
1028.788462,0.012303,0.001000,0.001000,0.001000,0.001000,0.001000
1028.807692,0.013325,0.001000,0.001000,0.001000,0.001000,0.001000
1028.826923,0.014341,0.001000,0.001000,0.001000,0.001000,0.001000
1028.846154,0.015351,0.001000,0.001000,0.001000,0.001000,0.001000
1028.865385,0.016354,0.001000,0.001000,0.001000,0.001000,0.001000
1028.884615,0.017350,0.001000,0.001000,0.001000,0.001000,0.001000
1028.903846,0.018338,0.001000,0.001000,0.001000,0.001000,0.001000
1028.923077,0.019318,0.001000,0.001000,0.001000,0.001000,0.001000
1028.942308,0.020289,0.001000,0.001000,0.001000,0.001000,0.001000
1028.961538,0.021251,0.001000,0.001000,0.001000,0.001000,0.001000
1028.980769,0.022203,0.001000,0.001000,0.001000,0.001000,0.001000
1029.000000,0.023146,0.001000,0.001000,0.001000,0.001000,0.001000
1029.019231,0.024078,0.001000,0.001000,0.001000,0.001000,0.001000
1029.038462,0.024999,0.001000,0.001000,0.001000,0.001000,0.001000
1029.057692,0.025910,0.001000,0.001000,0.001000,0.001000,0.001000
1029.076923,0.026808,0.001000,0.001000,0.001000,0.001000,0.001000
1029.096154,0.027695,0.001000,0.001000,0.001000,0.001000,0.001000
1029.115385,0.028569,0.001000,0.001000,0.001000,0.001000,0.001000
1029.134615,0.029431,0.001000,0.001000,0.001000,0.001000,0.001000
1029.153846,0.030279,0.001000,0.001000,0.001000,0.001000,0.001000
1029.173077,0.031114,0.001000,0.001000,0.001000,0.001000,0.001000
1029.192308,0.031935,0.001000,0.001000,0.001000,0.001000,0.001000
1029.211538,0.032741,0.001000,0.001000,0.001000,0.001000,0.001000
1029.230769,0.033533,0.001000,0.001000,0.001000,0.001000,0.001000
1029.250000,0.034310,0.001000,0.001000,0.001000,0.001000,0.001000
1029.269231,0.035072,0.001000,0.001000,0.001000,0.001000,0.001000
1029.288462,0.035818,0.001000,0.001000,0.001000,0.001000,0.001000
1029.307692,0.036547,0.001000,0.001000,0.001000,0.001000,0.001000
1029.326923,0.037261,0.001000,0.001000,0.001000,0.001000,0.001000
1029.346154,0.037958,0.001000,0.001000,0.001000,0.001000,0.001000
1029.365385,0.038638,0.001000,0.001000,0.001000,0.001000,0.001000
1029.384615,0.039300,0.001000,0.001000,0.001000,0.001000,0.001000
1029.403846,0.039945,0.001000,0.001000,0.001000,0.001000,0.001000
1029.423077,0.040572,0.001000,0.001000,0.001000,0.001000,0.001000
1029.442308,0.041181,0.001000,0.001000,0.001000,0.001000,0.001000
1029.461538,0.041772,0.001000,0.001000,0.001000,0.001000,0.001000
1029.480769,0.042344,0.001000,0.001000,0.001000,0.001000,0.001000
1029.500000,0.042897,0.001000,0.001000,0.001000,0.001000,0.001000
1029.519231,0.043430,0.001000,0.001000,0.001000,0.001000,0.001000
1029.538462,0.043945,0.001000,0.001000,0.001000,0.001000,0.001000
1029.557692,0.044439,0.001000,0.001000,0.001000,0.001000,0.001000
1029.576923,0.044914,0.001000,0.001000,0.001000,0.001000,0.001000
1029.596154,0.045369,0.001000,0.001000,0.001000,0.001000,0.001000
1029.615385,0.045803,0.001000,0.001000,0.001000,0.001000,0.001000
1029.634615,0.046217,0.001000,0.001000,0.001000,0.001000,0.001000
1029.653846,0.046610,0.001000,0.001000,0.001000,0.001000,0.001000
1029.673077,0.046982,0.001000,0.001000,0.001000,0.001000,0.001000
1029.692308,0.047334,0.001000,0.001000,0.001000,0.001000,0.001000
1029.711538,0.047664,0.001000,0.001000,0.001000,0.001000,0.001000
1029.730769,0.047973,0.001000,0.001000,0.001000,0.001000,0.001000
1029.750000,0.048260,0.001000,0.001000,0.001000,0.001000,0.001000
1029.769231,0.048526,0.001000,0.001000,0.001000,0.001000,0.001000
1029.788462,0.048770,0.001000,0.001000,0.001000,0.001000,0.001000
1029.807692,0.048992,0.001000,0.001000,0.001000,0.001000,0.001000
1029.826923,0.049192,0.001000,0.001000,0.001000,0.001000,0.001000
1029.846154,0.049371,0.001000,0.001000,0.001000,0.001000,0.001000
1029.865385,0.049527,0.001000,0.001000,0.001000,0.001000,0.001000
1029.884615,0.049661,0.001000,0.001000,0.001000,0.001000,0.001000
1029.903846,0.049773,0.001000,0.001000,0.001000,0.001000,0.001000
1029.923077,0.049862,0.001000,0.001000,0.001000,0.001000,0.001000
1029.942308,0.049930,0.001000,0.001000,0.001000,0.001000,0.001000
1029.961538,0.049975,0.001000,0.001000,0.001000,0.001000,0.001000
1029.980769,0.049997,0.001000,0.001000,0.001000,0.001000,0.001000
1030.000000,0.000000,0.001000,0.001000,0.001000,0.001000,0.001000
1030.019231,0.001084,0.001000,0.001000,0.001000,0.001000,0.001000
1030.038462,0.002167,0.001000,0.001000,0.001000,0.001000,0.001000
1030.057692,0.003248,0.001000,0.001000,0.001000,0.001000,0.001000
1030.076923,0.004329,0.001000,0.001000,0.001000,0.001000,0.001000
1030.096154,0.005407,0.001000,0.001000,0.001000,0.001000,0.001000
1030.115385,0.006483,0.001000,0.001000,0.001000,0.001000,0.001000
1030.134615,0.007556,0.001000,0.001000,0.001000,0.001000,0.001000
1030.153846,0.008625,0.001000,0.001000,0.001000,0.001000,0.001000
1030.173077,0.009691,0.001000,0.001000,0.001000,0.001000,0.001000
1030.192308,0.010751,0.001000,0.001000,0.001000,0.001000,0.001000
1030.211538,0.011807,0.001000,0.001000,0.001000,0.001000,0.001000
1030.230769,0.012857,0.001000,0.001000,0.001000,0.001000,0.001000
1030.250000,0.013901,0.001000,0.001000,0.001000,0.001000,0.001000
1030.269231,0.014939,0.001000,0.001000,0.001000,0.001000,0.001000
1030.288462,0.015969,0.001000,0.001000,0.001000,0.001000,0.001000
1030.307692,0.016992,0.001000,0.001000,0.001000,0.001000,0.001000
1030.326923,0.018007,0.001000,0.001000,0.001000,0.001000,0.001000
1030.346154,0.019014,0.001000,0.001000,0.001000,0.001000,0.001000
1030.365385,0.020011,0.001000,0.001000,0.001000,0.001000,0.001000
1030.384615,0.021000,0.001000,0.001000,0.001000,0.001000,0.001000
1030.403846,0.021978,0.001000,0.001000,0.001000,0.001000,0.001000
1030.423077,0.022946,0.001000,0.001000,0.001000,0.001000,0.001000
1030.442308,0.023903,0.001000,0.001000,0.001000,0.001000,0.001000
1030.461538,0.024849,0.001000,0.001000,0.001000,0.001000,0.001000
1030.480769,0.025784,0.001000,0.001000,0.001000,0.001000,0.001000
1030.500000,0.026706,0.001000,0.001000,0.001000,0.001000,0.001000
1030.519231,0.027616,0.001000,0.001000,0.001000,0.001000,0.001000
1030.538462,0.028513,0.001000,0.001000,0.001000,0.001000,0.001000
1030.557692,0.029396,0.001000,0.001000,0.001000,0.001000,0.001000
1030.576923,0.030265,0.001000,0.001000,0.001000,0.001000,0.001000
1030.596154,0.031121,0.001000,0.001000,0.001000,0.001000,0.001000
1030.615385,0.031962,0.001000,0.001000,0.001000,0.001000,0.001000
1030.634615,0.032787,0.001000,0.001000,0.001000,0.001000,0.001000
1030.653846,0.033598,0.001000,0.001000,0.001000,0.001000,0.001000
1030.673077,0.034392,0.001000,0.001000,0.001000,0.001000,0.001000
1030.692308,0.035171,0.001000,0.001000,0.001000,0.001000,0.001000
1030.711538,0.035932,0.001000,0.001000,0.001000,0.001000,0.001000
1030.730769,0.036677,0.001000,0.001000,0.001000,0.001000,0.001000
1030.750000,0.037405,0.001000,0.001000,0.001000,0.001000,0.001000
1030.769231,0.038115,0.001000,0.001000,0.001000,0.001000,0.001000
1030.788462,0.038808,0.001000,0.001000,0.001000,0.001000,0.001000
1030.807692,0.039482,0.001000,0.001000,0.001000,0.001000,0.001000
1030.826923,0.040137,0.001000,0.001000,0.001000,0.001000,0.001000
1030.846154,0.040774,0.001000,0.001000,0.001000,0.001000,0.001000
1030.865385,0.041392,0.001000,0.001000,0.001000,0.001000,0.001000
1030.884615,0.041990,0.001000,0.001000,0.001000,0.001000,0.001000
1030.903846,0.042568,0.001000,0.001000,0.001000,0.001000,0.001000
1030.923077,0.043126,0.001000,0.001000,0.001000,0.001000,0.001000
1030.942308,0.043665,0.001000,0.001000,0.001000,0.001000,0.001000
1030.961538,0.044182,0.001000,0.001000,0.001000,0.001000,0.001000
1030.980769,0.044679,0.001000,0.001000,0.001000,0.001000,0.001000
1031.000000,0.045155,0.001000,0.001000,0.001000,0.001000,0.001000
1031.019231,0.045610,0.001000,0.001000,0.001000,0.001000,0.001000
1031.038462,0.046043,0.001000,0.001000,0.001000,0.001000,0.001000
1031.057692,0.046455,0.001000,0.001000,0.001000,0.001000,0.001000
1031.076923,0.046844,0.001000,0.001000,0.001000,0.001000,0.001000
1031.096154,0.047212,0.001000,0.001000,0.001000,0.001000,0.001000
1031.115385,0.047558,0.001000,0.001000,0.001000,0.001000,0.001000
1031.134615,0.047881,0.001000,0.001000,0.001000,0.001000,0.001000
1031.153846,0.048182,0.001000,0.001000,0.001000,0.001000,0.001000
1031.173077,0.048460,0.001000,0.001000,0.001000,0.001000,0.001000
1031.192308,0.048716,0.001000,0.001000,0.001000,0.001000,0.001000
1031.211538,0.048948,0.001000,0.001000,0.001000,0.001000,0.001000
1031.230769,0.049158,0.001000,0.001000,0.001000,0.001000,0.001000
1031.250000,0.049344,0.001000,0.001000,0.001000,0.001000,0.001000
1031.269231,0.049508,0.001000,0.001000,0.001000,0.001000,0.001000
1031.288462,0.049648,0.001000,0.001000,0.001000,0.001000,0.001000
1031.307692,0.049764,0.001000,0.001000,0.001000,0.001000,0.001000
1031.326923,0.049858,0.001000,0.001000,0.001000,0.001000,0.001000
1031.346154,0.049928,0.001000,0.001000,0.001000,0.001000,0.001000
1031.365385,0.049974,0.001000,0.001000,0.001000,0.001000,0.001000
1031.384615,0.049997,0.001000,0.001000,0.001000,0.001000,0.001000
1031.403846,0.049997,0.001000,0.001000,0.001000,0.001000,0.001000
1031.423077,0.049973,0.001000,0.001000,0.001000,0.001000,0.001000
1031.442308,0.049926,0.001000,0.001000,0.001000,0.001000,0.001000
1031.461538,0.049855,0.001000,0.001000,0.001000,0.001000,0.001000
1031.480769,0.049760,0.001000,0.001000,0.001000,0.001000,0.001000
1031.500000,0.049643,0.001000,0.001000,0.001000,0.001000,0.001000
1031.519231,0.049502,0.001000,0.001000,0.001000,0.001000,0.001000
1031.538462,0.049338,0.001000,0.001000,0.001000,0.001000,0.001000
1031.557692,0.049150,0.001000,0.001000,0.001000,0.001000,0.001000
1031.576923,0.048940,0.001000,0.001000,0.001000,0.001000,0.001000
1031.596154,0.048706,0.001000,0.001000,0.001000,0.001000,0.001000
1031.615385,0.048450,0.001000,0.001000,0.001000,0.001000,0.001000
1031.634615,0.048171,0.001000,0.001000,0.001000,0.001000,0.001000
1031.653846,0.047869,0.001000,0.001000,0.001000,0.001000,0.001000
1031.673077,0.047545,0.001000,0.001000,0.001000,0.001000,0.001000
1031.692308,0.047199,0.001000,0.001000,0.001000,0.001000,0.001000
1031.711538,0.046830,0.001000,0.001000,0.001000,0.001000,0.001000
1031.730769,0.046439,0.001000,0.001000,0.001000,0.001000,0.001000
1031.750000,0.046027,0.001000,0.001000,0.001000,0.001000,0.001000
1031.769231,0.045593,0.001000,0.001000,0.001000,0.001000,0.001000
1031.788462,0.045137,0.001000,0.001000,0.001000,0.001000,0.001000
1031.807692,0.044661,0.001000,0.001000,0.001000,0.001000,0.001000
1031.826923,0.044163,0.001000,0.001000,0.001000,0.001000,0.001000
1031.846154,0.043645,0.001000,0.001000,0.001000,0.001000,0.001000
1031.865385,0.043106,0.001000,0.001000,0.001000,0.001000,0.001000
1031.884615,0.042547,0.001000,0.001000,0.001000,0.001000,0.001000
1031.903846,0.041967,0.001000,0.001000,0.001000,0.001000,0.001000
1031.923077,0.041369,0.001000,0.001000,0.001000,0.001000,0.001000
1031.942308,0.040750,0.001000,0.001000,0.001000,0.001000,0.001000
1031.961538,0.040113,0.001000,0.001000,0.001000,0.001000,0.001000
1031.980769,0.039457,0.001000,0.001000,0.001000,0.001000,0.001000
1032.000000,0.038782,0.001000,0.001000,0.001000,0.001000,0.001000
1032.019231,0.038089,0.001000,0.001000,0.001000,0.001000,0.001000
1032.038462,0.037378,0.001000,0.001000,0.001000,0.001000,0.001000
1032.057692,0.036650,0.001000,0.001000,0.001000,0.001000,0.001000
1032.076923,0.035904,0.001000,0.001000,0.001000,0.001000,0.001000
1032.096154,0.035141,0.001000,0.001000,0.001000,0.001000,0.001000
1032.115385,0.034362,0.001000,0.001000,0.001000,0.001000,0.001000
1032.134615,0.033567,0.001000,0.001000,0.001000,0.001000,0.001000
1032.153846,0.032756,0.001000,0.001000,0.001000,0.001000,0.001000
1032.173077,0.031930,0.001000,0.001000,0.001000,0.001000,0.001000
1032.192308,0.031089,0.001000,0.001000,0.001000,0.001000,0.001000
1032.211538,0.030233,0.001000,0.001000,0.001000,0.001000,0.001000
1032.230769,0.029363,0.001000,0.001000,0.001000,0.001000,0.001000
1032.250000,0.028479,0.001000,0.001000,0.001000,0.001000,0.001000
1032.269231,0.027582,0.001000,0.001000,0.001000,0.001000,0.001000
1032.288462,0.026671,0.001000,0.001000,0.001000,0.001000,0.001000
1032.307692,0.025749,0.001000,0.001000,0.001000,0.001000,0.001000
1032.326923,0.024814,0.001000,0.001000,0.001000,0.001000,0.001000
1032.346154,0.023867,0.001000,0.001000,0.001000,0.001000,0.001000
1032.365385,0.022910,0.001000,0.001000,0.001000,0.001000,0.001000
1032.384615,0.021941,0.001000,0.001000,0.001000,0.001000,0.001000
1032.403846,0.020962,0.001000,0.001000,0.001000,0.001000,0.001000
1032.423077,0.019974,0.001000,0.001000,0.001000,0.001000,0.001000
1032.442308,0.018976,0.001000,0.001000,0.001000,0.001000,0.001000
1032.461538,0.017969,0.001000,0.001000,0.001000,0.001000,0.001000
1032.480769,0.016954,0.001000,0.001000,0.001000,0.001000,0.001000
1032.500000,0.015930,0.001000,0.001000,0.001000,0.001000,0.001000
1032.519231,0.014899,0.001000,0.001000,0.001000,0.001000,0.001000
1032.538462,0.013862,0.001000,0.001000,0.001000,0.001000,0.001000
1032.557692,0.012817,0.001000,0.001000,0.001000,0.001000,0.001000
1032.576923,0.011767,0.001000,0.001000,0.001000,0.001000,0.001000
1032.596154,0.010711,0.001000,0.001000,0.001000,0.001000,0.001000
1032.615385,0.009650,0.001000,0.001000,0.001000,0.001000,0.001000
1032.634615,0.008585,0.001000,0.001000,0.001000,0.001000,0.001000
1032.653846,0.007516,0.001000,0.001000,0.001000,0.001000,0.001000
1032.673077,0.006443,0.001000,0.001000,0.001000,0.001000,0.001000
1032.692308,0.005367,0.001000,0.001000,0.001000,0.001000,0.001000
1032.711538,0.004288,0.001000,0.001000,0.001000,0.001000,0.001000
1032.730769,0.003208,0.001000,0.001000,0.001000,0.001000,0.001000
1032.750000,0.002126,0.001000,0.001000,0.001000,0.001000,0.001000
1032.769231,0.001043,0.001000,0.001000,0.001000,0.001000,0.001000
1032.788462,-0.000041,0.001000,0.001000,0.001000,0.001000,0.001000
1032.807692,-0.001124,0.001000,0.001000,0.001000,0.001000,0.001000
1032.826923,-0.002207,0.001000,0.001000,0.001000,0.001000,0.001000
1032.846154,-0.003289,0.001000,0.001000,0.001000,0.001000,0.001000
1032.865385,-0.004370,0.001000,0.001000,0.001000,0.001000,0.001000
1032.884615,-0.005448,0.001000,0.001000,0.001000,0.001000,0.001000
1032.903846,-0.006524,0.001000,0.001000,0.001000,0.001000,0.001000
1032.923077,-0.007597,0.001000,0.001000,0.001000,0.001000,0.001000
1032.942308,-0.008666,0.001000,0.001000,0.001000,0.001000,0.001000
1032.961538,-0.009731,0.001000,0.001000,0.001000,0.001000,0.001000
1032.980769,-0.010791,0.001000,0.001000,0.001000,0.001000,0.001000
1033.000000,-0.011847,0.001000,0.001000,0.001000,0.001000,0.001000
1033.019231,-0.012897,0.001000,0.001000,0.001000,0.001000,0.001000
1033.038462,-0.013940,0.001000,0.001000,0.001000,0.001000,0.001000
1033.057692,-0.014978,0.001000,0.001000,0.001000,0.001000,0.001000
1033.076923,-0.016008,0.001000,0.001000,0.001000,0.001000,0.001000
1033.096154,-0.017031,0.001000,0.001000,0.001000,0.001000,0.001000
1033.115385,-0.018045,0.001000,0.001000,0.001000,0.001000,0.001000
1033.134615,-0.019052,0.001000,0.001000,0.001000,0.001000,0.001000
1033.153846,-0.020049,0.001000,0.001000,0.001000,0.001000,0.001000
1033.173077,-0.021037,0.001000,0.001000,0.001000,0.001000,0.001000
1033.192308,-0.022015,0.001000,0.001000,0.001000,0.001000,0.001000
1033.211538,-0.022982,0.001000,0.001000,0.001000,0.001000,0.001000
1033.230769,-0.023939,0.001000,0.001000,0.001000,0.001000,0.001000
1033.250000,-0.024885,0.001000,0.001000,0.001000,0.001000,0.001000
1033.269231,-0.025819,0.001000,0.001000,0.001000,0.001000,0.001000
1033.288462,-0.026741,0.001000,0.001000,0.001000,0.001000,0.001000
1033.307692,-0.027650,0.001000,0.001000,0.001000,0.001000,0.001000
1033.326923,-0.028546,0.001000,0.001000,0.001000,0.001000,0.001000
1033.346154,-0.029429,0.001000,0.001000,0.001000,0.001000,0.001000
1033.365385,-0.030298,0.001000,0.001000,0.001000,0.001000,0.001000
1033.384615,-0.031153,0.001000,0.001000,0.001000,0.001000,0.001000
1033.403846,-0.031993,0.001000,0.001000,0.001000,0.001000,0.001000
1033.423077,-0.032818,0.001000,0.001000,0.001000,0.001000,0.001000
1033.442308,-0.033628,0.001000,0.001000,0.001000,0.001000,0.001000
1033.461538,-0.034422,0.001000,0.001000,0.001000,0.001000,0.001000
1033.480769,-0.035200,0.001000,0.001000,0.001000,0.001000,0.001000
1033.500000,-0.035961,0.001000,0.001000,0.001000,0.001000,0.001000
1033.519231,-0.036705,0.001000,0.001000,0.001000,0.001000,0.001000
1033.538462,-0.037432,0.001000,0.001000,0.001000,0.001000,0.001000
1033.557692,-0.038142,0.001000,0.001000,0.001000,0.001000,0.001000
1033.576923,-0.038834,0.001000,0.001000,0.001000,0.001000,0.001000
1033.596154,-0.039507,0.001000,0.001000,0.001000,0.001000,0.001000
1033.615385,-0.040162,0.001000,0.001000,0.001000,0.001000,0.001000
1033.634615,-0.040798,0.001000,0.001000,0.001000,0.001000,0.001000
1033.653846,-0.041415,0.001000,0.001000,0.001000,0.001000,0.001000
1033.673077,-0.042012,0.001000,0.001000,0.001000,0.001000,0.001000
1033.692308,-0.042590,0.001000,0.001000,0.001000,0.001000,0.001000
1033.711538,-0.043147,0.001000,0.001000,0.001000,0.001000,0.001000
1033.730769,-0.043685,0.001000,0.001000,0.001000,0.001000,0.001000
1033.750000,-0.044201,0.001000,0.001000,0.001000,0.001000,0.001000
1033.769231,-0.044697,0.001000,0.001000,0.001000,0.001000,0.001000
1033.788462,-0.045173,0.001000,0.001000,0.001000,0.001000,0.001000
1033.807692,-0.045626,0.001000,0.001000,0.001000,0.001000,0.001000
1033.826923,-0.046059,0.001000,0.001000,0.001000,0.001000,0.001000
1033.846154,-0.046470,0.001000,0.001000,0.001000,0.001000,0.001000
1033.865385,-0.046859,0.001000,0.001000,0.001000,0.001000,0.001000
1033.884615,-0.047226,0.001000,0.001000,0.001000,0.001000,0.001000
1033.903846,-0.047571,0.001000,0.001000,0.001000,0.001000,0.001000
1033.923077,-0.047893,0.001000,0.001000,0.001000,0.001000,0.001000
1033.942308,-0.048193,0.001000,0.001000,0.001000,0.001000,0.001000
1033.961538,-0.048470,0.001000,0.001000,0.001000,0.001000,0.001000
1033.980769,-0.048725,0.001000,0.001000,0.001000,0.001000,0.001000
1034.000000,-0.048957,0.001000,0.001000,0.001000,0.001000,0.001000
1034.019231,-0.049165,0.001000,0.001000,0.001000,0.001000,0.001000
1034.038462,-0.049351,0.001000,0.001000,0.001000,0.001000,0.001000
1034.057692,-0.049513,0.001000,0.001000,0.001000,0.001000,0.001000
1034.076923,-0.049653,0.001000,0.001000,0.001000,0.001000,0.001000
1034.096154,-0.049768,0.001000,0.001000,0.001000,0.001000,0.001000
1034.115385,-0.049861,0.001000,0.001000,0.001000,0.001000,0.001000
1034.134615,-0.049930,0.001000,0.001000,0.001000,0.001000,0.001000
1034.153846,-0.049976,0.001000,0.001000,0.001000,0.001000,0.001000
1034.173077,-0.049998,0.001000,0.001000,0.001000,0.001000,0.001000
1034.192308,-0.049996,0.001000,0.001000,0.001000,0.001000,0.001000
1034.211538,-0.049972,0.001000,0.001000,0.001000,0.001000,0.001000
1034.230769,-0.049923,0.001000,0.001000,0.001000,0.001000,0.001000
1034.250000,-0.049852,0.001000,0.001000,0.001000,0.001000,0.001000
1034.269231,-0.049756,0.001000,0.001000,0.001000,0.001000,0.001000
1034.288462,-0.049638,0.001000,0.001000,0.001000,0.001000,0.001000
1034.307692,-0.049496,0.001000,0.001000,0.001000,0.001000,0.001000
1034.326923,-0.049331,0.001000,0.001000,0.001000,0.001000,0.001000
1034.346154,-0.049143,0.001000,0.001000,0.001000,0.001000,0.001000
1034.365385,-0.048931,0.001000,0.001000,0.001000,0.001000,0.001000
1034.384615,-0.048697,0.001000,0.001000,0.001000,0.001000,0.001000
1034.403846,-0.048440,0.001000,0.001000,0.001000,0.001000,0.001000
1034.423077,-0.048160,0.001000,0.001000,0.001000,0.001000,0.001000
1034.442308,-0.047858,0.001000,0.001000,0.001000,0.001000,0.001000
1034.461538,-0.047533,0.001000,0.001000,0.001000,0.001000,0.001000
1034.480769,-0.047185,0.001000,0.001000,0.001000,0.001000,0.001000
1034.500000,-0.046816,0.001000,0.001000,0.001000,0.001000,0.001000
1034.519231,-0.046424,0.001000,0.001000,0.001000,0.001000,0.001000
1034.538462,-0.046011,0.001000,0.001000,0.001000,0.001000,0.001000
1034.557692,-0.045576,0.001000,0.001000,0.001000,0.001000,0.001000
1034.576923,-0.045120,0.001000,0.001000,0.001000,0.001000,0.001000
1034.596154,-0.044642,0.001000,0.001000,0.001000,0.001000,0.001000
1034.615385,-0.044144,0.001000,0.001000,0.001000,0.001000,0.001000
1034.634615,-0.043625,0.001000,0.001000,0.001000,0.001000,0.001000
1034.653846,-0.043085,0.001000,0.001000,0.001000,0.001000,0.001000
1034.673077,-0.042525,0.001000,0.001000,0.001000,0.001000,0.001000
