timestamp,ax,ay,az,gx,gy,gz
1000.000000,0.000000,0.001000,0.001000,0.001000,0.001000,0.001000
1000.019231,0.001262,0.001000,0.001000,0.001000,0.001000,0.001000
1000.038462,0.002523,0.001000,0.001000,0.001000,0.001000,0.001000
1000.057692,0.003782,0.001000,0.001000,0.001000,0.001000,0.001000
1000.076923,0.005039,0.001000,0.001000,0.001000,0.001000,0.001000
1000.096154,0.006293,0.001000,0.001000,0.001000,0.001000,0.001000
1000.115385,0.007543,0.001000,0.001000,0.001000,0.001000,0.001000
1000.134615,0.008788,0.001000,0.001000,0.001000,0.001000,0.001000
1000.153846,0.010028,0.001000,0.001000,0.001000,0.001000,0.001000
1000.173077,0.011261,0.001000,0.001000,0.001000,0.001000,0.001000
1000.192308,0.012487,0.001000,0.001000,0.001000,0.001000,0.001000
1000.211538,0.013704,0.001000,0.001000,0.001000,0.001000,0.001000
1000.230769,0.014914,0.001000,0.001000,0.001000,0.001000,0.001000
1000.250000,0.016113,0.001000,0.001000,0.001000,0.001000,0.001000
1000.269231,0.017303,0.001000,0.001000,0.001000,0.001000,0.001000
1000.288462,0.018481,0.001000,0.001000,0.001000,0.001000,0.001000
1000.307692,0.019648,0.001000,0.001000,0.001000,0.001000,0.001000
1000.326923,0.020802,0.001000,0.001000,0.001000,0.001000,0.001000
1000.346154,0.021943,0.001000,0.001000,0.001000,0.001000,0.001000
1000.365385,0.023070,0.001000,0.001000,0.001000,0.001000,0.001000
1000.384615,0.024182,0.001000,0.001000,0.001000,0.001000,0.001000
1000.403846,0.025279,0.001000,0.001000,0.001000,0.001000,0.001000
1000.423077,0.026359,0.001000,0.001000,0.001000,0.001000,0.001000
1000.442308,0.027423,0.001000,0.001000,0.001000,0.001000,0.001000
1000.461538,0.028470,0.001000,0.001000,0.001000,0.001000,0.001000
1000.480769,0.029498,0.001000,0.001000,0.001000,0.001000,0.001000
1000.500000,0.030507,0.001000,0.001000,0.001000,0.001000,0.001000
1000.519231,0.031497,0.001000,0.001000,0.001000,0.001000,0.001000
1000.538462,0.032467,0.001000,0.001000,0.001000,0.001000,0.001000
1000.557692,0.033417,0.001000,0.001000,0.001000,0.001000,0.001000
1000.576923,0.034345,0.001000,0.001000,0.001000,0.001000,0.001000
1000.596154,0.035251,0.001000,0.001000,0.001000,0.001000,0.001000
1000.615385,0.036134,0.001000,0.001000,0.001000,0.001000,0.001000
1000.634615,0.036995,0.001000,0.001000,0.001000,0.001000,0.001000
1000.653846,0.037832,0.001000,0.001000,0.001000,0.001000,0.001000
1000.673077,0.038645,0.001000,0.001000,0.001000,0.001000,0.001000
1000.692308,0.039434,0.001000,0.001000,0.001000,0.001000,0.001000
1000.711538,0.040197,0.001000,0.001000,0.001000,0.001000,0.001000
1000.730769,0.040935,0.001000,0.001000,0.001000,0.001000,0.001000
1000.750000,0.041646,0.001000,0.001000,0.001000,0.001000,0.001000
1000.769231,0.042331,0.001000,0.001000,0.001000,0.001000,0.001000
1000.788462,0.042989,0.001000,0.001000,0.001000,0.001000,0.001000
1000.807692,0.043620,0.001000,0.001000,0.001000,0.001000,0.001000
1000.826923,0.044223,0.001000,0.001000,0.001000,0.001000,0.001000
1000.846154,0.044798,0.001000,0.001000,0.001000,0.001000,0.001000
1000.865385,0.045344,0.001000,0.001000,0.001000,0.001000,0.001000
1000.884615,0.045861,0.001000,0.001000,0.001000,0.001000,0.001000
1000.903846,0.046349,0.001000,0.001000,0.001000,0.001000,0.001000
1000.923077,0.046808,0.001000,0.001000,0.001000,0.001000,0.001000
1000.942308,0.047236,0.001000,0.001000,0.001000,0.001000,0.001000
1000.961538,0.047635,0.001000,0.001000,0.001000,0.001000,0.001000
1000.980769,0.048003,0.001000,0.001000,0.001000,0.001000,0.001000
1001.000000,0.048341,0.001000,0.001000,0.001000,0.001000,0.001000
1001.019231,0.048648,0.001000,0.001000,0.001000,0.001000,0.001000
1001.038462,0.048924,0.001000,0.001000,0.001000,0.001000,0.001000
1001.057692,0.049169,0.001000,0.001000,0.001000,0.001000,0.001000
1001.076923,0.049382,0.001000,0.001000,0.001000,0.001000,0.001000
1001.096154,0.049564,0.001000,0.001000,0.001000,0.001000,0.001000
1001.115385,0.049715,0.001000,0.001000,0.001000,0.001000,0.001000
1001.134615,0.049834,0.001000,0.001000,0.001000,0.001000,0.001000
1001.153846,0.049921,0.001000,0.001000,0.001000,0.001000,0.001000
1001.173077,0.049976,0.001000,0.001000,0.001000,0.001000,0.001000
1001.192308,0.049999,0.001000,0.001000,0.001000,0.001000,0.001000
1001.211538,0.049991,0.001000,0.001000,0.001000,0.001000,0.001000
1001.230769,0.049950,0.001000,0.001000,0.001000,0.001000,0.001000
1001.250000,0.049878,0.001000,0.001000,0.001000,0.001000,0.001000
1001.269231,0.049774,0.001000,0.001000,0.001000,0.001000,0.001000
1001.288462,0.049639,0.001000,0.001000,0.001000,0.001000,0.001000
1001.307692,0.049471,0.001000,0.001000,0.001000,0.001000,0.001000
1001.326923,0.049273,0.001000,0.001000,0.001000,0.001000,0.001000
1001.346154,0.049043,0.001000,0.001000,0.001000,0.001000,0.001000
1001.365385,0.048781,0.001000,0.001000,0.001000,0.001000,0.001000
1001.384615,0.048489,0.001000,0.001000,0.001000,0.001000,0.001000
1001.403846,0.048165,0.001000,0.001000,0.001000,0.001000,0.001000
1001.423077,0.047811,0.001000,0.001000,0.001000,0.001000,0.001000
1001.442308,0.047427,0.001000,0.001000,0.001000,0.001000,0.001000
1001.461538,0.047012,0.001000,0.001000,0.001000,0.001000,0.001000
1001.480769,0.046567,0.001000,0.001000,0.001000,0.001000,0.001000
1001.500000,0.046093,0.001000,0.001000,0.001000,0.001000,0.001000
1001.519231,0.045589,0.001000,0.001000,0.001000,0.001000,0.001000
1001.538462,0.045057,0.001000,0.001000,0.001000,0.001000,0.001000
1001.557692,0.044495,0.001000,0.001000,0.001000,0.001000,0.001000
1001.576923,0.043905,0.001000,0.001000,0.001000,0.001000,0.001000
1001.596154,0.043288,0.001000,0.001000,0.001000,0.001000,0.001000
1001.615385,0.042642,0.001000,0.001000,0.001000,0.001000,0.001000
1001.634615,0.041970,0.001000,0.001000,0.001000,0.001000,0.001000
1001.653846,0.041271,0.001000,0.001000,0.001000,0.001000,0.001000
1001.673077,0.040545,0.001000,0.001000,0.001000,0.001000,0.001000
1001.692308,0.039794,0.001000,0.001000,0.001000,0.001000,0.001000
1001.711538,0.039017,0.001000,0.001000,0.001000,0.001000,0.001000
1001.730769,0.038216,0.001000,0.001000,0.001000,0.001000,0.001000
1001.750000,0.037390,0.001000,0.001000,0.001000,0.001000,0.001000
1001.769231,0.036540,0.001000,0.001000,0.001000,0.001000,0.001000
1001.788462,0.035667,0.001000,0.001000,0.001000,0.001000,0.001000
1001.807692,0.034771,0.001000,0.001000,0.001000,0.001000,0.001000
1001.826923,0.033854,0.001000,0.001000,0.001000,0.001000,0.001000
1001.846154,0.032914,0.001000,0.001000,0.001000,0.001000,0.001000
1001.865385,0.031954,0.001000,0.001000,0.001000,0.001000,0.001000
1001.884615,0.030973,0.001000,0.001000,0.001000,0.001000,0.001000
1001.903846,0.029973,0.001000,0.001000,0.001000,0.001000,0.001000
1001.923077,0.028953,0.001000,0.001000,0.001000,0.001000,0.001000
1001.942308,0.027915,0.001000,0.001000,0.001000,0.001000,0.001000
1001.961538,0.026859,0.001000,0.001000,0.001000,0.001000,0.001000
1001.980769,0.025786,0.001000,0.001000,0.001000,0.001000,0.001000
1002.000000,0.024697,0.001000,0.001000,0.001000,0.001000,0.001000
1002.019231,0.023592,0.001000,0.001000,0.001000,0.001000,0.001000
1002.038462,0.022472,0.001000,0.001000,0.001000,0.001000,0.001000
1002.057692,0.021337,0.001000,0.001000,0.001000,0.001000,0.001000
1002.076923,0.020189,0.001000,0.001000,0.001000,0.001000,0.001000
1002.096154,0.019028,0.001000,0.001000,0.001000,0.001000,0.001000
1002.115385,0.017856,0.001000,0.001000,0.001000,0.001000,0.001000
1002.134615,0.016671,0.001000,0.001000,0.001000,0.001000,0.001000
1002.153846,0.015476,0.001000,0.001000,0.001000,0.001000,0.001000
1002.173077,0.014271,0.001000,0.001000,0.001000,0.001000,0.001000
1002.192308,0.013057,0.001000,0.001000,0.001000,0.001000,0.001000
1002.211538,0.011835,0.001000,0.001000,0.001000,0.001000,0.001000
1002.230769,0.010605,0.001000,0.001000,0.001000,0.001000,0.001000
1002.250000,0.009369,0.001000,0.001000,0.001000,0.001000,0.001000
1002.269231,0.008126,0.001000,0.001000,0.001000,0.001000,0.001000
1002.288462,0.006879,0.001000,0.001000,0.001000,0.001000,0.001000
1002.307692,0.005627,0.001000,0.001000,0.001000,0.001000,0.001000
1002.326923,0.004371,0.001000,0.001000,0.001000,0.001000,0.001000
1002.346154,0.003112,0.001000,0.001000,0.001000,0.001000,0.001000
1002.365385,0.001852,0.001000,0.001000,0.001000,0.001000,0.001000
1002.384615,0.000590,0.001000,0.001000,0.001000,0.001000,0.001000
1002.403846,-0.000672,0.001000,0.001000,0.001000,0.001000,0.001000
1002.423077,-0.001933,0.001000,0.001000,0.001000,0.001000,0.001000
1002.442308,-0.003193,0.001000,0.001000,0.001000,0.001000,0.001000
1002.461538,-0.004452,0.001000,0.001000,0.001000,0.001000,0.001000
1002.480769,-0.005707,0.001000,0.001000,0.001000,0.001000,0.001000
1002.500000,-0.006959,0.001000,0.001000,0.001000,0.001000,0.001000
1002.519231,-0.008206,0.001000,0.001000,0.001000,0.001000,0.001000
1002.538462,-0.009448,0.001000,0.001000,0.001000,0.001000,0.001000
1002.557692,-0.010685,0.001000,0.001000,0.001000,0.001000,0.001000
1002.576923,-0.011914,0.001000,0.001000,0.001000,0.001000,0.001000
1002.596154,-0.013136,0.001000,0.001000,0.001000,0.001000,0.001000
1002.615385,-0.014349,0.001000,0.001000,0.001000,0.001000,0.001000
1002.634615,-0.015553,0.001000,0.001000,0.001000,0.001000,0.001000
1002.653846,-0.016748,0.001000,0.001000,0.001000,0.001000,0.001000
1002.673077,-0.017931,0.001000,0.001000,0.001000,0.001000,0.001000
1002.692308,-0.019103,0.001000,0.001000,0.001000,0.001000,0.001000
1002.711538,-0.020263,0.001000,0.001000,0.001000,0.001000,0.001000
1002.730769,-0.021411,0.001000,0.001000,0.001000,0.001000,0.001000
1002.750000,-0.022544,0.001000,0.001000,0.001000,0.001000,0.001000
1002.769231,-0.023663,0.001000,0.001000,0.001000,0.001000,0.001000
1002.788462,-0.024767,0.001000,0.001000,0.001000,0.001000,0.001000
1002.807692,-0.025856,0.001000,0.001000,0.001000,0.001000,0.001000
1002.826923,-0.026927,0.001000,0.001000,0.001000,0.001000,0.001000
1002.846154,-0.027982,0.001000,0.001000,0.001000,0.001000,0.001000
1002.865385,-0.029019,0.001000,0.001000,0.001000,0.001000,0.001000
1002.884615,-0.030037,0.001000,0.001000,0.001000,0.001000,0.001000
1002.903846,-0.031037,0.001000,0.001000,0.001000,0.001000,0.001000
1002.923077,-0.032016,0.001000,0.001000,0.001000,0.001000,0.001000
1002.942308,-0.032975,0.001000,0.001000,0.001000,0.001000,0.001000
1002.961538,-0.033913,0.001000,0.001000,0.001000,0.001000,0.001000
1002.980769,-0.034830,0.001000,0.001000,0.001000,0.001000,0.001000
1003.000000,-0.035724,0.001000,0.001000,0.001000,0.001000,0.001000
1003.019231,-0.036595,0.001000,0.001000,0.001000,0.001000,0.001000
1003.038462,-0.037444,0.001000,0.001000,0.001000,0.001000,0.001000
1003.057692,-0.038268,0.001000,0.001000,0.001000,0.001000,0.001000
1003.076923,-0.039068,0.001000,0.001000,0.001000,0.001000,0.001000
1003.096154,-0.039843,0.001000,0.001000,0.001000,0.001000,0.001000
1003.115385,-0.040593,0.001000,0.001000,0.001000,0.001000,0.001000
1003.134615,-0.041316,0.001000,0.001000,0.001000,0.001000,0.001000
1003.153846,-0.042014,0.001000,0.001000,0.001000,0.001000,0.001000
1003.173077,-0.042685,0.001000,0.001000,0.001000,0.001000,0.001000
1003.192308,-0.043328,0.001000,0.001000,0.001000,0.001000,0.001000
1003.211538,-0.043944,0.001000,0.001000,0.001000,0.001000,0.001000
1003.230769,-0.044532,0.001000,0.001000,0.001000,0.001000,0.001000
1003.250000,-0.045092,0.001000,0.001000,0.001000,0.001000,0.001000
1003.269231,-0.045623,0.001000,0.001000,0.001000,0.001000,0.001000
1003.288462,-0.046124,0.001000,0.001000,0.001000,0.001000,0.001000
1003.307692,-0.046597,0.001000,0.001000,0.001000,0.001000,0.001000
1003.326923,-0.047040,0.001000,0.001000,0.001000,0.001000,0.001000
1003.346154,-0.047452,0.001000,0.001000,0.001000,0.001000,0.001000
1003.365385,-0.047835,0.001000,0.001000,0.001000,0.001000,0.001000
1003.384615,-0.048187,0.001000,0.001000,0.001000,0.001000,0.001000
1003.403846,-0.048508,0.001000,0.001000,0.001000,0.001000,0.001000
1003.423077,-0.048799,0.001000,0.001000,0.001000,0.001000,0.001000
1003.442308,-0.049058,0.001000,0.001000,0.001000,0.001000,0.001000
1003.461538,-0.049286,0.001000,0.001000,0.001000,0.001000,0.001000
1003.480769,-0.049483,0.001000,0.001000,0.001000,0.001000,0.001000
1003.500000,-0.049648,0.001000,0.001000,0.001000,0.001000,0.001000
1003.519231,-0.049782,0.001000,0.001000,0.001000,0.001000,0.001000
1003.538462,-0.049884,0.001000,0.001000,0.001000,0.001000,0.001000
1003.557692,-0.049954,0.001000,0.001000,0.001000,0.001000,0.001000
1003.576923,-0.049992,0.001000,0.001000,0.001000,0.001000,0.001000
1003.596154,-0.049999,0.001000,0.001000,0.001000,0.001000,0.001000
1003.615385,-0.049973,0.001000,0.001000,0.001000,0.001000,0.001000
1003.634615,-0.049916,0.001000,0.001000,0.001000,0.001000,0.001000
1003.653846,-0.049827,0.001000,0.001000,0.001000,0.001000,0.001000
1003.673077,-0.049706,0.001000,0.001000,0.001000,0.001000,0.001000
1003.692308,-0.049554,0.001000,0.001000,0.001000,0.001000,0.001000
1003.711538,-0.049370,0.001000,0.001000,0.001000,0.001000,0.001000
1003.730769,-0.049154,0.001000,0.001000,0.001000,0.001000,0.001000
1003.750000,-0.048907,0.001000,0.001000,0.001000,0.001000,0.001000
1003.769231,-0.048629,0.001000,0.001000,0.001000,0.001000,0.001000
1003.788462,-0.048320,0.001000,0.001000,0.001000,0.001000,0.001000
1003.807692,-0.047981,0.001000,0.001000,0.001000,0.001000,0.001000
1003.826923,-0.047610,0.001000,0.001000,0.001000,0.001000,0.001000
1003.846154,-0.047210,0.001000,0.001000,0.001000,0.001000,0.001000
1003.865385,-0.046779,0.001000,0.001000,0.001000,0.001000,0.001000
1003.884615,-0.046319,0.001000,0.001000,0.001000,0.001000,0.001000
1003.903846,-0.045829,0.001000,0.001000,0.001000,0.001000,0.001000
1003.923077,-0.045310,0.001000,0.001000,0.001000,0.001000,0.001000
1003.942308,-0.044761,0.001000,0.001000,0.001000,0.001000,0.001000
1003.961538,-0.044185,0.001000,0.001000,0.001000,0.001000,0.001000
1003.980769,-0.043580,0.001000,0.001000,0.001000,0.001000,0.001000
1004.000000,-0.042948,0.001000,0.001000,0.001000,0.001000,0.001000
1004.019231,-0.042288,0.001000,0.001000,0.001000,0.001000,0.001000
1004.038462,-0.041601,0.001000,0.001000,0.001000,0.001000,0.001000
1004.057692,-0.040888,0.001000,0.001000,0.001000,0.001000,0.001000
1004.076923,-0.040149,0.001000,0.001000,0.001000,0.001000,0.001000
1004.096154,-0.039384,0.001000,0.001000,0.001000,0.001000,0.001000
1004.115385,-0.038594,0.001000,0.001000,0.001000,0.001000,0.001000
1004.134615,-0.037779,0.001000,0.001000,0.001000,0.001000,0.001000
1004.153846,-0.036941,0.001000,0.001000,0.001000,0.001000,0.001000
1004.173077,-0.036078,0.001000,0.001000,0.001000,0.001000,0.001000
1004.192308,-0.035193,0.001000,0.001000,0.001000,0.001000,0.001000
1004.211538,-0.034286,0.001000,0.001000,0.001000,0.001000,0.001000
1004.230769,-0.033356,0.001000,0.001000,0.001000,0.001000,0.001000
1004.250000,-0.032406,0.001000,0.001000,0.001000,0.001000,0.001000
1004.269231,-0.031434,0.001000,0.001000,0.001000,0.001000,0.001000
1004.288462,-0.030443,0.001000,0.001000,0.001000,0.001000,0.001000
1004.307692,-0.029432,0.001000,0.001000,0.001000,0.001000,0.001000
1004.326923,-0.028403,0.001000,0.001000,0.001000,0.001000,0.001000
1004.346154,-0.027355,0.001000,0.001000,0.001000,0.001000,0.001000
1004.365385,-0.026290,0.001000,0.001000,0.001000,0.001000,0.001000
1004.384615,-0.025209,0.001000,0.001000,0.001000,0.001000,0.001000
1004.403846,-0.024111,0.001000,0.001000,0.001000,0.001000,0.001000
1004.423077,-0.022998,0.001000,0.001000,0.001000,0.001000,0.001000
1004.442308,-0.021870,0.001000,0.001000,0.001000,0.001000,0.001000
1004.461538,-0.020728,0.001000,0.001000,0.001000,0.001000,0.001000
1004.480769,-0.019573,0.001000,0.001000,0.001000,0.001000,0.001000
1004.500000,-0.018406,0.001000,0.001000,0.001000,0.001000,0.001000
1004.519231,-0.017227,0.001000,0.001000,0.001000,0.001000,0.001000
1004.538462,-0.016037,0.001000,0.001000,0.001000,0.001000,0.001000
1004.557692,-0.014836,0.001000,0.001000,0.001000,0.001000,0.001000
1004.576923,-0.013626,0.001000,0.001000,0.001000,0.001000,0.001000
1004.596154,-0.012408,0.001000,0.001000,0.001000,0.001000,0.001000
1004.615385,-0.011182,0.001000,0.001000,0.001000,0.001000,0.001000
1004.634615,-0.009948,0.001000,0.001000,0.001000,0.001000,0.001000
1004.653846,-0.008708,0.001000,0.001000,0.001000,0.001000,0.001000
1004.673077,-0.007463,0.001000,0.001000,0.001000,0.001000,0.001000
1004.692308,-0.006213,0.001000,0.001000,0.001000,0.001000,0.001000
1004.711538,-0.004959,0.001000,0.001000,0.001000,0.001000,0.001000
1004.730769,-0.003702,0.001000,0.001000,0.001000,0.001000,0.001000
1004.750000,-0.002442,0.001000,0.001000,0.001000,0.001000,0.001000
1004.769231,-0.001181,0.001000,0.001000,0.001000,0.001000,0.001000
1004.788462,0.000081,0.001000,0.001000,0.001000,0.001000,0.001000
1004.807692,0.001343,0.001000,0.001000,0.001000,0.001000,0.001000
1004.826923,0.002604,0.001000,0.001000,0.001000,0.001000,0.001000
1004.846154,0.003863,0.001000,0.001000,0.001000,0.001000,0.001000
1004.865385,0.005120,0.001000,0.001000,0.001000,0.001000,0.001000
1004.884615,0.006374,0.001000,0.001000,0.001000,0.001000,0.001000
1004.903846,0.007623,0.001000,0.001000,0.001000,0.001000,0.001000
1004.923077,0.008868,0.001000,0.001000,0.001000,0.001000,0.001000
1004.942308,0.010107,0.001000,0.001000,0.001000,0.001000,0.001000
1004.961538,0.011340,0.001000,0.001000,0.001000,0.001000,0.001000
1004.980769,0.012565,0.001000,0.001000,0.001000,0.001000,0.001000
1005.000000,0.013782,0.001000,0.001000,0.001000,0.001000,0.001000
1005.019231,0.014991,0.001000,0.001000,0.001000,0.001000,0.001000
1005.038462,0.016190,0.001000,0.001000,0.001000,0.001000,0.001000
1005.057692,0.017379,0.001000,0.001000,0.001000,0.001000,0.001000
1005.076923,0.018556,0.001000,0.001000,0.001000,0.001000,0.001000
1005.096154,0.019722,0.001000,0.001000,0.001000,0.001000,0.001000
1005.115385,0.020876,0.001000,0.001000,0.001000,0.001000,0.001000
1005.134615,0.022016,0.001000,0.001000,0.001000,0.001000,0.001000
1005.153846,0.023141,0.001000,0.001000,0.001000,0.001000,0.001000
1005.173077,0.024253,0.001000,0.001000,0.001000,0.001000,0.001000
1005.192308,0.025348,0.001000,0.001000,0.001000,0.001000,0.001000
1005.211538,0.026428,0.001000,0.001000,0.001000,0.001000,0.001000
1005.230769,0.027491,0.001000,0.001000,0.001000,0.001000,0.001000
1005.250000,0.028536,0.001000,0.001000,0.001000,0.001000,0.001000
1005.269231,0.029563,0.001000,0.001000,0.001000,0.001000,0.001000
1005.288462,0.030571,0.001000,0.001000,0.001000,0.001000,0.001000
1005.307692,0.031560,0.001000,0.001000,0.001000,0.001000,0.001000
1005.326923,0.032529,0.001000,0.001000,0.001000,0.001000,0.001000
1005.346154,0.033477,0.001000,0.001000,0.001000,0.001000,0.001000
1005.365385,0.034404,0.001000,0.001000,0.001000,0.001000,0.001000
1005.384615,0.035308,0.001000,0.001000,0.001000,0.001000,0.001000
1005.403846,0.036190,0.001000,0.001000,0.001000,0.001000,0.001000
1005.423077,0.037050,0.001000,0.001000,0.001000,0.001000,0.001000
1005.442308,0.037885,0.001000,0.001000,0.001000,0.001000,0.001000
1005.461538,0.038697,0.001000,0.001000,0.001000,0.001000,0.001000
1005.480769,0.039483,0.001000,0.001000,0.001000,0.001000,0.001000
1005.500000,0.040245,0.001000,0.001000,0.001000,0.001000,0.001000
1005.519231,0.040981,0.001000,0.001000,0.001000,0.001000,0.001000
1005.538462,0.041691,0.001000,0.001000,0.001000,0.001000,0.001000
1005.557692,0.042374,0.001000,0.001000,0.001000,0.001000,0.001000
1005.576923,0.043031,0.001000,0.001000,0.001000,0.001000,0.001000
1005.596154,0.043659,0.001000,0.001000,0.001000,0.001000,0.001000
1005.615385,0.044261,0.001000,0.001000,0.001000,0.001000,0.001000
1005.634615,0.044834,0.001000,0.001000,0.001000,0.001000,0.001000
1005.653846,0.045378,0.001000,0.001000,0.001000,0.001000,0.001000
1005.673077,0.045893,0.001000,0.001000,0.001000,0.001000,0.001000
1005.692308,0.046380,0.001000,0.001000,0.001000,0.001000,0.001000
1005.711538,0.046836,0.001000,0.001000,0.001000,0.001000,0.001000
1005.730769,0.047263,0.001000,0.001000,0.001000,0.001000,0.001000
1005.750000,0.047660,0.001000,0.001000,0.001000,0.001000,0.001000
1005.769231,0.048026,0.001000,0.001000,0.001000,0.001000,0.001000
1005.788462,0.048362,0.001000,0.001000,0.001000,0.001000,0.001000
1005.807692,0.048667,0.001000,0.001000,0.001000,0.001000,0.001000
1005.826923,0.048941,0.001000,0.001000,0.001000,0.001000,0.001000
1005.846154,0.049184,0.001000,0.001000,0.001000,0.001000,0.001000
1005.865385,0.049395,0.001000,0.001000,0.001000,0.001000,0.001000
1005.884615,0.049575,0.001000,0.001000,0.001000,0.001000,0.001000
1005.903846,0.049723,0.001000,0.001000,0.001000,0.001000,0.001000
1005.923077,0.049840,0.001000,0.001000,0.001000,0.001000,0.001000
1005.942308,0.049925,0.001000,0.001000,0.001000,0.001000,0.001000
1005.961538,0.049978,0.001000,0.001000,0.001000,0.001000,0.001000
1005.980769,0.050000,0.001000,0.001000,0.001000,0.001000,0.001000
1006.000000,0.049989,0.001000,0.001000,0.001000,0.001000,0.001000
1006.019231,0.049947,0.001000,0.001000,0.001000,0.001000,0.001000
1006.038462,0.049872,0.001000,0.001000,0.001000,0.001000,0.001000
1006.057692,0.049767,0.001000,0.001000,0.001000,0.001000,0.001000
1006.076923,0.049629,0.001000,0.001000,0.001000,0.001000,0.001000
1006.096154,0.049460,0.001000,0.001000,0.001000,0.001000,0.001000
1006.115385,0.049259,0.001000,0.001000,0.001000,0.001000,0.001000
1006.134615,0.049027,0.001000,0.001000,0.001000,0.001000,0.001000
1006.153846,0.048763,0.001000,0.001000,0.001000,0.001000,0.001000
1006.173077,0.048469,0.001000,0.001000,0.001000,0.001000,0.001000
1006.192308,0.048143,0.001000,0.001000,0.001000,0.001000,0.001000
1006.211538,0.047787,0.001000,0.001000,0.001000,0.001000,0.001000
1006.230769,0.047401,0.001000,0.001000,0.001000,0.001000,0.001000
1006.250000,0.046984,0.001000,0.001000,0.001000,0.001000,0.001000
1006.269231,0.046538,0.001000,0.001000,0.001000,0.001000,0.001000
1006.288462,0.046062,0.001000,0.001000,0.001000,0.001000,0.001000
1006.307692,0.045556,0.001000,0.001000,0.001000,0.001000,0.001000
1006.326923,0.045021,0.001000,0.001000,0.001000,0.001000,0.001000
1006.346154,0.044458,0.001000,0.001000,0.001000,0.001000,0.001000
1006.365385,0.043867,0.001000,0.001000,0.001000,0.001000,0.001000
1006.384615,0.043247,0.001000,0.001000,0.001000,0.001000,0.001000
1006.403846,0.042600,0.001000,0.001000,0.001000,0.001000,0.001000
1006.423077,0.041926,0.001000,0.001000,0.001000,0.001000,0.001000
1006.442308,0.041225,0.001000,0.001000,0.001000,0.001000,0.001000
1006.461538,0.040498,0.001000,0.001000,0.001000,0.001000,0.001000
1006.480769,0.039745,0.001000,0.001000,0.001000,0.001000,0.001000
1006.500000,0.038966,0.001000,0.001000,0.001000,0.001000,0.001000
1006.519231,0.038163,0.001000,0.001000,0.001000,0.001000,0.001000
1006.538462,0.037336,0.001000,0.001000,0.001000,0.001000,0.001000
1006.557692,0.036485,0.001000,0.001000,0.001000,0.001000,0.001000
1006.576923,0.035610,0.001000,0.001000,0.001000,0.001000,0.001000
1006.596154,0.034713,0.001000,0.001000,0.001000,0.001000,0.001000
1006.615385,0.033794,0.001000,0.001000,0.001000,0.001000,0.001000
1006.634615,0.032853,0.001000,0.001000,0.001000,0.001000,0.001000
1006.653846,0.031891,0.001000,0.001000,0.001000,0.001000,0.001000
1006.673077,0.030909,0.001000,0.001000,0.001000,0.001000,0.001000
1006.692308,0.029908,0.001000,0.001000,0.001000,0.001000,0.001000
1006.711538,0.028887,0.001000,0.001000,0.001000,0.001000,0.001000
1006.730769,0.027848,0.001000,0.001000,0.001000,0.001000,0.001000
1006.750000,0.026791,0.001000,0.001000,0.001000,0.001000,0.001000
1006.769231,0.025717,0.001000,0.001000,0.001000,0.001000,0.001000
1006.788462,0.024626,0.001000,0.001000,0.001000,0.001000,0.001000
1006.807692,0.023520,0.001000,0.001000,0.001000,0.001000,0.001000
1006.826923,0.022399,0.001000,0.001000,0.001000,0.001000,0.001000
1006.846154,0.021264,0.001000,0.001000,0.001000,0.001000,0.001000
1006.865385,0.020115,0.001000,0.001000,0.001000,0.001000,0.001000
1006.884615,0.018954,0.001000,0.001000,0.001000,0.001000,0.001000
1006.903846,0.017780,0.001000,0.001000,0.001000,0.001000,0.001000
1006.923077,0.016595,0.001000,0.001000,0.001000,0.001000,0.001000
1006.942308,0.015399,0.001000,0.001000,0.001000,0.001000,0.001000
1006.961538,0.014194,0.001000,0.001000,0.001000,0.001000,0.001000
1006.980769,0.012979,0.001000,0.001000,0.001000,0.001000,0.001000
1007.000000,0.011756,0.001000,0.001000,0.001000,0.001000,0.001000
1007.019231,0.010526,0.001000,0.001000,0.001000,0.001000,0.001000
1007.038462,0.009289,0.001000,0.001000,0.001000,0.001000,0.001000
1007.057692,0.008046,0.001000,0.001000,0.001000,0.001000,0.001000
1007.076923,0.006798,0.001000,0.001000,0.001000,0.001000,0.001000
1007.096154,0.005546,0.001000,0.001000,0.001000,0.001000,0.001000
1007.115385,0.004290,0.001000,0.001000,0.001000,0.001000,0.001000
1007.134615,0.003032,0.001000,0.001000,0.001000,0.001000,0.001000
1007.153846,0.001771,0.001000,0.001000,0.001000,0.001000,0.001000
1007.173077,0.000509,0.001000,0.001000,0.001000,0.001000,0.001000
1007.192308,-0.000753,0.001000,0.001000,0.001000,0.001000,0.001000
1007.211538,-0.002014,0.001000,0.001000,0.001000,0.001000,0.001000
1007.230769,-0.003274,0.001000,0.001000,0.001000,0.001000,0.001000
1007.250000,-0.004532,0.001000,0.001000,0.001000,0.001000,0.001000
1007.269231,-0.005788,0.001000,0.001000,0.001000,0.001000,0.001000
1007.288462,-0.007039,0.001000,0.001000,0.001000,0.001000,0.001000
1007.307692,-0.008286,0.001000,0.001000,0.001000,0.001000,0.001000
1007.326923,-0.009528,0.001000,0.001000,0.001000,0.001000,0.001000
1007.346154,-0.010764,0.001000,0.001000,0.001000,0.001000,0.001000
1007.365385,-0.011993,0.001000,0.001000,0.001000,0.001000,0.001000
1007.384615,-0.013214,0.001000,0.001000,0.001000,0.001000,0.001000
1007.403846,-0.014427,0.001000,0.001000,0.001000,0.001000,0.001000
1007.423077,-0.015630,0.001000,0.001000,0.001000,0.001000,0.001000
1007.442308,-0.016824,0.001000,0.001000,0.001000,0.001000,0.001000
1007.461538,-0.018007,0.001000,0.001000,0.001000,0.001000,0.001000
1007.480769,-0.019178,0.001000,0.001000,0.001000,0.001000,0.001000
1007.500000,-0.020338,0.001000,0.001000,0.001000,0.001000,0.001000
1007.519231,-0.021484,0.001000,0.001000,0.001000,0.001000,0.001000
1007.538462,-0.022616,0.001000,0.001000,0.001000,0.001000,0.001000
1007.557692,-0.023735,0.001000,0.001000,0.001000,0.001000,0.001000
1007.576923,-0.024838,0.001000,0.001000,0.001000,0.001000,0.001000
1007.596154,-0.025925,0.001000,0.001000,0.001000,0.001000,0.001000
1007.615385,-0.026996,0.001000,0.001000,0.001000,0.001000,0.001000
1007.634615,-0.028049,0.001000,0.001000,0.001000,0.001000,0.001000
1007.653846,-0.029085,0.001000,0.001000,0.001000,0.001000,0.001000
1007.673077,-0.030102,0.001000,0.001000,0.001000,0.001000,0.001000
1007.692308,-0.031100,0.001000,0.001000,0.001000,0.001000,0.001000
1007.711538,-0.032078,0.001000,0.001000,0.001000,0.001000,0.001000
1007.730769,-0.033036,0.001000,0.001000,0.001000,0.001000,0.001000
1007.750000,-0.033973,0.001000,0.001000,0.001000,0.001000,0.001000
1007.769231,-0.034888,0.001000,0.001000,0.001000,0.001000,0.001000
1007.788462,-0.035781,0.001000,0.001000,0.001000,0.001000,0.001000
1007.807692,-0.036651,0.001000,0.001000,0.001000,0.001000,0.001000
1007.826923,-0.037497,0.001000,0.001000,0.001000,0.001000,0.001000
1007.846154,-0.038320,0.001000,0.001000,0.001000,0.001000,0.001000
1007.865385,-0.039118,0.001000,0.001000,0.001000,0.001000,0.001000
1007.884615,-0.039892,0.001000,0.001000,0.001000,0.001000,0.001000
1007.903846,-0.040640,0.001000,0.001000,0.001000,0.001000,0.001000
1007.923077,-0.041362,0.001000,0.001000,0.001000,0.001000,0.001000
1007.942308,-0.042058,0.001000,0.001000,0.001000,0.001000,0.001000
1007.961538,-0.042727,0.001000,0.001000,0.001000,0.001000,0.001000
1007.980769,-0.043369,0.001000,0.001000,0.001000,0.001000,0.001000
1008.000000,-0.043983,0.001000,0.001000,0.001000,0.001000,0.001000
1008.019231,-0.044569,0.001000,0.001000,0.001000,0.001000,0.001000
1008.038462,-0.045127,0.001000,0.001000,0.001000,0.001000,0.001000
1008.057692,-0.045656,0.001000,0.001000,0.001000,0.001000,0.001000
1008.076923,-0.046156,0.001000,0.001000,0.001000,0.001000,0.001000
1008.096154,-0.046626,0.001000,0.001000,0.001000,0.001000,0.001000
1008.115385,-0.047067,0.001000,0.001000,0.001000,0.001000,0.001000
1008.134615,-0.047478,0.001000,0.001000,0.001000,0.001000,0.001000
1008.153846,-0.047858,0.001000,0.001000,0.001000,0.001000,0.001000
1008.173077,-0.048209,0.001000,0.001000,0.001000,0.001000,0.001000
1008.192308,-0.048528,0.001000,0.001000,0.001000,0.001000,0.001000
1008.211538,-0.048816,0.001000,0.001000,0.001000,0.001000,0.001000
1008.230769,-0.049074,0.001000,0.001000,0.001000,0.001000,0.001000
1008.250000,-0.049300,0.001000,0.001000,0.001000,0.001000,0.001000
1008.269231,-0.049495,0.001000,0.001000,0.001000,0.001000,0.001000
1008.288462,-0.049658,0.001000,0.001000,0.001000,0.001000,0.001000
1008.307692,-0.049789,0.001000,0.001000,0.001000,0.001000,0.001000
1008.326923,-0.049889,0.001000,0.001000,0.001000,0.001000,0.001000
1008.346154,-0.049957,0.001000,0.001000,0.001000,0.001000,0.001000
1008.365385,-0.049994,0.001000,0.001000,0.001000,0.001000,0.001000
1008.384615,-0.049998,0.001000,0.001000,0.001000,0.001000,0.001000
1008.403846,-0.049970,0.001000,0.001000,0.001000,0.001000,0.001000
1008.423077,-0.049911,0.001000,0.001000,0.001000,0.001000,0.001000
1008.442308,-0.049820,0.001000,0.001000,0.001000,0.001000,0.001000
1008.461538,-0.049697,0.001000,0.001000,0.001000,0.001000,0.001000
1008.480769,-0.049543,0.001000,0.001000,0.001000,0.001000,0.001000
1008.500000,-0.049357,0.001000,0.001000,0.001000,0.001000,0.001000
1008.519231,-0.049139,0.001000,0.001000,0.001000,0.001000,0.001000
1008.538462,-0.048890,0.001000,0.001000,0.001000,0.001000,0.001000
1008.557692,-0.048610,0.001000,0.001000,0.001000,0.001000,0.001000
1008.576923,-0.048300,0.001000,0.001000,0.001000,0.001000,0.001000
1008.596154,-0.047958,0.001000,0.001000,0.001000,0.001000,0.001000
1008.615385,-0.047586,0.001000,0.001000,0.001000,0.001000,0.001000
1008.634615,-0.047183,0.001000,0.001000,0.001000,0.001000,0.001000
1008.653846,-0.046750,0.001000,0.001000,0.001000,0.001000,0.001000
1008.673077,-0.046288,0.001000,0.001000,0.001000,0.001000,0.001000
1008.692308,-0.045796,0.001000,0.001000,0.001000,0.001000,0.001000
1008.711538,-0.045275,0.001000,0.001000,0.001000,0.001000,0.001000
1008.730769,-0.044725,0.001000,0.001000,0.001000,0.001000,0.001000
1008.750000,-0.044147,0.001000,0.001000,0.001000,0.001000,0.001000
1008.769231,-0.043540,0.001000,0.001000,0.001000,0.001000,0.001000
1008.788462,-0.042906,0.001000,0.001000,0.001000,0.001000,0.001000
1008.807692,-0.042245,0.001000,0.001000,0.001000,0.001000,0.001000
1008.826923,-0.041556,0.001000,0.001000,0.001000,0.001000,0.001000
1008.846154,-0.040841,0.001000,0.001000,0.001000,0.001000,0.001000
1008.865385,-0.040100,0.001000,0.001000,0.001000,0.001000,0.001000
1008.884615,-0.039334,0.001000,0.001000,0.001000,0.001000,0.001000
1008.903846,-0.038542,0.001000,0.001000,0.001000,0.001000,0.001000
1008.923077,-0.037726,0.001000,0.001000,0.001000,0.001000,0.001000
1008.942308,-0.036886,0.001000,0.001000,0.001000,0.001000,0.001000
1008.961538,-0.036022,0.001000,0.001000,0.001000,0.001000,0.001000
1008.980769,-0.035136,0.001000,0.001000,0.001000,0.001000,0.001000
1009.000000,-0.034227,0.001000,0.001000,0.001000,0.001000,0.001000
1009.019231,-0.033296,0.001000,0.001000,0.001000,0.001000,0.001000
1009.038462,-0.032344,0.001000,0.001000,0.001000,0.001000,0.001000
1009.057692,-0.031371,0.001000,0.001000,0.001000,0.001000,0.001000
1009.076923,-0.030379,0.001000,0.001000,0.001000,0.001000,0.001000
1009.096154,-0.029367,0.001000,0.001000,0.001000,0.001000,0.001000
1009.115385,-0.028336,0.001000,0.001000,0.001000,0.001000,0.001000
1009.134615,-0.027287,0.001000,0.001000,0.001000,0.001000,0.001000
1009.153846,-0.026221,0.001000,0.001000,0.001000,0.001000,0.001000
1009.173077,-0.025139,0.001000,0.001000,0.001000,0.001000,0.001000
1009.192308,-0.024040,0.001000,0.001000,0.001000,0.001000,0.001000
1009.211538,-0.022926,0.001000,0.001000,0.001000,0.001000,0.001000
1009.230769,-0.021797,0.001000,0.001000,0.001000,0.001000,0.001000
1009.250000,-0.020654,0.001000,0.001000,0.001000,0.001000,0.001000
1009.269231,-0.019499,0.001000,0.001000,0.001000,0.001000,0.001000
1009.288462,-0.018330,0.001000,0.001000,0.001000,0.001000,0.001000
1009.307692,-0.017151,0.001000,0.001000,0.001000,0.001000,0.001000
1009.326923,-0.015960,0.001000,0.001000,0.001000,0.001000,0.001000
1009.346154,-0.014759,0.001000,0.001000,0.001000,0.001000,0.001000
1009.365385,-0.013548,0.001000,0.001000,0.001000,0.001000,0.001000
1009.384615,-0.012329,0.001000,0.001000,0.001000,0.001000,0.001000
1009.403846,-0.011103,0.001000,0.001000,0.001000,0.001000,0.001000
1009.423077,-0.009869,0.001000,0.001000,0.001000,0.001000,0.001000
1009.442308,-0.008629,0.001000,0.001000,0.001000,0.001000,0.001000
1009.461538,-0.007383,0.001000,0.001000,0.001000,0.001000,0.001000
1009.480769,-0.006132,0.001000,0.001000,0.001000,0.001000,0.001000
1009.500000,-0.004878,0.001000,0.001000,0.001000,0.001000,0.001000
1009.519231,-0.003621,0.001000,0.001000,0.001000,0.001000,0.001000
1009.538462,-0.002361,0.001000,0.001000,0.001000,0.001000,0.001000
1009.557692,-0.001100,0.001000,0.001000,0.001000,0.001000,0.001000
1009.576923,0.000162,0.001000,0.001000,0.001000,0.001000,0.001000
1009.596154,0.001424,0.001000,0.001000,0.001000,0.001000,0.001000
1009.615385,0.002685,0.001000,0.001000,0.001000,0.001000,0.001000
1009.634615,0.003944,0.001000,0.001000,0.001000,0.001000,0.001000
1009.653846,0.005201,0.001000,0.001000,0.001000,0.001000,0.001000
1009.673077,0.006454,0.001000,0.001000,0.001000,0.001000,0.001000
1009.692308,0.007703,0.001000,0.001000,0.001000,0.001000,0.001000
1009.711538,0.008948,0.001000,0.001000,0.001000,0.001000,0.001000
1009.730769,0.010186,0.001000,0.001000,0.001000,0.001000,0.001000
1009.750000,0.011419,0.001000,0.001000,0.001000,0.001000,0.001000
1009.769231,0.012643,0.001000,0.001000,0.001000,0.001000,0.001000
1009.788462,0.013860,0.001000,0.001000,0.001000,0.001000,0.001000
1009.807692,0.015068,0.001000,0.001000,0.001000,0.001000,0.001000
1009.826923,0.016267,0.001000,0.001000,0.001000,0.001000,0.001000
1009.846154,0.017455,0.001000,0.001000,0.001000,0.001000,0.001000
1009.865385,0.018632,0.001000,0.001000,0.001000,0.001000,0.001000
1009.884615,0.019797,0.001000,0.001000,0.001000,0.001000,0.001000
1009.903846,0.020949,0.001000,0.001000,0.001000,0.001000,0.001000
1009.923077,0.022088,0.001000,0.001000,0.001000,0.001000,0.001000
1009.942308,0.023213,0.001000,0.001000,0.001000,0.001000,0.001000
1009.961538,0.024324,0.001000,0.001000,0.001000,0.001000,0.001000
1009.980769,0.025418,0.001000,0.001000,0.001000,0.001000,0.001000
1010.000000,0.026497,0.001000,0.001000,0.001000,0.001000,0.001000
1010.019231,0.027559,0.001000,0.001000,0.001000,0.001000,0.001000
1010.038462,0.028603,0.001000,0.001000,0.001000,0.001000,0.001000
1010.057692,0.029629,0.001000,0.001000,0.001000,0.001000,0.001000
1010.076923,0.030636,0.001000,0.001000,0.001000,0.001000,0.001000
1010.096154,0.031623,0.001000,0.001000,0.001000,0.001000,0.001000
1010.115385,0.032590,0.001000,0.001000,0.001000,0.001000,0.001000
1010.134615,0.033537,0.001000,0.001000,0.001000,0.001000,0.001000
1010.153846,0.034462,0.001000,0.001000,0.001000,0.001000,0.001000
1010.173077,0.035366,0.001000,0.001000,0.001000,0.001000,0.001000
1010.192308,0.036246,0.001000,0.001000,0.001000,0.001000,0.001000
1010.211538,0.037104,0.001000,0.001000,0.001000,0.001000,0.001000
1010.230769,0.037938,0.001000,0.001000,0.001000,0.001000,0.001000
1010.250000,0.038748,0.001000,0.001000,0.001000,0.001000,0.001000
1010.269231,0.039533,0.001000,0.001000,0.001000,0.001000,0.001000
1010.288462,0.040293,0.001000,0.001000,0.001000,0.001000,0.001000
1010.307692,0.041027,0.001000,0.001000,0.001000,0.001000,0.001000
1010.326923,0.041736,0.001000,0.001000,0.001000,0.001000,0.001000
1010.346154,0.042417,0.001000,0.001000,0.001000,0.001000,0.001000
1010.365385,0.043072,0.001000,0.001000,0.001000,0.001000,0.001000
1010.384615,0.043699,0.001000,0.001000,0.001000,0.001000,0.001000
1010.403846,0.044298,0.001000,0.001000,0.001000,0.001000,0.001000
1010.423077,0.044869,0.001000,0.001000,0.001000,0.001000,0.001000
1010.442308,0.045412,0.001000,0.001000,0.001000,0.001000,0.001000
1010.461538,0.045925,0.001000,0.001000,0.001000,0.001000,0.001000
1010.480769,0.046410,0.001000,0.001000,0.001000,0.001000,0.001000
1010.500000,0.046864,0.001000,0.001000,0.001000,0.001000,0.001000
1010.519231,0.047289,0.001000,0.001000,0.001000,0.001000,0.001000
1010.538462,0.047684,0.001000,0.001000,0.001000,0.001000,0.001000
1010.557692,0.048049,0.001000,0.001000,0.001000,0.001000,0.001000
1010.576923,0.048382,0.001000,0.001000,0.001000,0.001000,0.001000
1010.596154,0.048685,0.001000,0.001000,0.001000,0.001000,0.001000
1010.615385,0.048957,0.001000,0.001000,0.001000,0.001000,0.001000
1010.634615,0.049198,0.001000,0.001000,0.001000,0.001000,0.001000
1010.653846,0.049407,0.001000,0.001000,0.001000,0.001000,0.001000
1010.673077,0.049585,0.001000,0.001000,0.001000,0.001000,0.001000
1010.692308,0.049732,0.001000,0.001000,0.001000,0.001000,0.001000
1010.711538,0.049846,0.001000,0.001000,0.001000,0.001000,0.001000
1010.730769,0.049929,0.001000,0.001000,0.001000,0.001000,0.001000
1010.750000,0.049981,0.001000,0.001000,0.001000,0.001000,0.001000
1010.769231,0.050000,0.001000,0.001000,0.001000,0.001000,0.001000
1010.788462,0.049987,0.001000,0.001000,0.001000,0.001000,0.001000
1010.807692,0.049943,0.001000,0.001000,0.001000,0.001000,0.001000
1010.826923,0.049867,0.001000,0.001000,0.001000,0.001000,0.001000
1010.846154,0.049759,0.001000,0.001000,0.001000,0.001000,0.001000
1010.865385,0.049619,0.001000,0.001000,0.001000,0.001000,0.001000
1010.884615,0.049448,0.001000,0.001000,0.001000,0.001000,0.001000
1010.903846,0.049245,0.001000,0.001000,0.001000,0.001000,0.001000
1010.923077,0.049011,0.001000,0.001000,0.001000,0.001000,0.001000
1010.942308,0.048745,0.001000,0.001000,0.001000,0.001000,0.001000
1010.961538,0.048449,0.001000,0.001000,0.001000,0.001000,0.001000
1010.980769,0.048122,0.001000,0.001000,0.001000,0.001000,0.001000
1011.000000,0.047764,0.001000,0.001000,0.001000,0.001000,0.001000
1011.019231,0.047375,0.001000,0.001000,0.001000,0.001000,0.001000
1011.038462,0.046957,0.001000,0.001000,0.001000,0.001000,0.001000
1011.057692,0.046508,0.001000,0.001000,0.001000,0.001000,0.001000
1011.076923,0.046030,0.001000,0.001000,0.001000,0.001000,0.001000
1011.096154,0.045523,0.001000,0.001000,0.001000,0.001000,0.001000
1011.115385,0.044986,0.001000,0.001000,0.001000,0.001000,0.001000
1011.134615,0.044421,0.001000,0.001000,0.001000,0.001000,0.001000
1011.153846,0.043828,0.001000,0.001000,0.001000,0.001000,0.001000
1011.173077,0.043206,0.001000,0.001000,0.001000,0.001000,0.001000
1011.192308,0.042558,0.001000,0.001000,0.001000,0.001000,0.001000
1011.211538,0.041882,0.001000,0.001000,0.001000,0.001000,0.001000
1011.230769,0.041179,0.001000,0.001000,0.001000,0.001000,0.001000
1011.250000,0.040450,0.001000,0.001000,0.001000,0.001000,0.001000
1011.269231,0.039696,0.001000,0.001000,0.001000,0.001000,0.001000
1011.288462,0.038916,0.001000,0.001000,0.001000,0.001000,0.001000
1011.307692,0.038111,0.001000,0.001000,0.001000,0.001000,0.001000
1011.326923,0.037282,0.001000,0.001000,0.001000,0.001000,0.001000
1011.346154,0.036429,0.001000,0.001000,0.001000,0.001000,0.001000
1011.365385,0.035553,0.001000,0.001000,0.001000,0.001000,0.001000
1011.384615,0.034655,0.001000,0.001000,0.001000,0.001000,0.001000
1011.403846,0.033734,0.001000,0.001000,0.001000,0.001000,0.001000
1011.423077,0.032792,0.001000,0.001000,0.001000,0.001000,0.001000
1011.442308,0.031829,0.001000,0.001000,0.001000,0.001000,0.001000
1011.461538,0.030846,0.001000,0.001000,0.001000,0.001000,0.001000
1011.480769,0.029843,0.001000,0.001000,0.001000,0.001000,0.001000
1011.500000,0.028821,0.001000,0.001000,0.001000,0.001000,0.001000
1011.519231,0.027780,0.001000,0.001000,0.001000,0.001000,0.001000
1011.538462,0.026722,0.001000,0.001000,0.001000,0.001000,0.001000
1011.557692,0.025647,0.001000,0.001000,0.001000,0.001000,0.001000
1011.576923,0.024556,0.001000,0.001000,0.001000,0.001000,0.001000
1011.596154,0.023449,0.001000,0.001000,0.001000,0.001000,0.001000
1011.615385,0.022327,0.001000,0.001000,0.001000,0.001000,0.001000
1011.634615,0.021191,0.001000,0.001000,0.001000,0.001000,0.001000
1011.653846,0.020041,0.001000,0.001000,0.001000,0.001000,0.001000
1011.673077,0.018878,0.001000,0.001000,0.001000,0.001000,0.001000
1011.692308,0.017704,0.001000,0.001000,0.001000,0.001000,0.001000
1011.711538,0.016518,0.001000,0.001000,0.001000,0.001000,0.001000
1011.730769,0.015322,0.001000,0.001000,0.001000,0.001000,0.001000
1011.750000,0.014116,0.001000,0.001000,0.001000,0.001000,0.001000
1011.769231,0.012901,0.001000,0.001000,0.001000,0.001000,0.001000
1011.788462,0.011678,0.001000,0.001000,0.001000,0.001000,0.001000
1011.807692,0.010447,0.001000,0.001000,0.001000,0.001000,0.001000
1011.826923,0.009210,0.001000,0.001000,0.001000,0.001000,0.001000
1011.846154,0.007966,0.001000,0.001000,0.001000,0.001000,0.001000
1011.865385,0.006718,0.001000,0.001000,0.001000,0.001000,0.001000
1011.884615,0.005465,0.001000,0.001000,0.001000,0.001000,0.001000
1011.903846,0.004209,0.001000,0.001000,0.001000,0.001000,0.001000
1011.923077,0.002951,0.001000,0.001000,0.001000,0.001000,0.001000
1011.942308,0.001690,0.001000,0.001000,0.001000,0.001000,0.001000
1011.961538,0.000428,0.001000,0.001000,0.001000,0.001000,0.001000
1011.980769,-0.000834,0.001000,0.001000,0.001000,0.001000,0.001000
1012.000000,-0.002095,0.001000,0.001000,0.001000,0.001000,0.001000
1012.019231,-0.003355,0.001000,0.001000,0.001000,0.001000,0.001000
1012.038462,-0.004613,0.001000,0.001000,0.001000,0.001000,0.001000
1012.057692,-0.005868,0.001000,0.001000,0.001000,0.001000,0.001000
1012.076923,-0.007119,0.001000,0.001000,0.001000,0.001000,0.001000
1012.096154,-0.008366,0.001000,0.001000,0.001000,0.001000,0.001000
1012.115385,-0.009608,0.001000,0.001000,0.001000,0.001000,0.001000
1012.134615,-0.010843,0.001000,0.001000,0.001000,0.001000,0.001000
1012.153846,-0.012071,0.001000,0.001000,0.001000,0.001000,0.001000
1012.173077,-0.013292,0.001000,0.001000,0.001000,0.001000,0.001000
1012.192308,-0.014504,0.001000,0.001000,0.001000,0.001000,0.001000
1012.211538,-0.015707,0.001000,0.001000,0.001000,0.001000,0.001000
1012.230769,-0.016900,0.001000,0.001000,0.001000,0.001000,0.001000
1012.250000,-0.018082,0.001000,0.001000,0.001000,0.001000,0.001000
1012.269231,-0.019253,0.001000,0.001000,0.001000,0.001000,0.001000
1012.288462,-0.020412,0.001000,0.001000,0.001000,0.001000,0.001000
1012.307692,-0.021557,0.001000,0.001000,0.001000,0.001000,0.001000
1012.326923,-0.022689,0.001000,0.001000,0.001000,0.001000,0.001000
1012.346154,-0.023806,0.001000,0.001000,0.001000,0.001000,0.001000
1012.365385,-0.024908,0.001000,0.001000,0.001000,0.001000,0.001000
1012.384615,-0.025994,0.001000,0.001000,0.001000,0.001000,0.001000
1012.403846,-0.027064,0.001000,0.001000,0.001000,0.001000,0.001000
1012.423077,-0.028116,0.001000,0.001000,0.001000,0.001000,0.001000
1012.442308,-0.029151,0.001000,0.001000,0.001000,0.001000,0.001000
1012.461538,-0.030167,0.001000,0.001000,0.001000,0.001000,0.001000
1012.480769,-0.031164,0.001000,0.001000,0.001000,0.001000,0.001000
1012.500000,-0.032140,0.001000,0.001000,0.001000,0.001000,0.001000
1012.519231,-0.033097,0.001000,0.001000,0.001000,0.001000,0.001000
1012.538462,-0.034032,0.001000,0.001000,0.001000,0.001000,0.001000
1012.557692,-0.034946,0.001000,0.001000,0.001000,0.001000,0.001000
1012.576923,-0.035837,0.001000,0.001000,0.001000,0.001000,0.001000
1012.596154,-0.036706,0.001000,0.001000,0.001000,0.001000,0.001000
1012.615385,-0.037551,0.001000,0.001000,0.001000,0.001000,0.001000
1012.634615,-0.038372,0.001000,0.001000,0.001000,0.001000,0.001000
1012.653846,-0.039169,0.001000,0.001000,0.001000,0.001000,0.001000
1012.673077,-0.039941,0.001000,0.001000,0.001000,0.001000,0.001000
1012.692308,-0.040687,0.001000,0.001000,0.001000,0.001000,0.001000
1012.711538,-0.041408,0.001000,0.001000,0.001000,0.001000,0.001000
1012.730769,-0.042102,0.001000,0.001000,0.001000,0.001000,0.001000
1012.750000,-0.042769,0.001000,0.001000,0.001000,0.001000,0.001000
1012.769231,-0.043409,0.001000,0.001000,0.001000,0.001000,0.001000
1012.788462,-0.044021,0.001000,0.001000,0.001000,0.001000,0.001000
1012.807692,-0.044606,0.001000,0.001000,0.001000,0.001000,0.001000
1012.826923,-0.045162,0.001000,0.001000,0.001000,0.001000,0.001000
1012.846154,-0.045689,0.001000,0.001000,0.001000,0.001000,0.001000
1012.865385,-0.046187,0.001000,0.001000,0.001000,0.001000,0.001000
1012.884615,-0.046655,0.001000,0.001000,0.001000,0.001000,0.001000
1012.903846,-0.047094,0.001000,0.001000,0.001000,0.001000,0.001000
1012.923077,-0.047503,0.001000,0.001000,0.001000,0.001000,0.001000
1012.942308,-0.047882,0.001000,0.001000,0.001000,0.001000,0.001000
1012.961538,-0.048230,0.001000,0.001000,0.001000,0.001000,0.001000
1012.980769,-0.048547,0.001000,0.001000,0.001000,0.001000,0.001000
1013.000000,-0.048834,0.001000,0.001000,0.001000,0.001000,0.001000
1013.019231,-0.049089,0.001000,0.001000,0.001000,0.001000,0.001000
1013.038462,-0.049313,0.001000,0.001000,0.001000,0.001000,0.001000
1013.057692,-0.049506,0.001000,0.001000,0.001000,0.001000,0.001000
1013.076923,-0.049667,0.001000,0.001000,0.001000,0.001000,0.001000
1013.096154,-0.049797,0.001000,0.001000,0.001000,0.001000,0.001000
1013.115385,-0.049895,0.001000,0.001000,0.001000,0.001000,0.001000
1013.134615,-0.049961,0.001000,0.001000,0.001000,0.001000,0.001000
1013.153846,-0.049995,0.001000,0.001000,0.001000,0.001000,0.001000
1013.173077,-0.049997,0.001000,0.001000,0.001000,0.001000,0.001000
1013.192308,-0.049968,0.001000,0.001000,0.001000,0.001000,0.001000
1013.211538,-0.049906,0.001000,0.001000,0.001000,0.001000,0.001000
1013.230769,-0.049813,0.001000,0.001000,0.001000,0.001000,0.001000
1013.250000,-0.049688,0.001000,0.001000,0.001000,0.001000,0.001000
1013.269231,-0.049532,0.001000,0.001000,0.001000,0.001000,0.001000
1013.288462,-0.049344,0.001000,0.001000,0.001000,0.001000,0.001000
1013.307692,-0.049124,0.001000,0.001000,0.001000,0.001000,0.001000
1013.326923,-0.048873,0.001000,0.001000,0.001000,0.001000,0.001000
1013.346154,-0.048591,0.001000,0.001000,0.001000,0.001000,0.001000
1013.365385,-0.048279,0.001000,0.001000,0.001000,0.001000,0.001000
1013.384615,-0.047935,0.001000,0.001000,0.001000,0.001000,0.001000
1013.403846,-0.047561,0.001000,0.001000,0.001000,0.001000,0.001000
1013.423077,-0.047156,0.001000,0.001000,0.001000,0.001000,0.001000
1013.442308,-0.046722,0.001000,0.001000,0.001000,0.001000,0.001000
1013.461538,-0.046257,0.001000,0.001000,0.001000,0.001000,0.001000
1013.480769,-0.045764,0.001000,0.001000,0.001000,0.001000,0.001000
1013.500000,-0.045241,0.001000,0.001000,0.001000,0.001000,0.001000
1013.519231,-0.044689,0.001000,0.001000,0.001000,0.001000,0.001000
1013.538462,-0.044109,0.001000,0.001000,0.001000,0.001000,0.001000
1013.557692,-0.043501,0.001000,0.001000,0.001000,0.001000,0.001000
1013.576923,-0.042865,0.001000,0.001000,0.001000,0.001000,0.001000
1013.596154,-0.042201,0.001000,0.001000,0.001000,0.001000,0.001000
1013.615385,-0.041511,0.001000,0.001000,0.001000,0.001000,0.001000
1013.634615,-0.040794,0.001000,0.001000,0.001000,0.001000,0.001000
1013.653846,-0.040052,0.001000,0.001000,0.001000,0.001000,0.001000
1013.673077,-0.039284,0.001000,0.001000,0.001000,0.001000,0.001000
1013.692308,-0.038490,0.001000,0.001000,0.001000,0.001000,0.001000
1013.711538,-0.037673,0.001000,0.001000,0.001000,0.001000,0.001000
1013.730769,-0.036831,0.001000,0.001000,0.001000,0.001000,0.001000
1013.750000,-0.035966,0.001000,0.001000,0.001000,0.001000,0.001000
1013.769231,-0.035078,0.001000,0.001000,0.001000,0.001000,0.001000
1013.788462,-0.034168,0.001000,0.001000,0.001000,0.001000,0.001000
1013.807692,-0.033235,0.001000,0.001000,0.001000,0.001000,0.001000
1013.826923,-0.032282,0.001000,0.001000,0.001000,0.001000,0.001000
1013.846154,-0.031308,0.001000,0.001000,0.001000,0.001000,0.001000
1013.865385,-0.030314,0.001000,0.001000,0.001000,0.001000,0.001000
1013.884615,-0.029301,0.001000,0.001000,0.001000,0.001000,0.001000
1013.903846,-0.028269,0.001000,0.001000,0.001000,0.001000,0.001000
1013.923077,-0.027219,0.001000,0.001000,0.001000,0.001000,0.001000
1013.942308,-0.026152,0.001000,0.001000,0.001000,0.001000,0.001000
1013.961538,-0.025068,0.001000,0.001000,0.001000,0.001000,0.001000
1013.980769,-0.023969,0.001000,0.001000,0.001000,0.001000,0.001000
1014.000000,-0.022854,0.001000,0.001000,0.001000,0.001000,0.001000
1014.019231,-0.021724,0.001000,0.001000,0.001000,0.001000,0.001000
1014.038462,-0.020580,0.001000,0.001000,0.001000,0.001000,0.001000
1014.057692,-0.019424,0.001000,0.001000,0.001000,0.001000,0.001000
1014.076923,-0.018255,0.001000,0.001000,0.001000,0.001000,0.001000
1014.096154,-0.017074,0.001000,0.001000,0.001000,0.001000,0.001000
1014.115385,-0.015883,0.001000,0.001000,0.001000,0.001000,0.001000
1014.134615,-0.014681,0.001000,0.001000,0.001000,0.001000,0.001000
1014.153846,-0.013470,0.001000,0.001000,0.001000,0.001000,0.001000
1014.173077,-0.012251,0.001000,0.001000,0.001000,0.001000,0.001000
1014.192308,-0.011024,0.001000,0.001000,0.001000,0.001000,0.001000
1014.211538,-0.009789,0.001000,0.001000,0.001000,0.001000,0.001000
1014.230769,-0.008549,0.001000,0.001000,0.001000,0.001000,0.001000
1014.250000,-0.007303,0.001000,0.001000,0.001000,0.001000,0.001000
1014.269231,-0.006052,0.001000,0.001000,0.001000,0.001000,0.001000
1014.288462,-0.004797,0.001000,0.001000,0.001000,0.001000,0.001000
1014.307692,-0.003540,0.001000,0.001000,0.001000,0.001000,0.001000
1014.326923,-0.002280,0.001000,0.001000,0.001000,0.001000,0.001000
1014.346154,-0.001019,0.001000,0.001000,0.001000,0.001000,0.001000
1014.365385,0.000243,0.001000,0.001000,0.001000,0.001000,0.001000
1014.384615,0.001505,0.001000,0.001000,0.001000,0.001000,0.001000
1014.403846,0.002766,0.001000,0.001000,0.001000,0.001000,0.001000
1014.423077,0.004025,0.001000,0.001000,0.001000,0.001000,0.001000
1014.442308,0.005281,0.001000,0.001000,0.001000,0.001000,0.001000
1014.461538,0.006534,0.001000,0.001000,0.001000,0.001000,0.001000
1014.480769,0.007783,0.001000,0.001000,0.001000,0.001000,0.001000
1014.500000,0.009027,0.001000,0.001000,0.001000,0.001000,0.001000
1014.519231,0.010266,0.001000,0.001000,0.001000,0.001000,0.001000
1014.538462,0.011497,0.001000,0.001000,0.001000,0.001000,0.001000
1014.557692,0.012722,0.001000,0.001000,0.001000,0.001000,0.001000
1014.576923,0.013938,0.001000,0.001000,0.001000,0.001000,0.001000
1014.596154,0.015146,0.001000,0.001000,0.001000,0.001000,0.001000
1014.615385,0.016343,0.001000,0.001000,0.001000,0.001000,0.001000
1014.634615,0.017531,0.001000,0.001000,0.001000,0.001000,0.001000
1014.653846,0.018707,0.001000,0.001000,0.001000,0.001000,0.001000
1014.673077,0.019871,0.001000,0.001000,0.001000,0.001000,0.001000
1014.692308,0.021023,0.001000,0.001000,0.001000,0.001000,0.001000
1014.711538,0.022161,0.001000,0.001000,0.001000,0.001000,0.001000
1014.730769,0.023285,0.001000,0.001000,0.001000,0.001000,0.001000
1014.750000,0.024394,0.001000,0.001000,0.001000,0.001000,0.001000
1014.769231,0.025488,0.001000,0.001000,0.001000,0.001000,0.001000
1014.788462,0.026566,0.001000,0.001000,0.001000,0.001000,0.001000
1014.807692,0.027626,0.001000,0.001000,0.001000,0.001000,0.001000
1014.826923,0.028669,0.001000,0.001000,0.001000,0.001000,0.001000
1014.846154,0.029694,0.001000,0.001000,0.001000,0.001000,0.001000
1014.865385,0.030700,0.001000,0.001000,0.001000,0.001000,0.001000
1014.884615,0.031686,0.001000,0.001000,0.001000,0.001000,0.001000
1014.903846,0.032652,0.001000,0.001000,0.001000,0.001000,0.001000
1014.923077,0.033597,0.001000,0.001000,0.001000,0.001000,0.001000
1014.942308,0.034521,0.001000,0.001000,0.001000,0.001000,0.001000
1014.961538,0.035423,0.001000,0.001000,0.001000,0.001000,0.001000
1014.980769,0.036302,0.001000,0.001000,0.001000,0.001000,0.001000
1015.000000,0.037158,0.001000,0.001000,0.001000,0.001000,0.001000
1015.019231,0.037991,0.001000,0.001000,0.001000,0.001000,0.001000
1015.038462,0.038799,0.001000,0.001000,0.001000,0.001000,0.001000
1015.057692,0.039583,0.001000,0.001000,0.001000,0.001000,0.001000
1015.076923,0.040341,0.001000,0.001000,0.001000,0.001000,0.001000
1015.096154,0.041074,0.001000,0.001000,0.001000,0.001000,0.001000
1015.115385,0.041780,0.001000,0.001000,0.001000,0.001000,0.001000
1015.134615,0.042460,0.001000,0.001000,0.001000,0.001000,0.001000
1015.153846,0.043113,0.001000,0.001000,0.001000,0.001000,0.001000
1015.173077,0.043738,0.001000,0.001000,0.001000,0.001000,0.001000
1015.192308,0.044336,0.001000,0.001000,0.001000,0.001000,0.001000
1015.211538,0.044905,0.001000,0.001000,0.001000,0.001000,0.001000
1015.230769,0.045446,0.001000,0.001000,0.001000,0.001000,0.001000
1015.250000,0.045957,0.001000,0.001000,0.001000,0.001000,0.001000
1015.269231,0.046440,0.001000,0.001000,0.001000,0.001000,0.001000
1015.288462,0.046893,0.001000,0.001000,0.001000,0.001000,0.001000
1015.307692,0.047316,0.001000,0.001000,0.001000,0.001000,0.001000
1015.326923,0.047708,0.001000,0.001000,0.001000,0.001000,0.001000
1015.346154,0.048071,0.001000,0.001000,0.001000,0.001000,0.001000
1015.365385,0.048403,0.001000,0.001000,0.001000,0.001000,0.001000
1015.384615,0.048704,0.001000,0.001000,0.001000,0.001000,0.001000
1015.403846,0.048974,0.001000,0.001000,0.001000,0.001000,0.001000
1015.423077,0.049212,0.001000,0.001000,0.001000,0.001000,0.001000
1015.442308,0.049420,0.001000,0.001000,0.001000,0.001000,0.001000
1015.461538,0.049596,0.001000,0.001000,0.001000,0.001000,0.001000
1015.480769,0.049740,0.001000,0.001000,0.001000,0.001000,0.001000
1015.500000,0.049853,0.001000,0.001000,0.001000,0.001000,0.001000
1015.519231,0.049934,0.001000,0.001000,0.001000,0.001000,0.001000
1015.538462,0.049983,0.001000,0.001000,0.001000,0.001000,0.001000
1015.557692,0.050000,0.001000,0.001000,0.001000,0.001000,0.001000
1015.576923,0.049985,0.001000,0.001000,0.001000,0.001000,0.001000
1015.596154,0.049939,0.001000,0.001000,0.001000,0.001000,0.001000
1015.615385,0.049861,0.001000,0.001000,0.001000,0.001000,0.001000
1015.634615,0.049751,0.001000,0.001000,0.001000,0.001000,0.001000
1015.653846,0.049609,0.001000,0.001000,0.001000,0.001000,0.001000
1015.673077,0.049436,0.001000,0.001000,0.001000,0.001000,0.001000
1015.692308,0.049231,0.001000,0.001000,0.001000,0.001000,0.001000
1015.711538,0.048995,0.001000,0.001000,0.001000,0.001000,0.001000
1015.730769,0.048727,0.001000,0.001000,0.001000,0.001000,0.001000
1015.750000,0.048429,0.001000,0.001000,0.001000,0.001000,0.001000
1015.769231,0.048099,0.001000,0.001000,0.001000,0.001000,0.001000
1015.788462,0.047740,0.001000,0.001000,0.001000,0.001000,0.001000
1015.807692,0.047349,0.001000,0.001000,0.001000,0.001000,0.001000
1015.826923,0.046929,0.001000,0.001000,0.001000,0.001000,0.001000
1015.846154,0.046478,0.001000,0.001000,0.001000,0.001000,0.001000
1015.865385,0.045998,0.001000,0.001000,0.001000,0.001000,0.001000
1015.884615,0.045489,0.001000,0.001000,0.001000,0.001000,0.001000
1015.903846,0.044951,0.001000,0.001000,0.001000,0.001000,0.001000
1015.923077,0.044384,0.001000,0.001000,0.001000,0.001000,0.001000
1015.942308,0.043789,0.001000,0.001000,0.001000,0.001000,0.001000
1015.961538,0.043166,0.001000,0.001000,0.001000,0.001000,0.001000
1015.980769,0.042515,0.001000,0.001000,0.001000,0.001000,0.001000
1016.000000,0.041837,0.001000,0.001000,0.001000,0.001000,0.001000
1016.019231,0.041133,0.001000,0.001000,0.001000,0.001000,0.001000
1016.038462,0.040402,0.001000,0.001000,0.001000,0.001000,0.001000
1016.057692,0.039646,0.001000,0.001000,0.001000,0.001000,0.001000
1016.076923,0.038865,0.001000,0.001000,0.001000,0.001000,0.001000
1016.096154,0.038058,0.001000,0.001000,0.001000,0.001000,0.001000
1016.115385,0.037228,0.001000,0.001000,0.001000,0.001000,0.001000
1016.134615,0.036374,0.001000,0.001000,0.001000,0.001000,0.001000
1016.153846,0.035496,0.001000,0.001000,0.001000,0.001000,0.001000
1016.173077,0.034596,0.001000,0.001000,0.001000,0.001000,0.001000
1016.192308,0.033674,0.001000,0.001000,0.001000,0.001000,0.001000
1016.211538,0.032731,0.001000,0.001000,0.001000,0.001000,0.001000
1016.230769,0.031766,0.001000,0.001000,0.001000,0.001000,0.001000
1016.250000,0.030782,0.001000,0.001000,0.001000,0.001000,0.001000
1016.269231,0.029778,0.001000,0.001000,0.001000,0.001000,0.001000
1016.288462,0.028754,0.001000,0.001000,0.001000,0.001000,0.001000
1016.307692,0.027713,0.001000,0.001000,0.001000,0.001000,0.001000
1016.326923,0.026654,0.001000,0.001000,0.001000,0.001000,0.001000
1016.346154,0.025578,0.001000,0.001000,0.001000,0.001000,0.001000
1016.365385,0.024485,0.001000,0.001000,0.001000,0.001000,0.001000
1016.384615,0.023377,0.001000,0.001000,0.001000,0.001000,0.001000
1016.403846,0.022254,0.001000,0.001000,0.001000,0.001000,0.001000
1016.423077,0.021117,0.001000,0.001000,0.001000,0.001000,0.001000
1016.442308,0.019967,0.001000,0.001000,0.001000,0.001000,0.001000
1016.461538,0.018803,0.001000,0.001000,0.001000,0.001000,0.001000
1016.480769,0.017628,0.001000,0.001000,0.001000,0.001000,0.001000
1016.500000,0.016442,0.001000,0.001000,0.001000,0.001000,0.001000
1016.519231,0.015245,0.001000,0.001000,0.001000,0.001000,0.001000
1016.538462,0.014038,0.001000,0.001000,0.001000,0.001000,0.001000
1016.557692,0.012823,0.001000,0.001000,0.001000,0.001000,0.001000
1016.576923,0.011599,0.001000,0.001000,0.001000,0.001000,0.001000
1016.596154,0.010368,0.001000,0.001000,0.001000,0.001000,0.001000
1016.615385,0.009130,0.001000,0.001000,0.001000,0.001000,0.001000
1016.634615,0.007886,0.001000,0.001000,0.001000,0.001000,0.001000
1016.653846,0.006638,0.001000,0.001000,0.001000,0.001000,0.001000
1016.673077,0.005385,0.001000,0.001000,0.001000,0.001000,0.001000
1016.692308,0.004129,0.001000,0.001000,0.001000,0.001000,0.001000
1016.711538,0.002870,0.001000,0.001000,0.001000,0.001000,0.001000
1016.730769,0.001609,0.001000,0.001000,0.001000,0.001000,0.001000
1016.750000,0.000347,0.001000,0.001000,0.001000,0.001000,0.001000
1016.769231,-0.000915,0.001000,0.001000,0.001000,0.001000,0.001000
1016.788462,-0.002176,0.001000,0.001000,0.001000,0.001000,0.001000
1016.807692,-0.003436,0.001000,0.001000,0.001000,0.001000,0.001000
1016.826923,-0.004694,0.001000,0.001000,0.001000,0.001000,0.001000
1016.846154,-0.005949,0.001000,0.001000,0.001000,0.001000,0.001000
1016.865385,-0.007200,0.001000,0.001000,0.001000,0.001000,0.001000
1016.884615,-0.008446,0.001000,0.001000,0.001000,0.001000,0.001000
1016.903846,-0.009687,0.001000,0.001000,0.001000,0.001000,0.001000
1016.923077,-0.010922,0.001000,0.001000,0.001000,0.001000,0.001000
1016.942308,-0.012150,0.001000,0.001000,0.001000,0.001000,0.001000
1016.961538,-0.013370,0.001000,0.001000,0.001000,0.001000,0.001000
1016.980769,-0.014582,0.001000,0.001000,0.001000,0.001000,0.001000
1017.000000,-0.015784,0.001000,0.001000,0.001000,0.001000,0.001000
1017.019231,-0.016976,0.001000,0.001000,0.001000,0.001000,0.001000
1017.038462,-0.018158,0.001000,0.001000,0.001000,0.001000,0.001000
1017.057692,-0.019328,0.001000,0.001000,0.001000,0.001000,0.001000
1017.076923,-0.020486,0.001000,0.001000,0.001000,0.001000,0.001000
1017.096154,-0.021630,0.001000,0.001000,0.001000,0.001000,0.001000
1017.115385,-0.022761,0.001000,0.001000,0.001000,0.001000,0.001000
1017.134615,-0.023877,0.001000,0.001000,0.001000,0.001000,0.001000
1017.153846,-0.024978,0.001000,0.001000,0.001000,0.001000,0.001000
1017.173077,-0.026063,0.001000,0.001000,0.001000,0.001000,0.001000
1017.192308,-0.027132,0.001000,0.001000,0.001000,0.001000,0.001000
1017.211538,-0.028183,0.001000,0.001000,0.001000,0.001000,0.001000
1017.230769,-0.029217,0.001000,0.001000,0.001000,0.001000,0.001000
1017.250000,-0.030231,0.001000,0.001000,0.001000,0.001000,0.001000
1017.269231,-0.031227,0.001000,0.001000,0.001000,0.001000,0.001000
1017.288462,-0.032202,0.001000,0.001000,0.001000,0.001000,0.001000
1017.307692,-0.033157,0.001000,0.001000,0.001000,0.001000,0.001000
1017.326923,-0.034091,0.001000,0.001000,0.001000,0.001000,0.001000
1017.346154,-0.035004,0.001000,0.001000,0.001000,0.001000,0.001000
1017.365385,-0.035894,0.001000,0.001000,0.001000,0.001000,0.001000
1017.384615,-0.036761,0.001000,0.001000,0.001000,0.001000,0.001000
1017.403846,-0.037604,0.001000,0.001000,0.001000,0.001000,0.001000
1017.423077,-0.038424,0.001000,0.001000,0.001000,0.001000,0.001000
1017.442308,-0.039219,0.001000,0.001000,0.001000,0.001000,0.001000
1017.461538,-0.039989,0.001000,0.001000,0.001000,0.001000,0.001000
1017.480769,-0.040734,0.001000,0.001000,0.001000,0.001000,0.001000
1017.500000,-0.041453,0.001000,0.001000,0.001000,0.001000,0.001000
1017.519231,-0.042145,0.001000,0.001000,0.001000,0.001000,0.001000
1017.538462,-0.042811,0.001000,0.001000,0.001000,0.001000,0.001000
1017.557692,-0.043449,0.001000,0.001000,0.001000,0.001000,0.001000
1017.576923,-0.044060,0.001000,0.001000,0.001000,0.001000,0.001000
1017.596154,-0.044642,0.001000,0.001000,0.001000,0.001000,0.001000
1017.615385,-0.045196,0.001000,0.001000,0.001000,0.001000,0.001000
1017.634615,-0.045722,0.001000,0.001000,0.001000,0.001000,0.001000
1017.653846,-0.046218,0.001000,0.001000,0.001000,0.001000,0.001000
1017.673077,-0.046684,0.001000,0.001000,0.001000,0.001000,0.001000
1017.692308,-0.047121,0.001000,0.001000,0.001000,0.001000,0.001000
1017.711538,-0.047528,0.001000,0.001000,0.001000,0.001000,0.001000
1017.730769,-0.047905,0.001000,0.001000,0.001000,0.001000,0.001000
1017.750000,-0.048251,0.001000,0.001000,0.001000,0.001000,0.001000
1017.769231,-0.048567,0.001000,0.001000,0.001000,0.001000,0.001000
1017.788462,-0.048851,0.001000,0.001000,0.001000,0.001000,0.001000
1017.807692,-0.049105,0.001000,0.001000,0.001000,0.001000,0.001000
1017.826923,-0.049327,0.001000,0.001000,0.001000,0.001000,0.001000
1017.846154,-0.049517,0.001000,0.001000,0.001000,0.001000,0.001000
1017.865385,-0.049677,0.001000,0.001000,0.001000,0.001000,0.001000
1017.884615,-0.049804,0.001000,0.001000,0.001000,0.001000,0.001000
1017.903846,-0.049900,0.001000,0.001000,0.001000,0.001000,0.001000
1017.923077,-0.049964,0.001000,0.001000,0.001000,0.001000,0.001000
1017.942308,-0.049996,0.001000,0.001000,0.001000,0.001000,0.001000
1017.961538,-0.049996,0.001000,0.001000,0.001000,0.001000,0.001000
1017.980769,-0.049965,0.001000,0.001000,0.001000,0.001000,0.001000
1018.000000,-0.049901,0.001000,0.001000,0.001000,0.001000,0.001000
1018.019231,-0.049806,0.001000,0.001000,0.001000,0.001000,0.001000
1018.038462,-0.049679,0.001000,0.001000,0.001000,0.001000,0.001000
1018.057692,-0.049521,0.001000,0.001000,0.001000,0.001000,0.001000
1018.076923,-0.049330,0.001000,0.001000,0.001000,0.001000,0.001000
1018.096154,-0.049109,0.001000,0.001000,0.001000,0.001000,0.001000
1018.115385,-0.048856,0.001000,0.001000,0.001000,0.001000,0.001000
1018.134615,-0.048572,0.001000,0.001000,0.001000,0.001000,0.001000
1018.153846,-0.048257,0.001000,0.001000,0.001000,0.001000,0.001000
1018.173077,-0.047912,0.001000,0.001000,0.001000,0.001000,0.001000
1018.192308,-0.047536,0.001000,0.001000,0.001000,0.001000,0.001000
1018.211538,-0.047129,0.001000,0.001000,0.001000,0.001000,0.001000
1018.230769,-0.046693,0.001000,0.001000,0.001000,0.001000,0.001000
1018.250000,-0.046227,0.001000,0.001000,0.001000,0.001000,0.001000
1018.269231,-0.045731,0.001000,0.001000,0.001000,0.001000,0.001000
1018.288462,-0.045206,0.001000,0.001000,0.001000,0.001000,0.001000
1018.307692,-0.044653,0.001000,0.001000,0.001000,0.001000,0.001000
1018.326923,-0.044071,0.001000,0.001000,0.001000,0.001000,0.001000
1018.346154,-0.043461,0.001000,0.001000,0.001000,0.001000,0.001000
1018.365385,-0.042823,0.001000,0.001000,0.001000,0.001000,0.001000
1018.384615,-0.042158,0.001000,0.001000,0.001000,0.001000,0.001000
1018.403846,-0.041466,0.001000,0.001000,0.001000,0.001000,0.001000
1018.423077,-0.040747,0.001000,0.001000,0.001000,0.001000,0.001000
1018.442308,-0.040003,0.001000,0.001000,0.001000,0.001000,0.001000
1018.461538,-0.039233,0.001000,0.001000,0.001000,0.001000,0.001000
1018.480769,-0.038439,0.001000,0.001000,0.001000,0.001000,0.001000
1018.500000,-0.037619,0.001000,0.001000,0.001000,0.001000,0.001000
1018.519231,-0.036776,0.001000,0.001000,0.001000,0.001000,0.001000
1018.538462,-0.035910,0.001000,0.001000,0.001000,0.001000,0.001000
1018.557692,-0.035020,0.001000,0.001000,0.001000,0.001000,0.001000
1018.576923,-0.034108,0.001000,0.001000,0.001000,0.001000,0.001000
1018.596154,-0.033175,0.001000,0.001000,0.001000,0.001000,0.001000
1018.615385,-0.032220,0.001000,0.001000,0.001000,0.001000,0.001000
1018.634615,-0.031245,0.001000,0.001000,0.001000,0.001000,0.001000
1018.653846,-0.030250,0.001000,0.001000,0.001000,0.001000,0.001000
1018.673077,-0.029235,0.001000,0.001000,0.001000,0.001000,0.001000
1018.692308,-0.028202,0.001000,0.001000,0.001000,0.001000,0.001000
1018.711538,-0.027151,0.001000,0.001000,0.001000,0.001000,0.001000
1018.730769,-0.026083,0.001000,0.001000,0.001000,0.001000,0.001000
1018.750000,-0.024998,0.001000,0.001000,0.001000,0.001000,0.001000
1018.769231,-0.023897,0.001000,0.001000,0.001000,0.001000,0.001000
1018.788462,-0.022781,0.001000,0.001000,0.001000,0.001000,0.001000
1018.807692,-0.021651,0.001000,0.001000,0.001000,0.001000,0.001000
1018.826923,-0.020507,0.001000,0.001000,0.001000,0.001000,0.001000
1018.846154,-0.019349,0.001000,0.001000,0.001000,0.001000,0.001000
1018.865385,-0.018179,0.001000,0.001000,0.001000,0.001000,0.001000
1018.884615,-0.016998,0.001000,0.001000,0.001000,0.001000,0.001000
1018.903846,-0.015806,0.001000,0.001000,0.001000,0.001000,0.001000
1018.923077,-0.014604,0.001000,0.001000,0.001000,0.001000,0.001000
1018.942308,-0.013392,0.001000,0.001000,0.001000,0.001000,0.001000
1018.961538,-0.012172,0.001000,0.001000,0.001000,0.001000,0.001000
1018.980769,-0.010945,0.001000,0.001000,0.001000,0.001000,0.001000
1019.000000,-0.009710,0.001000,0.001000,0.001000,0.001000,0.001000
1019.019231,-0.008469,0.001000,0.001000,0.001000,0.001000,0.001000
1019.038462,-0.007222,0.001000,0.001000,0.001000,0.001000,0.001000
1019.057692,-0.005972,0.001000,0.001000,0.001000,0.001000,0.001000
1019.076923,-0.004717,0.001000,0.001000,0.001000,0.001000,0.001000
1019.096154,-0.003459,0.001000,0.001000,0.001000,0.001000,0.001000
1019.115385,-0.002199,0.001000,0.001000,0.001000,0.001000,0.001000
1019.134615,-0.000938,0.001000,0.001000,0.001000,0.001000,0.001000
1019.153846,0.000324,0.001000,0.001000,0.001000,0.001000,0.001000
1019.173077,0.001586,0.001000,0.001000,0.001000,0.001000,0.001000
1019.192308,0.002847,0.001000,0.001000,0.001000,0.001000,0.001000
1019.211538,0.004106,0.001000,0.001000,0.001000,0.001000,0.001000
1019.230769,0.005362,0.001000,0.001000,0.001000,0.001000,0.001000
1019.250000,0.006615,0.001000,0.001000,0.001000,0.001000,0.001000
1019.269231,0.007864,0.001000,0.001000,0.001000,0.001000,0.001000
1019.288462,0.009107,0.001000,0.001000,0.001000,0.001000,0.001000
1019.307692,0.010345,0.001000,0.001000,0.001000,0.001000,0.001000
1019.326923,0.011576,0.001000,0.001000,0.001000,0.001000,0.001000
1019.346154,0.012800,0.001000,0.001000,0.001000,0.001000,0.001000
1019.365385,0.014016,0.001000,0.001000,0.001000,0.001000,0.001000
1019.384615,0.015223,0.001000,0.001000,0.001000,0.001000,0.001000
1019.403846,0.016420,0.001000,0.001000,0.001000,0.001000,0.001000
1019.423077,0.017607,0.001000,0.001000,0.001000,0.001000,0.001000
1019.442308,0.018782,0.001000,0.001000,0.001000,0.001000,0.001000
1019.461538,0.019945,0.001000,0.001000,0.001000,0.001000,0.001000
1019.480769,0.021096,0.001000,0.001000,0.001000,0.001000,0.001000
1019.500000,0.022234,0.001000,0.001000,0.001000,0.001000,0.001000
1019.519231,0.023357,0.001000,0.001000,0.001000,0.001000,0.001000
1019.538462,0.024465,0.001000,0.001000,0.001000,0.001000,0.001000
1019.557692,0.025558,0.001000,0.001000,0.001000,0.001000,0.001000
1019.576923,0.026634,0.001000,0.001000,0.001000,0.001000,0.001000
1019.596154,0.027694,0.001000,0.001000,0.001000,0.001000,0.001000
1019.615385,0.028735,0.001000,0.001000,0.001000,0.001000,0.001000
1019.634615,0.029759,0.001000,0.001000,0.001000,0.001000,0.001000
1019.653846,0.030764,0.001000,0.001000,0.001000,0.001000,0.001000
1019.673077,0.031749,0.001000,0.001000,0.001000,0.001000,0.001000
1019.692308,0.032713,0.001000,0.001000,0.001000,0.001000,0.001000
1019.711538,0.033657,0.001000,0.001000,0.001000,0.001000,0.001000
1019.730769,0.034580,0.001000,0.001000,0.001000,0.001000,0.001000
1019.750000,0.035480,0.001000,0.001000,0.001000,0.001000,0.001000
1019.769231,0.036358,0.001000,0.001000,0.001000,0.001000,0.001000
1019.788462,0.037212,0.001000,0.001000,0.001000,0.001000,0.001000
1019.807692,0.038043,0.001000,0.001000,0.001000,0.001000,0.001000
1019.826923,0.038850,0.001000,0.001000,0.001000,0.001000,0.001000
1019.846154,0.039632,0.001000,0.001000,0.001000,0.001000,0.001000
1019.865385,0.040389,0.001000,0.001000,0.001000,0.001000,0.001000
1019.884615,0.041120,0.001000,0.001000,0.001000,0.001000,0.001000
1019.903846,0.041825,0.001000,0.001000,0.001000,0.001000,0.001000
1019.923077,0.042503,0.001000,0.001000,0.001000,0.001000,0.001000
1019.942308,0.043154,0.001000,0.001000,0.001000,0.001000,0.001000
1019.961538,0.043777,0.001000,0.001000,0.001000,0.001000,0.001000
1019.980769,0.044373,0.001000,0.001000,0.001000,0.001000,0.001000
1020.000000,0.044941,0.001000,0.001000,0.001000,0.001000,0.001000
1020.019231,0.045479,0.001000,0.001000,0.001000,0.001000,0.001000
1020.038462,0.045989,0.001000,0.001000,0.001000,0.001000,0.001000
1020.057692,0.046470,0.001000,0.001000,0.001000,0.001000,0.001000
1020.076923,0.046921,0.001000,0.001000,0.001000,0.001000,0.001000
1020.096154,0.047342,0.001000,0.001000,0.001000,0.001000,0.001000
1020.115385,0.047733,0.001000,0.001000,0.001000,0.001000,0.001000
1020.134615,0.048093,0.001000,0.001000,0.001000,0.001000,0.001000
1020.153846,0.048423,0.001000,0.001000,0.001000,0.001000,0.001000
1020.173077,0.048722,0.001000,0.001000,0.001000,0.001000,0.001000
1020.192308,0.048990,0.001000,0.001000,0.001000,0.001000,0.001000
1020.211538,0.049227,0.001000,0.001000,0.001000,0.001000,0.001000
1020.230769,0.049432,0.001000,0.001000,0.001000,0.001000,0.001000
1020.250000,0.049606,0.001000,0.001000,0.001000,0.001000,0.001000
1020.269231,0.049748,0.001000,0.001000,0.001000,0.001000,0.001000
1020.288462,0.049859,0.001000,0.001000,0.001000,0.001000,0.001000
1020.307692,0.049938,0.001000,0.001000,0.001000,0.001000,0.001000
1020.326923,0.049985,0.001000,0.001000,0.001000,0.001000,0.001000
1020.346154,0.050000,0.001000,0.001000,0.001000,0.001000,0.001000
1020.365385,0.049983,0.001000,0.001000,0.001000,0.001000,0.001000
1020.384615,0.049935,0.001000,0.001000,0.001000,0.001000,0.001000
1020.403846,0.049855,0.001000,0.001000,0.001000,0.001000,0.001000
1020.423077,0.049742,0.001000,0.001000,0.001000,0.001000,0.001000
1020.442308,0.049599,0.001000,0.001000,0.001000,0.001000,0.001000
1020.461538,0.049423,0.001000,0.001000,0.001000,0.001000,0.001000
1020.480769,0.049217,0.001000,0.001000,0.001000,0.001000,0.001000
1020.500000,0.048978,0.001000,0.001000,0.001000,0.001000,0.001000
1020.519231,0.048709,0.001000,0.001000,0.001000,0.001000,0.001000
1020.538462,0.048409,0.001000,0.001000,0.001000,0.001000,0.001000
1020.557692,0.048077,0.001000,0.001000,0.001000,0.001000,0.001000
1020.576923,0.047715,0.001000,0.001000,0.001000,0.001000,0.001000
1020.596154,0.047323,0.001000,0.001000,0.001000,0.001000,0.001000
1020.615385,0.046901,0.001000,0.001000,0.001000,0.001000,0.001000
1020.634615,0.046448,0.001000,0.001000,0.001000,0.001000,0.001000
1020.653846,0.045966,0.001000,0.001000,0.001000,0.001000,0.001000
1020.673077,0.045455,0.001000,0.001000,0.001000,0.001000,0.001000
1020.692308,0.044915,0.001000,0.001000,0.001000,0.001000,0.001000
1020.711538,0.044346,0.001000,0.001000,0.001000,0.001000,0.001000
1020.730769,0.043749,0.001000,0.001000,0.001000,0.001000,0.001000
1020.750000,0.043125,0.001000,0.001000,0.001000,0.001000,0.001000
1020.769231,0.042472,0.001000,0.001000,0.001000,0.001000,0.001000
1020.788462,0.041793,0.001000,0.001000,0.001000,0.001000,0.001000
1020.807692,0.041087,0.001000,0.001000,0.001000,0.001000,0.001000
1020.826923,0.040355,0.001000,0.001000,0.001000,0.001000,0.001000
1020.846154,0.039597,0.001000,0.001000,0.001000,0.001000,0.001000
1020.865385,0.038814,0.001000,0.001000,0.001000,0.001000,0.001000
1020.884615,0.038006,0.001000,0.001000,0.001000,0.001000,0.001000
1020.903846,0.037174,0.001000,0.001000,0.001000,0.001000,0.001000
1020.923077,0.036318,0.001000,0.001000,0.001000,0.001000,0.001000
1020.942308,0.035439,0.001000,0.001000,0.001000,0.001000,0.001000
1020.961538,0.034538,0.001000,0.001000,0.001000,0.001000,0.001000
1020.980769,0.033614,0.001000,0.001000,0.001000,0.001000,0.001000
1021.000000,0.032669,0.001000,0.001000,0.001000,0.001000,0.001000
1021.019231,0.031704,0.001000,0.001000,0.001000,0.001000,0.001000
1021.038462,0.030718,0.001000,0.001000,0.001000,0.001000,0.001000
1021.057692,0.029712,0.001000,0.001000,0.001000,0.001000,0.001000
1021.076923,0.028688,0.001000,0.001000,0.001000,0.001000,0.001000
1021.096154,0.027645,0.001000,0.001000,0.001000,0.001000,0.001000
1021.115385,0.026585,0.001000,0.001000,0.001000,0.001000,0.001000
1021.134615,0.025508,0.001000,0.001000,0.001000,0.001000,0.001000
1021.153846,0.024414,0.001000,0.001000,0.001000,0.001000,0.001000
1021.173077,0.023305,0.001000,0.001000,0.001000,0.001000,0.001000
1021.192308,0.022182,0.001000,0.001000,0.001000,0.001000,0.001000
1021.211538,0.021044,0.001000,0.001000,0.001000,0.001000,0.001000
1021.230769,0.019892,0.001000,0.001000,0.001000,0.001000,0.001000
1021.250000,0.018728,0.001000,0.001000,0.001000,0.001000,0.001000
1021.269231,0.017552,0.001000,0.001000,0.001000,0.001000,0.001000
1021.288462,0.016365,0.001000,0.001000,0.001000,0.001000,0.001000
1021.307692,0.015168,0.001000,0.001000,0.001000,0.001000,0.001000
1021.326923,0.013960,0.001000,0.001000,0.001000,0.001000,0.001000
1021.346154,0.012744,0.001000,0.001000,0.001000,0.001000,0.001000
1021.365385,0.011520,0.001000,0.001000,0.001000,0.001000,0.001000
1021.384615,0.010288,0.001000,0.001000,0.001000,0.001000,0.001000
1021.403846,0.009050,0.001000,0.001000,0.001000,0.001000,0.001000
1021.423077,0.007806,0.001000,0.001000,0.001000,0.001000,0.001000
1021.442308,0.006557,0.001000,0.001000,0.001000,0.001000,0.001000
1021.461538,0.005304,0.001000,0.001000,0.001000,0.001000,0.001000
1021.480769,0.004048,0.001000,0.001000,0.001000,0.001000,0.001000
1021.500000,0.002789,0.001000,0.001000,0.001000,0.001000,0.001000
1021.519231,0.001528,0.001000,0.001000,0.001000,0.001000,0.001000
1021.538462,0.000266,0.001000,0.001000,0.001000,0.001000,0.001000
1021.557692,-0.000996,0.001000,0.001000,0.001000,0.001000,0.001000
1021.576923,-0.002257,0.001000,0.001000,0.001000,0.001000,0.001000
1021.596154,-0.003517,0.001000,0.001000,0.001000,0.001000,0.001000
1021.615385,-0.004775,0.001000,0.001000,0.001000,0.001000,0.001000
1021.634615,-0.006029,0.001000,0.001000,0.001000,0.001000,0.001000
1021.653846,-0.007280,0.001000,0.001000,0.001000,0.001000,0.001000
1021.673077,-0.008526,0.001000,0.001000,0.001000,0.001000,0.001000
1021.692308,-0.009767,0.001000,0.001000,0.001000,0.001000,0.001000
1021.711538,-0.011001,0.001000,0.001000,0.001000,0.001000,0.001000
1021.730769,-0.012229,0.001000,0.001000,0.001000,0.001000,0.001000
1021.750000,-0.013448,0.001000,0.001000,0.001000,0.001000,0.001000
1021.769231,-0.014659,0.001000,0.001000,0.001000,0.001000,0.001000
1021.788462,-0.015861,0.001000,0.001000,0.001000,0.001000,0.001000
1021.807692,-0.017053,0.001000,0.001000,0.001000,0.001000,0.001000
1021.826923,-0.018233,0.001000,0.001000,0.001000,0.001000,0.001000
1021.846154,-0.019403,0.001000,0.001000,0.001000,0.001000,0.001000
1021.865385,-0.020559,0.001000,0.001000,0.001000,0.001000,0.001000
1021.884615,-0.021703,0.001000,0.001000,0.001000,0.001000,0.001000
1021.903846,-0.022833,0.001000,0.001000,0.001000,0.001000,0.001000
1021.923077,-0.023948,0.001000,0.001000,0.001000,0.001000,0.001000
1021.942308,-0.025048,0.001000,0.001000,0.001000,0.001000,0.001000
1021.961538,-0.026133,0.001000,0.001000,0.001000,0.001000,0.001000
1021.980769,-0.027200,0.001000,0.001000,0.001000,0.001000,0.001000
1022.000000,-0.028250,0.001000,0.001000,0.001000,0.001000,0.001000
1022.019231,-0.029282,0.001000,0.001000,0.001000,0.001000,0.001000
1022.038462,-0.030296,0.001000,0.001000,0.001000,0.001000,0.001000
1022.057692,-0.031290,0.001000,0.001000,0.001000,0.001000,0.001000
1022.076923,-0.032264,0.001000,0.001000,0.001000,0.001000,0.001000
1022.096154,-0.033218,0.001000,0.001000,0.001000,0.001000,0.001000
1022.115385,-0.034151,0.001000,0.001000,0.001000,0.001000,0.001000
1022.134615,-0.035061,0.001000,0.001000,0.001000,0.001000,0.001000
1022.153846,-0.035950,0.001000,0.001000,0.001000,0.001000,0.001000
1022.173077,-0.036816,0.001000,0.001000,0.001000,0.001000,0.001000
1022.192308,-0.037658,0.001000,0.001000,0.001000,0.001000,0.001000
1022.211538,-0.038476,0.001000,0.001000,0.001000,0.001000,0.001000
1022.230769,-0.039269,0.001000,0.001000,0.001000,0.001000,0.001000
1022.250000,-0.040038,0.001000,0.001000,0.001000,0.001000,0.001000
1022.269231,-0.040781,0.001000,0.001000,0.001000,0.001000,0.001000
1022.288462,-0.041498,0.001000,0.001000,0.001000,0.001000,0.001000
1022.307692,-0.042189,0.001000,0.001000,0.001000,0.001000,0.001000
1022.326923,-0.042853,0.001000,0.001000,0.001000,0.001000,0.001000
1022.346154,-0.043489,0.001000,0.001000,0.001000,0.001000,0.001000
1022.365385,-0.044098,0.001000,0.001000,0.001000,0.001000,0.001000
1022.384615,-0.044679,0.001000,0.001000,0.001000,0.001000,0.001000
1022.403846,-0.045231,0.001000,0.001000,0.001000,0.001000,0.001000
1022.423077,-0.045754,0.001000,0.001000,0.001000,0.001000,0.001000
1022.442308,-0.046249,0.001000,0.001000,0.001000,0.001000,0.001000
1022.461538,-0.046713,0.001000,0.001000,0.001000,0.001000,0.001000
1022.480769,-0.047149,0.001000,0.001000,0.001000,0.001000,0.001000
1022.500000,-0.047554,0.001000,0.001000,0.001000,0.001000,0.001000
1022.519231,-0.047928,0.001000,0.001000,0.001000,0.001000,0.001000
1022.538462,-0.048273,0.001000,0.001000,0.001000,0.001000,0.001000
1022.557692,-0.048586,0.001000,0.001000,0.001000,0.001000,0.001000
1022.576923,-0.048868,0.001000,0.001000,0.001000,0.001000,0.001000
1022.596154,-0.049120,0.001000,0.001000,0.001000,0.001000,0.001000
1022.615385,-0.049340,0.001000,0.001000,0.001000,0.001000,0.001000
1022.634615,-0.049529,0.001000,0.001000,0.001000,0.001000,0.001000
1022.653846,-0.049686,0.001000,0.001000,0.001000,0.001000,0.001000
1022.673077,-0.049811,0.001000,0.001000,0.001000,0.001000,0.001000
1022.692308,-0.049905,0.001000,0.001000,0.001000,0.001000,0.001000
1022.711538,-0.049967,0.001000,0.001000,0.001000,0.001000,0.001000
1022.730769,-0.049997,0.001000,0.001000,0.001000,0.001000,0.001000
1022.750000,-0.049995,0.001000,0.001000,0.001000,0.001000,0.001000
1022.769231,-0.049961,0.001000,0.001000,0.001000,0.001000,0.001000
1022.788462,-0.049896,0.001000,0.001000,0.001000,0.001000,0.001000
1022.807692,-0.049799,0.001000,0.001000,0.001000,0.001000,0.001000
1022.826923,-0.049670,0.001000,0.001000,0.001000,0.001000,0.001000
1022.846154,-0.049509,0.001000,0.001000,0.001000,0.001000,0.001000
1022.865385,-0.049317,0.001000,0.001000,0.001000,0.001000,0.001000
1022.884615,-0.049094,0.001000,0.001000,0.001000,0.001000,0.001000
1022.903846,-0.048839,0.001000,0.001000,0.001000,0.001000,0.001000
1022.923077,-0.048553,0.001000,0.001000,0.001000,0.001000,0.001000
1022.942308,-0.048236,0.001000,0.001000,0.001000,0.001000,0.001000
1022.961538,-0.047888,0.001000,0.001000,0.001000,0.001000,0.001000
1022.980769,-0.047510,0.001000,0.001000,0.001000,0.001000,0.001000
1023.000000,-0.047102,0.001000,0.001000,0.001000,0.001000,0.001000
1023.019231,-0.046664,0.001000,0.001000,0.001000,0.001000,0.001000
1023.038462,-0.046196,0.001000,0.001000,0.001000,0.001000,0.001000
1023.057692,-0.045698,0.001000,0.001000,0.001000,0.001000,0.001000
1023.076923,-0.045171,0.001000,0.001000,0.001000,0.001000,0.001000
1023.096154,-0.044616,0.001000,0.001000,0.001000,0.001000,0.001000
1023.115385,-0.044032,0.001000,0.001000,0.001000,0.001000,0.001000
1023.134615,-0.043420,0.001000,0.001000,0.001000,0.001000,0.001000
1023.153846,-0.042781,0.001000,0.001000,0.001000,0.001000,0.001000
1023.173077,-0.042114,0.001000,0.001000,0.001000,0.001000,0.001000
1023.192308,-0.041420,0.001000,0.001000,0.001000,0.001000,0.001000
1023.211538,-0.040700,0.001000,0.001000,0.001000,0.001000,0.001000
1023.230769,-0.039955,0.001000,0.001000,0.001000,0.001000,0.001000
1023.250000,-0.039183,0.001000,0.001000,0.001000,0.001000,0.001000
1023.269231,-0.038387,0.001000,0.001000,0.001000,0.001000,0.001000
1023.288462,-0.037566,0.001000,0.001000,0.001000,0.001000,0.001000
1023.307692,-0.036721,0.001000,0.001000,0.001000,0.001000,0.001000
1023.326923,-0.035853,0.001000,0.001000,0.001000,0.001000,0.001000
1023.346154,-0.034962,0.001000,0.001000,0.001000,0.001000,0.001000
1023.365385,-0.034049,0.001000,0.001000,0.001000,0.001000,0.001000
1023.384615,-0.033114,0.001000,0.001000,0.001000,0.001000,0.001000
1023.403846,-0.032158,0.001000,0.001000,0.001000,0.001000,0.001000
1023.423077,-0.031182,0.001000,0.001000,0.001000,0.001000,0.001000
1023.442308,-0.030185,0.001000,0.001000,0.001000,0.001000,0.001000
1023.461538,-0.029170,0.001000,0.001000,0.001000,0.001000,0.001000
1023.480769,-0.028135,0.001000,0.001000,0.001000,0.001000,0.001000
1023.500000,-0.027083,0.001000,0.001000,0.001000,0.001000,0.001000
1023.519231,-0.026014,0.001000,0.001000,0.001000,0.001000,0.001000
1023.538462,-0.024928,0.001000,0.001000,0.001000,0.001000,0.001000
1023.557692,-0.023826,0.001000,0.001000,0.001000,0.001000,0.001000
1023.576923,-0.022709,0.001000,0.001000,0.001000,0.001000,0.001000
1023.596154,-0.021578,0.001000,0.001000,0.001000,0.001000,0.001000
1023.615385,-0.020433,0.001000,0.001000,0.001000,0.001000,0.001000
1023.634615,-0.019274,0.001000,0.001000,0.001000,0.001000,0.001000
1023.653846,-0.018104,0.001000,0.001000,0.001000,0.001000,0.001000
1023.673077,-0.016922,0.001000,0.001000,0.001000,0.001000,0.001000
1023.692308,-0.015729,0.001000,0.001000,0.001000,0.001000,0.001000
1023.711538,-0.014526,0.001000,0.001000,0.001000,0.001000,0.001000
1023.730769,-0.013314,0.001000,0.001000,0.001000,0.001000,0.001000
1023.750000,-0.012094,0.001000,0.001000,0.001000,0.001000,0.001000
1023.769231,-0.010865,0.001000,0.001000,0.001000,0.001000,0.001000
1023.788462,-0.009630,0.001000,0.001000,0.001000,0.001000,0.001000
1023.807692,-0.008389,0.001000,0.001000,0.001000,0.001000,0.001000
1023.826923,-0.007142,0.001000,0.001000,0.001000,0.001000,0.001000
1023.846154,-0.005891,0.001000,0.001000,0.001000,0.001000,0.001000
1023.865385,-0.004636,0.001000,0.001000,0.001000,0.001000,0.001000
1023.884615,-0.003378,0.001000,0.001000,0.001000,0.001000,0.001000
1023.903846,-0.002118,0.001000,0.001000,0.001000,0.001000,0.001000
1023.923077,-0.000857,0.001000,0.001000,0.001000,0.001000,0.001000
1023.942308,0.000405,0.001000,0.001000,0.001000,0.001000,0.001000
1023.961538,0.001667,0.001000,0.001000,0.001000,0.001000,0.001000
1023.980769,0.002928,0.001000,0.001000,0.001000,0.001000,0.001000
1024.000000,0.004186,0.001000,0.001000,0.001000,0.001000,0.001000
1024.019231,0.005443,0.001000,0.001000,0.001000,0.001000,0.001000
1024.038462,0.006695,0.001000,0.001000,0.001000,0.001000,0.001000
1024.057692,0.007944,0.001000,0.001000,0.001000,0.001000,0.001000
1024.076923,0.009187,0.001000,0.001000,0.001000,0.001000,0.001000
1024.096154,0.010424,0.001000,0.001000,0.001000,0.001000,0.001000
1024.115385,0.011655,0.001000,0.001000,0.001000,0.001000,0.001000
1024.134615,0.012879,0.001000,0.001000,0.001000,0.001000,0.001000
1024.153846,0.014094,0.001000,0.001000,0.001000,0.001000,0.001000
1024.173077,0.015300,0.001000,0.001000,0.001000,0.001000,0.001000
1024.192308,0.016496,0.001000,0.001000,0.001000,0.001000,0.001000
1024.211538,0.017682,0.001000,0.001000,0.001000,0.001000,0.001000
1024.230769,0.018857,0.001000,0.001000,0.001000,0.001000,0.001000
1024.250000,0.020020,0.001000,0.001000,0.001000,0.001000,0.001000
1024.269231,0.021170,0.001000,0.001000,0.001000,0.001000,0.001000
1024.288462,0.022306,0.001000,0.001000,0.001000,0.001000,0.001000
1024.307692,0.023428,0.001000,0.001000,0.001000,0.001000,0.001000
1024.326923,0.024536,0.001000,0.001000,0.001000,0.001000,0.001000
1024.346154,0.025627,0.001000,0.001000,0.001000,0.001000,0.001000
1024.365385,0.026703,0.001000,0.001000,0.001000,0.001000,0.001000
1024.384615,0.027761,0.001000,0.001000,0.001000,0.001000,0.001000
1024.403846,0.028802,0.001000,0.001000,0.001000,0.001000,0.001000
1024.423077,0.029824,0.001000,0.001000,0.001000,0.001000,0.001000
1024.442308,0.030827,0.001000,0.001000,0.001000,0.001000,0.001000
1024.461538,0.031811,0.001000,0.001000,0.001000,0.001000,0.001000
1024.480769,0.032774,0.001000,0.001000,0.001000,0.001000,0.001000
1024.500000,0.033717,0.001000,0.001000,0.001000,0.001000,0.001000
1024.519231,0.034638,0.001000,0.001000,0.001000,0.001000,0.001000
1024.538462,0.035537,0.001000,0.001000,0.001000,0.001000,0.001000
1024.557692,0.036413,0.001000,0.001000,0.001000,0.001000,0.001000
1024.576923,0.037267,0.001000,0.001000,0.001000,0.001000,0.001000
1024.596154,0.038096,0.001000,0.001000,0.001000,0.001000,0.001000
1024.615385,0.038901,0.001000,0.001000,0.001000,0.001000,0.001000
1024.634615,0.039682,0.001000,0.001000,0.001000,0.001000,0.001000
1024.653846,0.040437,0.001000,0.001000,0.001000,0.001000,0.001000
1024.673077,0.041166,0.001000,0.001000,0.001000,0.001000,0.001000
1024.692308,0.041869,0.001000,0.001000,0.001000,0.001000,0.001000
1024.711538,0.042545,0.001000,0.001000,0.001000,0.001000,0.001000
1024.730769,0.043195,0.001000,0.001000,0.001000,0.001000,0.001000
1024.750000,0.043817,0.001000,0.001000,0.001000,0.001000,0.001000
1024.769231,0.044410,0.001000,0.001000,0.001000,0.001000,0.001000
1024.788462,0.044976,0.001000,0.001000,0.001000,0.001000,0.001000
1024.807692,0.045513,0.001000,0.001000,0.001000,0.001000,0.001000
1024.826923,0.046021,0.001000,0.001000,0.001000,0.001000,0.001000
1024.846154,0.046500,0.001000,0.001000,0.001000,0.001000,0.001000
1024.865385,0.046949,0.001000,0.001000,0.001000,0.001000,0.001000
1024.884615,0.047368,0.001000,0.001000,0.001000,0.001000,0.001000
1024.903846,0.047757,0.001000,0.001000,0.001000,0.001000,0.001000
1024.923077,0.048115,0.001000,0.001000,0.001000,0.001000,0.001000
1024.942308,0.048443,0.001000,0.001000,0.001000,0.001000,0.001000
1024.961538,0.048740,0.001000,0.001000,0.001000,0.001000,0.001000
1024.980769,0.049006,0.001000,0.001000,0.001000,0.001000,0.001000
1025.000000,0.049241,0.001000,0.001000,0.001000,0.001000,0.001000
1025.019231,0.049444,0.001000,0.001000,0.001000,0.001000,0.001000
1025.038462,0.049616,0.001000,0.001000,0.001000,0.001000,0.001000
1025.057692,0.049756,0.001000,0.001000,0.001000,0.001000,0.001000
1025.076923,0.049865,0.001000,0.001000,0.001000,0.001000,0.001000
1025.096154,0.049942,0.001000,0.001000,0.001000,0.001000,0.001000
1025.115385,0.049987,0.001000,0.001000,0.001000,0.001000,0.001000
1025.134615,0.050000,0.001000,0.001000,0.001000,0.001000,0.001000
1025.153846,0.049981,0.001000,0.001000,0.001000,0.001000,0.001000
1025.173077,0.049931,0.001000,0.001000,0.001000,0.001000,0.001000
1025.192308,0.049848,0.001000,0.001000,0.001000,0.001000,0.001000
1025.211538,0.049734,0.001000,0.001000,0.001000,0.001000,0.001000
1025.230769,0.049588,0.001000,0.001000,0.001000,0.001000,0.001000
1025.250000,0.049411,0.001000,0.001000,0.001000,0.001000,0.001000
1025.269231,0.049202,0.001000,0.001000,0.001000,0.001000,0.001000
1025.288462,0.048962,0.001000,0.001000,0.001000,0.001000,0.001000
1025.307692,0.048691,0.001000,0.001000,0.001000,0.001000,0.001000
1025.326923,0.048388,0.001000,0.001000,0.001000,0.001000,0.001000
1025.346154,0.048055,0.001000,0.001000,0.001000,0.001000,0.001000
1025.365385,0.047691,0.001000,0.001000,0.001000,0.001000,0.001000
1025.384615,0.047297,0.001000,0.001000,0.001000,0.001000,0.001000
1025.403846,0.046873,0.001000,0.001000,0.001000,0.001000,0.001000
1025.423077,0.046418,0.001000,0.001000,0.001000,0.001000,0.001000
1025.442308,0.045935,0.001000,0.001000,0.001000,0.001000,0.001000
1025.461538,0.045421,0.001000,0.001000,0.001000,0.001000,0.001000
1025.480769,0.044880,0.001000,0.001000,0.001000,0.001000,0.001000
1025.500000,0.044309,0.001000,0.001000,0.001000,0.001000,0.001000
1025.519231,0.043710,0.001000,0.001000,0.001000,0.001000,0.001000
1025.538462,0.043083,0.001000,0.001000,0.001000,0.001000,0.001000
1025.557692,0.042429,0.001000,0.001000,0.001000,0.001000,0.001000
1025.576923,0.041748,0.001000,0.001000,0.001000,0.001000,0.001000
1025.596154,0.041041,0.001000,0.001000,0.001000,0.001000,0.001000
1025.615385,0.040307,0.001000,0.001000,0.001000,0.001000,0.001000
1025.634615,0.039547,0.001000,0.001000,0.001000,0.001000,0.001000
1025.653846,0.038762,0.001000,0.001000,0.001000,0.001000,0.001000
1025.673077,0.037953,0.001000,0.001000,0.001000,0.001000,0.001000
1025.692308,0.037119,0.001000,0.001000,0.001000,0.001000,0.001000
1025.711538,0.036262,0.001000,0.001000,0.001000,0.001000,0.001000
1025.730769,0.035382,0.001000,0.001000,0.001000,0.001000,0.001000
1025.750000,0.034479,0.001000,0.001000,0.001000,0.001000,0.001000
1025.769231,0.033554,0.001000,0.001000,0.001000,0.001000,0.001000
1025.788462,0.032608,0.001000,0.001000,0.001000,0.001000,0.001000
1025.807692,0.031641,0.001000,0.001000,0.001000,0.001000,0.001000
1025.826923,0.030654,0.001000,0.001000,0.001000,0.001000,0.001000
1025.846154,0.029647,0.001000,0.001000,0.001000,0.001000,0.001000
1025.865385,0.028622,0.001000,0.001000,0.001000,0.001000,0.001000
1025.884615,0.027578,0.001000,0.001000,0.001000,0.001000,0.001000
1025.903846,0.026516,0.001000,0.001000,0.001000,0.001000,0.001000
1025.923077,0.025438,0.001000,0.001000,0.001000,0.001000,0.001000
1025.942308,0.024344,0.001000,0.001000,0.001000,0.001000,0.001000
1025.961538,0.023234,0.001000,0.001000,0.001000,0.001000,0.001000
1025.980769,0.022109,0.001000,0.001000,0.001000,0.001000,0.001000
1026.000000,0.020970,0.001000,0.001000,0.001000,0.001000,0.001000
1026.019231,0.019818,0.001000,0.001000,0.001000,0.001000,0.001000
1026.038462,0.018653,0.001000,0.001000,0.001000,0.001000,0.001000
1026.057692,0.017476,0.001000,0.001000,0.001000,0.001000,0.001000
1026.076923,0.016289,0.001000,0.001000,0.001000,0.001000,0.001000
1026.096154,0.015090,0.001000,0.001000,0.001000,0.001000,0.001000
1026.115385,0.013882,0.001000,0.001000,0.001000,0.001000,0.001000
1026.134615,0.012666,0.001000,0.001000,0.001000,0.001000,0.001000
1026.153846,0.011441,0.001000,0.001000,0.001000,0.001000,0.001000
1026.173077,0.010209,0.001000,0.001000,0.001000,0.001000,0.001000
1026.192308,0.008970,0.001000,0.001000,0.001000,0.001000,0.001000
1026.211538,0.007726,0.001000,0.001000,0.001000,0.001000,0.001000
1026.230769,0.006477,0.001000,0.001000,0.001000,0.001000,0.001000
1026.250000,0.005224,0.001000,0.001000,0.001000,0.001000,0.001000
1026.269231,0.003967,0.001000,0.001000,0.001000,0.001000,0.001000
1026.288462,0.002708,0.001000,0.001000,0.001000,0.001000,0.001000
1026.307692,0.001447,0.001000,0.001000,0.001000,0.001000,0.001000
1026.326923,0.000185,0.001000,0.001000,0.001000,0.001000,0.001000
1026.346154,-0.001077,0.001000,0.001000,0.001000,0.001000,0.001000
1026.365385,-0.002338,0.001000,0.001000,0.001000,0.001000,0.001000
1026.384615,-0.003598,0.001000,0.001000,0.001000,0.001000,0.001000
1026.403846,-0.004855,0.001000,0.001000,0.001000,0.001000,0.001000
1026.423077,-0.006110,0.001000,0.001000,0.001000,0.001000,0.001000
1026.442308,-0.007360,0.001000,0.001000,0.001000,0.001000,0.001000
1026.461538,-0.008606,0.001000,0.001000,0.001000,0.001000,0.001000
1026.480769,-0.009846,0.001000,0.001000,0.001000,0.001000,0.001000
1026.500000,-0.011080,0.001000,0.001000,0.001000,0.001000,0.001000
1026.519231,-0.012307,0.001000,0.001000,0.001000,0.001000,0.001000
1026.538462,-0.013526,0.001000,0.001000,0.001000,0.001000,0.001000
1026.557692,-0.014737,0.001000,0.001000,0.001000,0.001000,0.001000
1026.576923,-0.015938,0.001000,0.001000,0.001000,0.001000,0.001000
1026.596154,-0.017129,0.001000,0.001000,0.001000,0.001000,0.001000
1026.615385,-0.018309,0.001000,0.001000,0.001000,0.001000,0.001000
1026.634615,-0.019477,0.001000,0.001000,0.001000,0.001000,0.001000
1026.653846,-0.020633,0.001000,0.001000,0.001000,0.001000,0.001000
1026.673077,-0.021776,0.001000,0.001000,0.001000,0.001000,0.001000
1026.692308,-0.022905,0.001000,0.001000,0.001000,0.001000,0.001000
1026.711538,-0.024020,0.001000,0.001000,0.001000,0.001000,0.001000
1026.730769,-0.025119,0.001000,0.001000,0.001000,0.001000,0.001000
1026.750000,-0.026202,0.001000,0.001000,0.001000,0.001000,0.001000
1026.769231,-0.027268,0.001000,0.001000,0.001000,0.001000,0.001000
1026.788462,-0.028317,0.001000,0.001000,0.001000,0.001000,0.001000
1026.807692,-0.029348,0.001000,0.001000,0.001000,0.001000,0.001000
1026.826923,-0.030360,0.001000,0.001000,0.001000,0.001000,0.001000
1026.846154,-0.031353,0.001000,0.001000,0.001000,0.001000,0.001000
1026.865385,-0.032326,0.001000,0.001000,0.001000,0.001000,0.001000
1026.884615,-0.033279,0.001000,0.001000,0.001000,0.001000,0.001000
1026.903846,-0.034210,0.001000,0.001000,0.001000,0.001000,0.001000
1026.923077,-0.035119,0.001000,0.001000,0.001000,0.001000,0.001000
1026.942308,-0.036006,0.001000,0.001000,0.001000,0.001000,0.001000
1026.961538,-0.036870,0.001000,0.001000,0.001000,0.001000,0.001000
1026.980769,-0.037711,0.001000,0.001000,0.001000,0.001000,0.001000
1027.000000,-0.038527,0.001000,0.001000,0.001000,0.001000,0.001000
1027.019231,-0.039320,0.001000,0.001000,0.001000,0.001000,0.001000
1027.038462,-0.040086,0.001000,0.001000,0.001000,0.001000,0.001000
1027.057692,-0.040828,0.001000,0.001000,0.001000,0.001000,0.001000
1027.076923,-0.041543,0.001000,0.001000,0.001000,0.001000,0.001000
1027.096154,-0.042232,0.001000,0.001000,0.001000,0.001000,0.001000
1027.115385,-0.042894,0.001000,0.001000,0.001000,0.001000,0.001000
1027.134615,-0.043529,0.001000,0.001000,0.001000,0.001000,0.001000
1027.153846,-0.044136,0.001000,0.001000,0.001000,0.001000,0.001000
1027.173077,-0.044715,0.001000,0.001000,0.001000,0.001000,0.001000
1027.192308,-0.045265,0.001000,0.001000,0.001000,0.001000,0.001000
1027.211538,-0.045787,0.001000,0.001000,0.001000,0.001000,0.001000
1027.230769,-0.046279,0.001000,0.001000,0.001000,0.001000,0.001000
1027.250000,-0.046742,0.001000,0.001000,0.001000,0.001000,0.001000
1027.269231,-0.047175,0.001000,0.001000,0.001000,0.001000,0.001000
1027.288462,-0.047579,0.001000,0.001000,0.001000,0.001000,0.001000
1027.307692,-0.047951,0.001000,0.001000,0.001000,0.001000,0.001000
1027.326923,-0.048294,0.001000,0.001000,0.001000,0.001000,0.001000
1027.346154,-0.048605,0.001000,0.001000,0.001000,0.001000,0.001000
1027.365385,-0.048886,0.001000,0.001000,0.001000,0.001000,0.001000
1027.384615,-0.049135,0.001000,0.001000,0.001000,0.001000,0.001000
1027.403846,-0.049353,0.001000,0.001000,0.001000,0.001000,0.001000
1027.423077,-0.049540,0.001000,0.001000,0.001000,0.001000,0.001000
1027.442308,-0.049695,0.001000,0.001000,0.001000,0.001000,0.001000
1027.461538,-0.049818,0.001000,0.001000,0.001000,0.001000,0.001000
1027.480769,-0.049910,0.001000,0.001000,0.001000,0.001000,0.001000
1027.500000,-0.049970,0.001000,0.001000,0.001000,0.001000,0.001000
1027.519231,-0.049998,0.001000,0.001000,0.001000,0.001000,0.001000
1027.538462,-0.049994,0.001000,0.001000,0.001000,0.001000,0.001000
1027.557692,-0.049958,0.001000,0.001000,0.001000,0.001000,0.001000
1027.576923,-0.049891,0.001000,0.001000,0.001000,0.001000,0.001000
1027.596154,-0.049792,0.001000,0.001000,0.001000,0.001000,0.001000
1027.615385,-0.049661,0.001000,0.001000,0.001000,0.001000,0.001000
1027.634615,-0.049498,0.001000,0.001000,0.001000,0.001000,0.001000
1027.653846,-0.049304,0.001000,0.001000,0.001000,0.001000,0.001000
1027.673077,-0.049078,0.001000,0.001000,0.001000,0.001000,0.001000
1027.692308,-0.048821,0.001000,0.001000,0.001000,0.001000,0.001000
1027.711538,-0.048534,0.001000,0.001000,0.001000,0.001000,0.001000
1027.730769,-0.048215,0.001000,0.001000,0.001000,0.001000,0.001000
1027.750000,-0.047865,0.001000,0.001000,0.001000,0.001000,0.001000
1027.769231,-0.047485,0.001000,0.001000,0.001000,0.001000,0.001000
1027.788462,-0.047075,0.001000,0.001000,0.001000,0.001000,0.001000
1027.807692,-0.046635,0.001000,0.001000,0.001000,0.001000,0.001000
1027.826923,-0.046165,0.001000,0.001000,0.001000,0.001000,0.001000
1027.846154,-0.045665,0.001000,0.001000,0.001000,0.001000,0.001000
1027.865385,-0.045137,0.001000,0.001000,0.001000,0.001000,0.001000
1027.884615,-0.044579,0.001000,0.001000,0.001000,0.001000,0.001000
1027.903846,-0.043994,0.001000,0.001000,0.001000,0.001000,0.001000
1027.923077,-0.043380,0.001000,0.001000,0.001000,0.001000,0.001000
1027.942308,-0.042739,0.001000,0.001000,0.001000,0.001000,0.001000
1027.961538,-0.042070,0.001000,0.001000,0.001000,0.001000,0.001000
1027.980769,-0.041375,0.001000,0.001000,0.001000,0.001000,0.001000
1028.000000,-0.040653,0.001000,0.001000,0.001000,0.001000,0.001000
1028.019231,-0.039906,0.001000,0.001000,0.001000,0.001000,0.001000
1028.038462,-0.039133,0.001000,0.001000,0.001000,0.001000,0.001000
1028.057692,-0.038335,0.001000,0.001000,0.001000,0.001000,0.001000
1028.076923,-0.037512,0.001000,0.001000,0.001000,0.001000,0.001000
1028.096154,-0.036666,0.001000,0.001000,0.001000,0.001000,0.001000
1028.115385,-0.035797,0.001000,0.001000,0.001000,0.001000,0.001000
1028.134615,-0.034904,0.001000,0.001000,0.001000,0.001000,0.001000
1028.153846,-0.033990,0.001000,0.001000,0.001000,0.001000,0.001000
1028.173077,-0.033053,0.001000,0.001000,0.001000,0.001000,0.001000
1028.192308,-0.032096,0.001000,0.001000,0.001000,0.001000,0.001000
1028.211538,-0.031118,0.001000,0.001000,0.001000,0.001000,0.001000
1028.230769,-0.030121,0.001000,0.001000,0.001000,0.001000,0.001000
1028.250000,-0.029104,0.001000,0.001000,0.001000,0.001000,0.001000
1028.269231,-0.028068,0.001000,0.001000,0.001000,0.001000,0.001000
1028.288462,-0.027015,0.001000,0.001000,0.001000,0.001000,0.001000
1028.307692,-0.025945,0.001000,0.001000,0.001000,0.001000,0.001000
1028.326923,-0.024858,0.001000,0.001000,0.001000,0.001000,0.001000
1028.346154,-0.023755,0.001000,0.001000,0.001000,0.001000,0.001000
1028.365385,-0.022637,0.001000,0.001000,0.001000,0.001000,0.001000
1028.384615,-0.021505,0.001000,0.001000,0.001000,0.001000,0.001000
1028.403846,-0.020359,0.001000,0.001000,0.001000,0.001000,0.001000
1028.423077,-0.019200,0.001000,0.001000,0.001000,0.001000,0.001000
1028.442308,-0.018028,0.001000,0.001000,0.001000,0.001000,0.001000
1028.461538,-0.016846,0.001000,0.001000,0.001000,0.001000,0.001000
1028.480769,-0.015652,0.001000,0.001000,0.001000,0.001000,0.001000
1028.500000,-0.014449,0.001000,0.001000,0.001000,0.001000,0.001000
1028.519231,-0.013236,0.001000,0.001000,0.001000,0.001000,0.001000
1028.538462,-0.012015,0.001000,0.001000,0.001000,0.001000,0.001000
1028.557692,-0.010786,0.001000,0.001000,0.001000,0.001000,0.001000
1028.576923,-0.009551,0.001000,0.001000,0.001000,0.001000,0.001000
1028.596154,-0.008309,0.001000,0.001000,0.001000,0.001000,0.001000
1028.615385,-0.007062,0.001000,0.001000,0.001000,0.001000,0.001000
1028.634615,-0.005811,0.001000,0.001000,0.001000,0.001000,0.001000
1028.653846,-0.004555,0.001000,0.001000,0.001000,0.001000,0.001000
1028.673077,-0.003297,0.001000,0.001000,0.001000,0.001000,0.001000
1028.692308,-0.002037,0.001000,0.001000,0.001000,0.001000,0.001000
1028.711538,-0.000776,0.001000,0.001000,0.001000,0.001000,0.001000
1028.730769,0.000486,0.001000,0.001000,0.001000,0.001000,0.001000
1028.750000,0.001748,0.001000,0.001000,0.001000,0.001000,0.001000
1028.769231,0.003009,0.001000,0.001000,0.001000,0.001000,0.001000
1028.788462,0.004267,0.001000,0.001000,0.001000,0.001000,0.001000
1028.807692,0.005523,0.001000,0.001000,0.001000,0.001000,0.001000
1028.826923,0.006775,0.001000,0.001000,0.001000,0.001000,0.001000
1028.846154,0.008024,0.001000,0.001000,0.001000,0.001000,0.001000
1028.865385,0.009267,0.001000,0.001000,0.001000,0.001000,0.001000
1028.884615,0.010504,0.001000,0.001000,0.001000,0.001000,0.001000
1028.903846,0.011734,0.001000,0.001000,0.001000,0.001000,0.001000
1028.923077,0.012957,0.001000,0.001000,0.001000,0.001000,0.001000
1028.942308,0.014172,0.001000,0.001000,0.001000,0.001000,0.001000
1028.961538,0.015377,0.001000,0.001000,0.001000,0.001000,0.001000
1028.980769,0.016573,0.001000,0.001000,0.001000,0.001000,0.001000
1029.000000,0.017758,0.001000,0.001000,0.001000,0.001000,0.001000
1029.019231,0.018932,0.001000,0.001000,0.001000,0.001000,0.001000
1029.038462,0.020094,0.001000,0.001000,0.001000,0.001000,0.001000
1029.057692,0.021243,0.001000,0.001000,0.001000,0.001000,0.001000
1029.076923,0.022379,0.001000,0.001000,0.001000,0.001000,0.001000
1029.096154,0.023500,0.001000,0.001000,0.001000,0.001000,0.001000
1029.115385,0.024606,0.001000,0.001000,0.001000,0.001000,0.001000
1029.134615,0.025697,0.001000,0.001000,0.001000,0.001000,0.001000
1029.153846,0.026771,0.001000,0.001000,0.001000,0.001000,0.001000
1029.173077,0.027828,0.001000,0.001000,0.001000,0.001000,0.001000
1029.192308,0.028868,0.001000,0.001000,0.001000,0.001000,0.001000
1029.211538,0.029889,0.001000,0.001000,0.001000,0.001000,0.001000
1029.230769,0.030891,0.001000,0.001000,0.001000,0.001000,0.001000
1029.250000,0.031874,0.001000,0.001000,0.001000,0.001000,0.001000
1029.269231,0.032836,0.001000,0.001000,0.001000,0.001000,0.001000
1029.288462,0.033777,0.001000,0.001000,0.001000,0.001000,0.001000
1029.307692,0.034696,0.001000,0.001000,0.001000,0.001000,0.001000
1029.326923,0.035594,0.001000,0.001000,0.001000,0.001000,0.001000
1029.346154,0.036469,0.001000,0.001000,0.001000,0.001000,0.001000
1029.365385,0.037321,0.001000,0.001000,0.001000,0.001000,0.001000
1029.384615,0.038148,0.001000,0.001000,0.001000,0.001000,0.001000
1029.403846,0.038952,0.001000,0.001000,0.001000,0.001000,0.001000
1029.423077,0.039731,0.001000,0.001000,0.001000,0.001000,0.001000
1029.442308,0.040484,0.001000,0.001000,0.001000,0.001000,0.001000
1029.461538,0.041212,0.001000,0.001000,0.001000,0.001000,0.001000
1029.480769,0.041913,0.001000,0.001000,0.001000,0.001000,0.001000
1029.500000,0.042588,0.001000,0.001000,0.001000,0.001000,0.001000
1029.519231,0.043236,0.001000,0.001000,0.001000,0.001000,0.001000
1029.538462,0.043856,0.001000,0.001000,0.001000,0.001000,0.001000
1029.557692,0.044448,0.001000,0.001000,0.001000,0.001000,0.001000
1029.576923,0.045011,0.001000,0.001000,0.001000,0.001000,0.001000
1029.596154,0.045547,0.001000,0.001000,0.001000,0.001000,0.001000
1029.615385,0.046053,0.001000,0.001000,0.001000,0.001000,0.001000
1029.634615,0.046529,0.001000,0.001000,0.001000,0.001000,0.001000
1029.653846,0.046977,0.001000,0.001000,0.001000,0.001000,0.001000
1029.673077,0.047394,0.001000,0.001000,0.001000,0.001000,0.001000
1029.692308,0.047781,0.001000,0.001000,0.001000,0.001000,0.001000
1029.711538,0.048137,0.001000,0.001000,0.001000,0.001000,0.001000
1029.730769,0.048463,0.001000,0.001000,0.001000,0.001000,0.001000
1029.750000,0.048758,0.001000,0.001000,0.001000,0.001000,0.001000
1029.769231,0.049022,0.001000,0.001000,0.001000,0.001000,0.001000
1029.788462,0.049255,0.001000,0.001000,0.001000,0.001000,0.001000
1029.807692,0.049456,0.001000,0.001000,0.001000,0.001000,0.001000
1029.826923,0.049626,0.001000,0.001000,0.001000,0.001000,0.001000
1029.846154,0.049764,0.001000,0.001000,0.001000,0.001000,0.001000
1029.865385,0.049871,0.001000,0.001000,0.001000,0.001000,0.001000
1029.884615,0.049946,0.001000,0.001000,0.001000,0.001000,0.001000
1029.903846,0.049989,0.001000,0.001000,0.001000,0.001000,0.001000
1029.923077,0.050000,0.001000,0.001000,0.001000,0.001000,0.001000
1029.942308,0.049979,0.001000,0.001000,0.001000,0.001000,0.001000
1029.961538,0.049926,0.001000,0.001000,0.001000,0.001000,0.001000
1029.980769,0.049842,0.001000,0.001000,0.001000,0.001000,0.001000
1030.000000,0.000000,0.001000,0.001000,0.001000,0.001000,0.001000
1030.019231,0.001268,0.001000,0.001000,0.001000,0.001000,0.001000
1030.038462,0.002534,0.001000,0.001000,0.001000,0.001000,0.001000
1030.057692,0.003799,0.001000,0.001000,0.001000,0.001000,0.001000
1030.076923,0.005062,0.001000,0.001000,0.001000,0.001000,0.001000
1030.096154,0.006321,0.001000,0.001000,0.001000,0.001000,0.001000
1030.115385,0.007577,0.001000,0.001000,0.001000,0.001000,0.001000
1030.134615,0.008827,0.001000,0.001000,0.001000,0.001000,0.001000
1030.153846,0.010072,0.001000,0.001000,0.001000,0.001000,0.001000
1030.173077,0.011310,0.001000,0.001000,0.001000,0.001000,0.001000
1030.192308,0.012541,0.001000,0.001000,0.001000,0.001000,0.001000
1030.211538,0.013764,0.001000,0.001000,0.001000,0.001000,0.001000
1030.230769,0.014978,0.001000,0.001000,0.001000,0.001000,0.001000
1030.250000,0.016183,0.001000,0.001000,0.001000,0.001000,0.001000
1030.269231,0.017377,0.001000,0.001000,0.001000,0.001000,0.001000
1030.288462,0.018560,0.001000,0.001000,0.001000,0.001000,0.001000
1030.307692,0.019731,0.001000,0.001000,0.001000,0.001000,0.001000
1030.326923,0.020889,0.001000,0.001000,0.001000,0.001000,0.001000
1030.346154,0.022034,0.001000,0.001000,0.001000,0.001000,0.001000
1030.365385,0.023165,0.001000,0.001000,0.001000,0.001000,0.001000
1030.384615,0.024280,0.001000,0.001000,0.001000,0.001000,0.001000
1030.403846,0.025381,0.001000,0.001000,0.001000,0.001000,0.001000
1030.423077,0.026465,0.001000,0.001000,0.001000,0.001000,0.001000
1030.442308,0.027531,0.001000,0.001000,0.001000,0.001000,0.001000
1030.461538,0.028581,0.001000,0.001000,0.001000,0.001000,0.001000
1030.480769,0.029612,0.001000,0.001000,0.001000,0.001000,0.001000
1030.500000,0.030623,0.001000,0.001000,0.001000,0.001000,0.001000
1030.519231,0.031615,0.001000,0.001000,0.001000,0.001000,0.001000
1030.538462,0.032587,0.001000,0.001000,0.001000,0.001000,0.001000
1030.557692,0.033538,0.001000,0.001000,0.001000,0.001000,0.001000
1030.576923,0.034467,0.001000,0.001000,0.001000,0.001000,0.001000
1030.596154,0.035375,0.001000,0.001000,0.001000,0.001000,0.001000
1030.615385,0.036259,0.001000,0.001000,0.001000,0.001000,0.001000
1030.634615,0.037120,0.001000,0.001000,0.001000,0.001000,0.001000
1030.653846,0.037957,0.001000,0.001000,0.001000,0.001000,0.001000
1030.673077,0.038770,0.001000,0.001000,0.001000,0.001000,0.001000
1030.692308,0.039558,0.001000,0.001000,0.001000,0.001000,0.001000
1030.711538,0.040321,0.001000,0.001000,0.001000,0.001000,0.001000
1030.730769,0.041057,0.001000,0.001000,0.001000,0.001000,0.001000
1030.750000,0.041767,0.001000,0.001000,0.001000,0.001000,0.001000
1030.769231,0.042451,0.001000,0.001000,0.001000,0.001000,0.001000
1030.788462,0.043107,0.001000,0.001000,0.001000,0.001000,0.001000
1030.807692,0.043735,0.001000,0.001000,0.001000,0.001000,0.001000
1030.826923,0.044335,0.001000,0.001000,0.001000,0.001000,0.001000
1030.846154,0.044907,0.001000,0.001000,0.001000,0.001000,0.001000
1030.865385,0.045450,0.001000,0.001000,0.001000,0.001000,0.001000
1030.884615,0.045964,0.001000,0.001000,0.001000,0.001000,0.001000
1030.903846,0.046448,0.001000,0.001000,0.001000,0.001000,0.001000
1030.923077,0.046902,0.001000,0.001000,0.001000,0.001000,0.001000
1030.942308,0.047326,0.001000,0.001000,0.001000,0.001000,0.001000
1030.961538,0.047720,0.001000,0.001000,0.001000,0.001000,0.001000
1030.980769,0.048083,0.001000,0.001000,0.001000,0.001000,0.001000
1031.000000,0.048415,0.001000,0.001000,0.001000,0.001000,0.001000
1031.019231,0.048716,0.001000,0.001000,0.001000,0.001000,0.001000
1031.038462,0.048986,0.001000,0.001000,0.001000,0.001000,0.001000
1031.057692,0.049224,0.001000,0.001000,0.001000,0.001000,0.001000
1031.076923,0.049431,0.001000,0.001000,0.001000,0.001000,0.001000
1031.096154,0.049606,0.001000,0.001000,0.001000,0.001000,0.001000
1031.115385,0.049749,0.001000,0.001000,0.001000,0.001000,0.001000
1031.134615,0.049860,0.001000,0.001000,0.001000,0.001000,0.001000
1031.153846,0.049938,0.001000,0.001000,0.001000,0.001000,0.001000
1031.173077,0.049985,0.001000,0.001000,0.001000,0.001000,0.001000
1031.192308,0.050000,0.001000,0.001000,0.001000,0.001000,0.001000
1031.211538,0.049983,0.001000,0.001000,0.001000,0.001000,0.001000
1031.230769,0.049933,0.001000,0.001000,0.001000,0.001000,0.001000
1031.250000,0.049851,0.001000,0.001000,0.001000,0.001000,0.001000
1031.269231,0.049738,0.001000,0.001000,0.001000,0.001000,0.001000
1031.288462,0.049592,0.001000,0.001000,0.001000,0.001000,0.001000
1031.307692,0.049414,0.001000,0.001000,0.001000,0.001000,0.001000
1031.326923,0.049205,0.001000,0.001000,0.001000,0.001000,0.001000
1031.346154,0.048964,0.001000,0.001000,0.001000,0.001000,0.001000
1031.365385,0.048692,0.001000,0.001000,0.001000,0.001000,0.001000
1031.384615,0.048388,0.001000,0.001000,0.001000,0.001000,0.001000
1031.403846,0.048053,0.001000,0.001000,0.001000,0.001000,0.001000
1031.423077,0.047688,0.001000,0.001000,0.001000,0.001000,0.001000
1031.442308,0.047291,0.001000,0.001000,0.001000,0.001000,0.001000
1031.461538,0.046864,0.001000,0.001000,0.001000,0.001000,0.001000
1031.480769,0.046408,0.001000,0.001000,0.001000,0.001000,0.001000
1031.500000,0.045921,0.001000,0.001000,0.001000,0.001000,0.001000
1031.519231,0.045405,0.001000,0.001000,0.001000,0.001000,0.001000
1031.538462,0.044859,0.001000,0.001000,0.001000,0.001000,0.001000
1031.557692,0.044285,0.001000,0.001000,0.001000,0.001000,0.001000
1031.576923,0.043682,0.001000,0.001000,0.001000,0.001000,0.001000
1031.596154,0.043052,0.001000,0.001000,0.001000,0.001000,0.001000
1031.615385,0.042393,0.001000,0.001000,0.001000,0.001000,0.001000
1031.634615,0.041708,0.001000,0.001000,0.001000,0.001000,0.001000
1031.653846,0.040995,0.001000,0.001000,0.001000,0.001000,0.001000
1031.673077,0.040256,0.001000,0.001000,0.001000,0.001000,0.001000
1031.692308,0.039492,0.001000,0.001000,0.001000,0.001000,0.001000
1031.711538,0.038701,0.001000,0.001000,0.001000,0.001000,0.001000
1031.730769,0.037886,0.001000,0.001000,0.001000,0.001000,0.001000
1031.750000,0.037047,0.001000,0.001000,0.001000,0.001000,0.001000
1031.769231,0.036184,0.001000,0.001000,0.001000,0.001000,0.001000
1031.788462,0.035298,0.001000,0.001000,0.001000,0.001000,0.001000
1031.807692,0.034389,0.001000,0.001000,0.001000,0.001000,0.001000
1031.826923,0.033457,0.001000,0.001000,0.001000,0.001000,0.001000
1031.846154,0.032505,0.001000,0.001000,0.001000,0.001000,0.001000
1031.865385,0.031531,0.001000,0.001000,0.001000,0.001000,0.001000
1031.884615,0.030537,0.001000,0.001000,0.001000,0.001000,0.001000
1031.903846,0.029524,0.001000,0.001000,0.001000,0.001000,0.001000
1031.923077,0.028491,0.001000,0.001000,0.001000,0.001000,0.001000
1031.942308,0.027441,0.001000,0.001000,0.001000,0.001000,0.001000
1031.961538,0.026372,0.001000,0.001000,0.001000,0.001000,0.001000
1031.980769,0.025287,0.001000,0.001000,0.001000,0.001000,0.001000
1032.000000,0.024185,0.001000,0.001000,0.001000,0.001000,0.001000
1032.019231,0.023068,0.001000,0.001000,0.001000,0.001000,0.001000
1032.038462,0.021936,0.001000,0.001000,0.001000,0.001000,0.001000
1032.057692,0.020790,0.001000,0.001000,0.001000,0.001000,0.001000
1032.076923,0.019631,0.001000,0.001000,0.001000,0.001000,0.001000
1032.096154,0.018459,0.001000,0.001000,0.001000,0.001000,0.001000
1032.115385,0.017275,0.001000,0.001000,0.001000,0.001000,0.001000
1032.134615,0.016080,0.001000,0.001000,0.001000,0.001000,0.001000
1032.153846,0.014874,0.001000,0.001000,0.001000,0.001000,0.001000
1032.173077,0.013660,0.001000,0.001000,0.001000,0.001000,0.001000
1032.192308,0.012436,0.001000,0.001000,0.001000,0.001000,0.001000
1032.211538,0.011204,0.001000,0.001000,0.001000,0.001000,0.001000
1032.230769,0.009965,0.001000,0.001000,0.001000,0.001000,0.001000
1032.250000,0.008720,0.001000,0.001000,0.001000,0.001000,0.001000
1032.269231,0.007469,0.001000,0.001000,0.001000,0.001000,0.001000
1032.288462,0.006213,0.001000,0.001000,0.001000,0.001000,0.001000
1032.307692,0.004954,0.001000,0.001000,0.001000,0.001000,0.001000
1032.326923,0.003691,0.001000,0.001000,0.001000,0.001000,0.001000
1032.346154,0.002426,0.001000,0.001000,0.001000,0.001000,0.001000
1032.365385,0.001159,0.001000,0.001000,0.001000,0.001000,0.001000
1032.384615,-0.000109,0.001000,0.001000,0.001000,0.001000,0.001000
1032.403846,-0.001376,0.001000,0.001000,0.001000,0.001000,0.001000
1032.423077,-0.002643,0.001000,0.001000,0.001000,0.001000,0.001000
1032.442308,-0.003908,0.001000,0.001000,0.001000,0.001000,0.001000
1032.461538,-0.005170,0.001000,0.001000,0.001000,0.001000,0.001000
1032.480769,-0.006429,0.001000,0.001000,0.001000,0.001000,0.001000
1032.500000,-0.007684,0.001000,0.001000,0.001000,0.001000,0.001000
1032.519231,-0.008934,0.001000,0.001000,0.001000,0.001000,0.001000
1032.538462,-0.010178,0.001000,0.001000,0.001000,0.001000,0.001000
1032.557692,-0.011416,0.001000,0.001000,0.001000,0.001000,0.001000
1032.576923,-0.012646,0.001000,0.001000,0.001000,0.001000,0.001000
1032.596154,-0.013869,0.001000,0.001000,0.001000,0.001000,0.001000
1032.615385,-0.015082,0.001000,0.001000,0.001000,0.001000,0.001000
1032.634615,-0.016285,0.001000,0.001000,0.001000,0.001000,0.001000
1032.653846,-0.017479,0.001000,0.001000,0.001000,0.001000,0.001000
1032.673077,-0.018661,0.001000,0.001000,0.001000,0.001000,0.001000
1032.692308,-0.019830,0.001000,0.001000,0.001000,0.001000,0.001000
1032.711538,-0.020988,0.001000,0.001000,0.001000,0.001000,0.001000
1032.730769,-0.022131,0.001000,0.001000,0.001000,0.001000,0.001000
1032.750000,-0.023261,0.001000,0.001000,0.001000,0.001000,0.001000
1032.769231,-0.024375,0.001000,0.001000,0.001000,0.001000,0.001000
1032.788462,-0.025474,0.001000,0.001000,0.001000,0.001000,0.001000
1032.807692,-0.026557,0.001000,0.001000,0.001000,0.001000,0.001000
1032.826923,-0.027622,0.001000,0.001000,0.001000,0.001000,0.001000
1032.846154,-0.028670,0.001000,0.001000,0.001000,0.001000,0.001000
1032.865385,-0.029699,0.001000,0.001000,0.001000,0.001000,0.001000
1032.884615,-0.030709,0.001000,0.001000,0.001000,0.001000,0.001000
1032.903846,-0.031700,0.001000,0.001000,0.001000,0.001000,0.001000
1032.923077,-0.032670,0.001000,0.001000,0.001000,0.001000,0.001000
1032.942308,-0.033619,0.001000,0.001000,0.001000,0.001000,0.001000
1032.961538,-0.034546,0.001000,0.001000,0.001000,0.001000,0.001000
1032.980769,-0.035451,0.001000,0.001000,0.001000,0.001000,0.001000
1033.000000,-0.036334,0.001000,0.001000,0.001000,0.001000,0.001000
1033.019231,-0.037193,0.001000,0.001000,0.001000,0.001000,0.001000
1033.038462,-0.038028,0.001000,0.001000,0.001000,0.001000,0.001000
1033.057692,-0.038839,0.001000,0.001000,0.001000,0.001000,0.001000
1033.076923,-0.039624,0.001000,0.001000,0.001000,0.001000,0.001000
1033.096154,-0.040385,0.001000,0.001000,0.001000,0.001000,0.001000
1033.115385,-0.041119,0.001000,0.001000,0.001000,0.001000,0.001000
1033.134615,-0.041827,0.001000,0.001000,0.001000,0.001000,0.001000
1033.153846,-0.042508,0.001000,0.001000,0.001000,0.001000,0.001000
1033.173077,-0.043162,0.001000,0.001000,0.001000,0.001000,0.001000
1033.192308,-0.043788,0.001000,0.001000,0.001000,0.001000,0.001000
1033.211538,-0.044386,0.001000,0.001000,0.001000,0.001000,0.001000
1033.230769,-0.044955,0.001000,0.001000,0.001000,0.001000,0.001000
1033.250000,-0.045495,0.001000,0.001000,0.001000,0.001000,0.001000
1033.269231,-0.046006,0.001000,0.001000,0.001000,0.001000,0.001000
1033.288462,-0.046488,0.001000,0.001000,0.001000,0.001000,0.001000
1033.307692,-0.046940,0.001000,0.001000,0.001000,0.001000,0.001000
1033.326923,-0.047361,0.001000,0.001000,0.001000,0.001000,0.001000
1033.346154,-0.047752,0.001000,0.001000,0.001000,0.001000,0.001000
1033.365385,-0.048113,0.001000,0.001000,0.001000,0.001000,0.001000
1033.384615,-0.048442,0.001000,0.001000,0.001000,0.001000,0.001000
1033.403846,-0.048741,0.001000,0.001000,0.001000,0.001000,0.001000
1033.423077,-0.049008,0.001000,0.001000,0.001000,0.001000,0.001000
1033.442308,-0.049243,0.001000,0.001000,0.001000,0.001000,0.001000
1033.461538,-0.049447,0.001000,0.001000,0.001000,0.001000,0.001000
1033.480769,-0.049619,0.001000,0.001000,0.001000,0.001000,0.001000
1033.500000,-0.049759,0.001000,0.001000,0.001000,0.001000,0.001000
1033.519231,-0.049868,0.001000,0.001000,0.001000,0.001000,0.001000
1033.538462,-0.049944,0.001000,0.001000,0.001000,0.001000,0.001000
1033.557692,-0.049988,0.001000,0.001000,0.001000,0.001000,0.001000
1033.576923,-0.050000,0.001000,0.001000,0.001000,0.001000,0.001000
1033.596154,-0.049980,0.001000,0.001000,0.001000,0.001000,0.001000
1033.615385,-0.049927,0.001000,0.001000,0.001000,0.001000,0.001000
1033.634615,-0.049843,0.001000,0.001000,0.001000,0.001000,0.001000
1033.653846,-0.049726,0.001000,0.001000,0.001000,0.001000,0.001000
1033.673077,-0.049578,0.001000,0.001000,0.001000,0.001000,0.001000
1033.692308,-0.049398,0.001000,0.001000,0.001000,0.001000,0.001000
1033.711538,-0.049186,0.001000,0.001000,0.001000,0.001000,0.001000
1033.730769,-0.048942,0.001000,0.001000,0.001000,0.001000,0.001000
1033.750000,-0.048667,0.001000,0.001000,0.001000,0.001000,0.001000
1033.769231,-0.048361,0.001000,0.001000,0.001000,0.001000,0.001000
1033.788462,-0.048023,0.001000,0.001000,0.001000,0.001000,0.001000
1033.807692,-0.047655,0.001000,0.001000,0.001000,0.001000,0.001000
1033.826923,-0.047256,0.001000,0.001000,0.001000,0.001000,0.001000
1033.846154,-0.046826,0.001000,0.001000,0.001000,0.001000,0.001000
1033.865385,-0.046367,0.001000,0.001000,0.001000,0.001000,0.001000
1033.884615,-0.045878,0.001000,0.001000,0.001000,0.001000,0.001000
1033.903846,-0.045359,0.001000,0.001000,0.001000,0.001000,0.001000
1033.923077,-0.044811,0.001000,0.001000,0.001000,0.001000,0.001000
1033.942308,-0.044235,0.001000,0.001000,0.001000,0.001000,0.001000
1033.961538,-0.043629,0.001000,0.001000,0.001000,0.001000,0.001000
1033.980769,-0.042996,0.001000,0.001000,0.001000,0.001000,0.001000
1034.000000,-0.042336,0.001000,0.001000,0.001000,0.001000,0.001000
1034.019231,-0.041648,0.001000,0.001000,0.001000,0.001000,0.001000
1034.038462,-0.040933,0.001000,0.001000,0.001000,0.001000,0.001000
1034.057692,-0.040192,0.001000,0.001000,0.001000,0.001000,0.001000
1034.076923,-0.039425,0.001000,0.001000,0.001000,0.001000,0.001000
1034.096154,-0.038633,0.001000,0.001000,0.001000,0.001000,0.001000
1034.115385,-0.037815,0.001000,0.001000,0.001000,0.001000,0.001000
1034.134615,-0.036974,0.001000,0.001000,0.001000,0.001000,0.001000
1034.153846,-0.036109,0.001000,0.001000,0.001000,0.001000,0.001000
1034.173077,-0.035221,0.001000,0.001000,0.001000,0.001000,0.001000
1034.192308,-0.034310,0.001000,0.001000,0.001000,0.001000,0.001000
1034.211538,-0.033377,0.001000,0.001000,0.001000,0.001000,0.001000
1034.230769,-0.032422,0.001000,0.001000,0.001000,0.001000,0.001000
1034.250000,-0.031447,0.001000,0.001000,0.001000,0.001000,0.001000
1034.269231,-0.030451,0.001000,0.001000,0.001000,0.001000,0.001000
1034.288462,-0.029436,0.001000,0.001000,0.001000,0.001000,0.001000
1034.307692,-0.028402,0.001000,0.001000,0.001000,0.001000,0.001000
1034.326923,-0.027350,0.001000,0.001000,0.001000,0.001000,0.001000
1034.346154,-0.026280,0.001000,0.001000,0.001000,0.001000,0.001000
1034.365385,-0.025193,0.001000,0.001000,0.001000,0.001000,0.001000
1034.384615,-0.024090,0.001000,0.001000,0.001000,0.001000,0.001000
1034.403846,-0.022972,0.001000,0.001000,0.001000,0.001000,0.001000
1034.423077,-0.021839,0.001000,0.001000,0.001000,0.001000,0.001000
1034.442308,-0.020691,0.001000,0.001000,0.001000,0.001000,0.001000
1034.461538,-0.019531,0.001000,0.001000,0.001000,0.001000,0.001000
1034.480769,-0.018358,0.001000,0.001000,0.001000,0.001000,0.001000
1034.500000,-0.017173,0.001000,0.001000,0.001000,0.001000,0.001000
1034.519231,-0.015977,0.001000,0.001000,0.001000,0.001000,0.001000
1034.538462,-0.014771,0.001000,0.001000,0.001000,0.001000,0.001000
1034.557692,-0.013555,0.001000,0.001000,0.001000,0.001000,0.001000
1034.576923,-0.012331,0.001000,0.001000,0.001000,0.001000,0.001000
1034.596154,-0.011098,0.001000,0.001000,0.001000,0.001000,0.001000
1034.615385,-0.009859,0.001000,0.001000,0.001000,0.001000,0.001000
1034.634615,-0.008613,0.001000,0.001000,0.001000,0.001000,0.001000
1034.653846,-0.007362,0.001000,0.001000,0.001000,0.001000,0.001000
1034.673077,-0.006106,0.001000,0.001000,0.001000,0.001000,0.001000
