timestamp,ax,ay,az,gx,gy,gz
1000.000000,0.000000,0.001000,0.001000,0.001000,0.001000,0.001000
1000.019231,0.001468,0.001000,0.001000,0.001000,0.001000,0.001000
1000.038462,0.002936,0.001000,0.001000,0.001000,0.001000,0.001000
1000.057692,0.004400,0.001000,0.001000,0.001000,0.001000,0.001000
1000.076923,0.005861,0.001000,0.001000,0.001000,0.001000,0.001000
1000.096154,0.007317,0.001000,0.001000,0.001000,0.001000,0.001000
1000.115385,0.008766,0.001000,0.001000,0.001000,0.001000,0.001000
1000.134615,0.010208,0.001000,0.001000,0.001000,0.001000,0.001000
1000.153846,0.011642,0.001000,0.001000,0.001000,0.001000,0.001000
1000.173077,0.013065,0.001000,0.001000,0.001000,0.001000,0.001000
1000.192308,0.014476,0.001000,0.001000,0.001000,0.001000,0.001000
1000.211538,0.015876,0.001000,0.001000,0.001000,0.001000,0.001000
1000.230769,0.017261,0.001000,0.001000,0.001000,0.001000,0.001000
1000.250000,0.018632,0.001000,0.001000,0.001000,0.001000,0.001000
1000.269231,0.019987,0.001000,0.001000,0.001000,0.001000,0.001000
1000.288462,0.021324,0.001000,0.001000,0.001000,0.001000,0.001000
1000.307692,0.022643,0.001000,0.001000,0.001000,0.001000,0.001000
1000.326923,0.023943,0.001000,0.001000,0.001000,0.001000,0.001000
1000.346154,0.025221,0.001000,0.001000,0.001000,0.001000,0.001000
1000.365385,0.026479,0.001000,0.001000,0.001000,0.001000,0.001000
1000.384615,0.027713,0.001000,0.001000,0.001000,0.001000,0.001000
1000.403846,0.028923,0.001000,0.001000,0.001000,0.001000,0.001000
1000.423077,0.030108,0.001000,0.001000,0.001000,0.001000,0.001000
1000.442308,0.031268,0.001000,0.001000,0.001000,0.001000,0.001000
1000.461538,0.032400,0.001000,0.001000,0.001000,0.001000,0.001000
1000.480769,0.033505,0.001000,0.001000,0.001000,0.001000,0.001000
1000.500000,0.034580,0.001000,0.001000,0.001000,0.001000,0.001000
1000.519231,0.035626,0.001000,0.001000,0.001000,0.001000,0.001000
1000.538462,0.036641,0.001000,0.001000,0.001000,0.001000,0.001000
1000.557692,0.037624,0.001000,0.001000,0.001000,0.001000,0.001000
1000.576923,0.038575,0.001000,0.001000,0.001000,0.001000,0.001000
1000.596154,0.039493,0.001000,0.001000,0.001000,0.001000,0.001000
1000.615385,0.040376,0.001000,0.001000,0.001000,0.001000,0.001000
1000.634615,0.041225,0.001000,0.001000,0.001000,0.001000,0.001000
1000.653846,0.042038,0.001000,0.001000,0.001000,0.001000,0.001000
1000.673077,0.042815,0.001000,0.001000,0.001000,0.001000,0.001000
1000.692308,0.043555,0.001000,0.001000,0.001000,0.001000,0.001000
1000.711538,0.044258,0.001000,0.001000,0.001000,0.001000,0.001000
1000.730769,0.044922,0.001000,0.001000,0.001000,0.001000,0.001000
1000.750000,0.045547,0.001000,0.001000,0.001000,0.001000,0.001000
1000.769231,0.046133,0.001000,0.001000,0.001000,0.001000,0.001000
1000.788462,0.046680,0.001000,0.001000,0.001000,0.001000,0.001000
1000.807692,0.047186,0.001000,0.001000,0.001000,0.001000,0.001000
1000.826923,0.047651,0.001000,0.001000,0.001000,0.001000,0.001000
1000.846154,0.048075,0.001000,0.001000,0.001000,0.001000,0.001000
1000.865385,0.048458,0.001000,0.001000,0.001000,0.001000,0.001000
1000.884615,0.048799,0.001000,0.001000,0.001000,0.001000,0.001000
1000.903846,0.049098,0.001000,0.001000,0.001000,0.001000,0.001000
1000.923077,0.049354,0.001000,0.001000,0.001000,0.001000,0.001000
1000.942308,0.049568,0.001000,0.001000,0.001000,0.001000,0.001000
1000.961538,0.049739,0.001000,0.001000,0.001000,0.001000,0.001000
1000.980769,0.049868,0.001000,0.001000,0.001000,0.001000,0.001000
1001.000000,0.049953,0.001000,0.001000,0.001000,0.001000,0.001000
1001.019231,0.049995,0.001000,0.001000,0.001000,0.001000,0.001000
1001.038462,0.049994,0.001000,0.001000,0.001000,0.001000,0.001000
1001.057692,0.049950,0.001000,0.001000,0.001000,0.001000,0.001000
1001.076923,0.049863,0.001000,0.001000,0.001000,0.001000,0.001000
1001.096154,0.049732,0.001000,0.001000,0.001000,0.001000,0.001000
1001.115385,0.049559,0.001000,0.001000,0.001000,0.001000,0.001000
1001.134615,0.049343,0.001000,0.001000,0.001000,0.001000,0.001000
1001.153846,0.049085,0.001000,0.001000,0.001000,0.001000,0.001000
1001.173077,0.048784,0.001000,0.001000,0.001000,0.001000,0.001000
1001.192308,0.048441,0.001000,0.001000,0.001000,0.001000,0.001000
1001.211538,0.048057,0.001000,0.001000,0.001000,0.001000,0.001000
1001.230769,0.047630,0.001000,0.001000,0.001000,0.001000,0.001000
1001.250000,0.047163,0.001000,0.001000,0.001000,0.001000,0.001000
1001.269231,0.046655,0.001000,0.001000,0.001000,0.001000,0.001000
1001.288462,0.046107,0.001000,0.001000,0.001000,0.001000,0.001000
1001.307692,0.045519,0.001000,0.001000,0.001000,0.001000,0.001000
1001.326923,0.044892,0.001000,0.001000,0.001000,0.001000,0.001000
1001.346154,0.044226,0.001000,0.001000,0.001000,0.001000,0.001000
1001.365385,0.043522,0.001000,0.001000,0.001000,0.001000,0.001000
1001.384615,0.042780,0.001000,0.001000,0.001000,0.001000,0.001000
1001.403846,0.042001,0.001000,0.001000,0.001000,0.001000,0.001000
1001.423077,0.041187,0.001000,0.001000,0.001000,0.001000,0.001000
1001.442308,0.040336,0.001000,0.001000,0.001000,0.001000,0.001000
1001.461538,0.039451,0.001000,0.001000,0.001000,0.001000,0.001000
1001.480769,0.038532,0.001000,0.001000,0.001000,0.001000,0.001000
1001.500000,0.037579,0.001000,0.001000,0.001000,0.001000,0.001000
1001.519231,0.036595,0.001000,0.001000,0.001000,0.001000,0.001000
1001.538462,0.035578,0.001000,0.001000,0.001000,0.001000,0.001000
1001.557692,0.034531,0.001000,0.001000,0.001000,0.001000,0.001000
1001.576923,0.033454,0.001000,0.001000,0.001000,0.001000,0.001000
1001.596154,0.032348,0.001000,0.001000,0.001000,0.001000,0.001000
1001.615385,0.031215,0.001000,0.001000,0.001000,0.001000,0.001000
1001.634615,0.030054,0.001000,0.001000,0.001000,0.001000,0.001000
1001.653846,0.028867,0.001000,0.001000,0.001000,0.001000,0.001000
1001.673077,0.027656,0.001000,0.001000,0.001000,0.001000,0.001000
1001.692308,0.026421,0.001000,0.001000,0.001000,0.001000,0.001000
1001.711538,0.025163,0.001000,0.001000,0.001000,0.001000,0.001000
1001.730769,0.023883,0.001000,0.001000,0.001000,0.001000,0.001000
1001.750000,0.022582,0.001000,0.001000,0.001000,0.001000,0.001000
1001.769231,0.021263,0.001000,0.001000,0.001000,0.001000,0.001000
1001.788462,0.019924,0.001000,0.001000,0.001000,0.001000,0.001000
1001.807692,0.018569,0.001000,0.001000,0.001000,0.001000,0.001000
1001.826923,0.017197,0.001000,0.001000,0.001000,0.001000,0.001000
1001.846154,0.015811,0.001000,0.001000,0.001000,0.001000,0.001000
1001.865385,0.014411,0.001000,0.001000,0.001000,0.001000,0.001000
1001.884615,0.012999,0.001000,0.001000,0.001000,0.001000,0.001000
1001.903846,0.011575,0.001000,0.001000,0.001000,0.001000,0.001000
1001.923077,0.010142,0.001000,0.001000,0.001000,0.001000,0.001000
1001.942308,0.008699,0.001000,0.001000,0.001000,0.001000,0.001000
1001.961538,0.007250,0.001000,0.001000,0.001000,0.001000,0.001000
1001.980769,0.005793,0.001000,0.001000,0.001000,0.001000,0.001000
1002.000000,0.004332,0.001000,0.001000,0.001000,0.001000,0.001000
1002.019231,0.002868,0.001000,0.001000,0.001000,0.001000,0.001000
1002.038462,0.001400,0.001000,0.001000,0.001000,0.001000,0.001000
1002.057692,-0.000068,0.001000,0.001000,0.001000,0.001000,0.001000
1002.076923,-0.001537,0.001000,0.001000,0.001000,0.001000,0.001000
1002.096154,-0.003004,0.001000,0.001000,0.001000,0.001000,0.001000
1002.115385,-0.004468,0.001000,0.001000,0.001000,0.001000,0.001000
1002.134615,-0.005929,0.001000,0.001000,0.001000,0.001000,0.001000
1002.153846,-0.007384,0.001000,0.001000,0.001000,0.001000,0.001000
1002.173077,-0.008834,0.001000,0.001000,0.001000,0.001000,0.001000
1002.192308,-0.010275,0.001000,0.001000,0.001000,0.001000,0.001000
1002.211538,-0.011708,0.001000,0.001000,0.001000,0.001000,0.001000
1002.230769,-0.013130,0.001000,0.001000,0.001000,0.001000,0.001000
1002.250000,-0.014542,0.001000,0.001000,0.001000,0.001000,0.001000
1002.269231,-0.015940,0.001000,0.001000,0.001000,0.001000,0.001000
1002.288462,-0.017325,0.001000,0.001000,0.001000,0.001000,0.001000
1002.307692,-0.018695,0.001000,0.001000,0.001000,0.001000,0.001000
1002.326923,-0.020049,0.001000,0.001000,0.001000,0.001000,0.001000
1002.346154,-0.021386,0.001000,0.001000,0.001000,0.001000,0.001000
1002.365385,-0.022704,0.001000,0.001000,0.001000,0.001000,0.001000
1002.384615,-0.024002,0.001000,0.001000,0.001000,0.001000,0.001000
1002.403846,-0.025280,0.001000,0.001000,0.001000,0.001000,0.001000
1002.423077,-0.026536,0.001000,0.001000,0.001000,0.001000,0.001000
1002.442308,-0.027769,0.001000,0.001000,0.001000,0.001000,0.001000
1002.461538,-0.028979,0.001000,0.001000,0.001000,0.001000,0.001000
1002.480769,-0.030163,0.001000,0.001000,0.001000,0.001000,0.001000
1002.500000,-0.031321,0.001000,0.001000,0.001000,0.001000,0.001000
1002.519231,-0.032452,0.001000,0.001000,0.001000,0.001000,0.001000
1002.538462,-0.033555,0.001000,0.001000,0.001000,0.001000,0.001000
1002.557692,-0.034629,0.001000,0.001000,0.001000,0.001000,0.001000
1002.576923,-0.035674,0.001000,0.001000,0.001000,0.001000,0.001000
1002.596154,-0.036687,0.001000,0.001000,0.001000,0.001000,0.001000
1002.615385,-0.037669,0.001000,0.001000,0.001000,0.001000,0.001000
1002.634615,-0.038619,0.001000,0.001000,0.001000,0.001000,0.001000
1002.653846,-0.039535,0.001000,0.001000,0.001000,0.001000,0.001000
1002.673077,-0.040417,0.001000,0.001000,0.001000,0.001000,0.001000
1002.692308,-0.041264,0.001000,0.001000,0.001000,0.001000,0.001000
1002.711538,-0.042075,0.001000,0.001000,0.001000,0.001000,0.001000
1002.730769,-0.042850,0.001000,0.001000,0.001000,0.001000,0.001000
1002.750000,-0.043589,0.001000,0.001000,0.001000,0.001000,0.001000
1002.769231,-0.044289,0.001000,0.001000,0.001000,0.001000,0.001000
1002.788462,-0.044952,0.001000,0.001000,0.001000,0.001000,0.001000
1002.807692,-0.045575,0.001000,0.001000,0.001000,0.001000,0.001000
1002.826923,-0.046160,0.001000,0.001000,0.001000,0.001000,0.001000
1002.846154,-0.046704,0.001000,0.001000,0.001000,0.001000,0.001000
1002.865385,-0.047208,0.001000,0.001000,0.001000,0.001000,0.001000
1002.884615,-0.047672,0.001000,0.001000,0.001000,0.001000,0.001000
1002.903846,-0.048094,0.001000,0.001000,0.001000,0.001000,0.001000
1002.923077,-0.048475,0.001000,0.001000,0.001000,0.001000,0.001000
1002.942308,-0.048814,0.001000,0.001000,0.001000,0.001000,0.001000
1002.961538,-0.049111,0.001000,0.001000,0.001000,0.001000,0.001000
1002.980769,-0.049365,0.001000,0.001000,0.001000,0.001000,0.001000
1003.000000,-0.049577,0.001000,0.001000,0.001000,0.001000,0.001000
1003.019231,-0.049746,0.001000,0.001000,0.001000,0.001000,0.001000
1003.038462,-0.049873,0.001000,0.001000,0.001000,0.001000,0.001000
1003.057692,-0.049956,0.001000,0.001000,0.001000,0.001000,0.001000
1003.076923,-0.049996,0.001000,0.001000,0.001000,0.001000,0.001000
1003.096154,-0.049993,0.001000,0.001000,0.001000,0.001000,0.001000
1003.115385,-0.049947,0.001000,0.001000,0.001000,0.001000,0.001000
1003.134615,-0.049858,0.001000,0.001000,0.001000,0.001000,0.001000
1003.153846,-0.049725,0.001000,0.001000,0.001000,0.001000,0.001000
1003.173077,-0.049550,0.001000,0.001000,0.001000,0.001000,0.001000
1003.192308,-0.049332,0.001000,0.001000,0.001000,0.001000,0.001000
1003.211538,-0.049072,0.001000,0.001000,0.001000,0.001000,0.001000
1003.230769,-0.048769,0.001000,0.001000,0.001000,0.001000,0.001000
1003.250000,-0.048424,0.001000,0.001000,0.001000,0.001000,0.001000
1003.269231,-0.048038,0.001000,0.001000,0.001000,0.001000,0.001000
1003.288462,-0.047610,0.001000,0.001000,0.001000,0.001000,0.001000
1003.307692,-0.047140,0.001000,0.001000,0.001000,0.001000,0.001000
1003.326923,-0.046631,0.001000,0.001000,0.001000,0.001000,0.001000
1003.346154,-0.046081,0.001000,0.001000,0.001000,0.001000,0.001000
1003.365385,-0.045491,0.001000,0.001000,0.001000,0.001000,0.001000
1003.384615,-0.044862,0.001000,0.001000,0.001000,0.001000,0.001000
1003.403846,-0.044194,0.001000,0.001000,0.001000,0.001000,0.001000
1003.423077,-0.043488,0.001000,0.001000,0.001000,0.001000,0.001000
1003.442308,-0.042745,0.001000,0.001000,0.001000,0.001000,0.001000
1003.461538,-0.041964,0.001000,0.001000,0.001000,0.001000,0.001000
1003.480769,-0.041148,0.001000,0.001000,0.001000,0.001000,0.001000
1003.500000,-0.040296,0.001000,0.001000,0.001000,0.001000,0.001000
1003.519231,-0.039409,0.001000,0.001000,0.001000,0.001000,0.001000
1003.538462,-0.038488,0.001000,0.001000,0.001000,0.001000,0.001000
1003.557692,-0.037534,0.001000,0.001000,0.001000,0.001000,0.001000
1003.576923,-0.036548,0.001000,0.001000,0.001000,0.001000,0.001000
1003.596154,-0.035530,0.001000,0.001000,0.001000,0.001000,0.001000
1003.615385,-0.034482,0.001000,0.001000,0.001000,0.001000,0.001000
1003.634615,-0.033403,0.001000,0.001000,0.001000,0.001000,0.001000
1003.653846,-0.032296,0.001000,0.001000,0.001000,0.001000,0.001000
1003.673077,-0.031161,0.001000,0.001000,0.001000,0.001000,0.001000
1003.692308,-0.030000,0.001000,0.001000,0.001000,0.001000,0.001000
1003.711538,-0.028812,0.001000,0.001000,0.001000,0.001000,0.001000
1003.730769,-0.027599,0.001000,0.001000,0.001000,0.001000,0.001000
1003.750000,-0.026363,0.001000,0.001000,0.001000,0.001000,0.001000
1003.769231,-0.025104,0.001000,0.001000,0.001000,0.001000,0.001000
1003.788462,-0.023823,0.001000,0.001000,0.001000,0.001000,0.001000
1003.807692,-0.022522,0.001000,0.001000,0.001000,0.001000,0.001000
1003.826923,-0.021201,0.001000,0.001000,0.001000,0.001000,0.001000
1003.846154,-0.019862,0.001000,0.001000,0.001000,0.001000,0.001000
1003.865385,-0.018506,0.001000,0.001000,0.001000,0.001000,0.001000
1003.884615,-0.017133,0.001000,0.001000,0.001000,0.001000,0.001000
1003.903846,-0.015746,0.001000,0.001000,0.001000,0.001000,0.001000
1003.923077,-0.014346,0.001000,0.001000,0.001000,0.001000,0.001000
1003.942308,-0.012933,0.001000,0.001000,0.001000,0.001000,0.001000
1003.961538,-0.011509,0.001000,0.001000,0.001000,0.001000,0.001000
1003.980769,-0.010075,0.001000,0.001000,0.001000,0.001000,0.001000
1004.000000,-0.008632,0.001000,0.001000,0.001000,0.001000,0.001000
1004.019231,-0.007182,0.001000,0.001000,0.001000,0.001000,0.001000
1004.038462,-0.005726,0.001000,0.001000,0.001000,0.001000,0.001000
1004.057692,-0.004265,0.001000,0.001000,0.001000,0.001000,0.001000
1004.076923,-0.002800,0.001000,0.001000,0.001000,0.001000,0.001000
1004.096154,-0.001332,0.001000,0.001000,0.001000,0.001000,0.001000
1004.115385,0.000136,0.001000,0.001000,0.001000,0.001000,0.001000
1004.134615,0.001605,0.001000,0.001000,0.001000,0.001000,0.001000
1004.153846,0.003072,0.001000,0.001000,0.001000,0.001000,0.001000
1004.173077,0.004536,0.001000,0.001000,0.001000,0.001000,0.001000
1004.192308,0.005996,0.001000,0.001000,0.001000,0.001000,0.001000
1004.211538,0.007452,0.001000,0.001000,0.001000,0.001000,0.001000
1004.230769,0.008901,0.001000,0.001000,0.001000,0.001000,0.001000
1004.250000,0.010342,0.001000,0.001000,0.001000,0.001000,0.001000
1004.269231,0.011774,0.001000,0.001000,0.001000,0.001000,0.001000
1004.288462,0.013196,0.001000,0.001000,0.001000,0.001000,0.001000
1004.307692,0.014607,0.001000,0.001000,0.001000,0.001000,0.001000
1004.326923,0.016005,0.001000,0.001000,0.001000,0.001000,0.001000
1004.346154,0.017389,0.001000,0.001000,0.001000,0.001000,0.001000
1004.365385,0.018758,0.001000,0.001000,0.001000,0.001000,0.001000
1004.384615,0.020112,0.001000,0.001000,0.001000,0.001000,0.001000
1004.403846,0.021447,0.001000,0.001000,0.001000,0.001000,0.001000
1004.423077,0.022765,0.001000,0.001000,0.001000,0.001000,0.001000
1004.442308,0.024062,0.001000,0.001000,0.001000,0.001000,0.001000
1004.461538,0.025339,0.001000,0.001000,0.001000,0.001000,0.001000
1004.480769,0.026594,0.001000,0.001000,0.001000,0.001000,0.001000
1004.500000,0.027826,0.001000,0.001000,0.001000,0.001000,0.001000
1004.519231,0.029034,0.001000,0.001000,0.001000,0.001000,0.001000
1004.538462,0.030217,0.001000,0.001000,0.001000,0.001000,0.001000
1004.557692,0.031374,0.001000,0.001000,0.001000,0.001000,0.001000
1004.576923,0.032504,0.001000,0.001000,0.001000,0.001000,0.001000
1004.596154,0.033606,0.001000,0.001000,0.001000,0.001000,0.001000
1004.615385,0.034679,0.001000,0.001000,0.001000,0.001000,0.001000
1004.634615,0.035721,0.001000,0.001000,0.001000,0.001000,0.001000
1004.653846,0.036734,0.001000,0.001000,0.001000,0.001000,0.001000
1004.673077,0.037714,0.001000,0.001000,0.001000,0.001000,0.001000
1004.692308,0.038662,0.001000,0.001000,0.001000,0.001000,0.001000
1004.711538,0.039576,0.001000,0.001000,0.001000,0.001000,0.001000
1004.730769,0.040457,0.001000,0.001000,0.001000,0.001000,0.001000
1004.750000,0.041302,0.001000,0.001000,0.001000,0.001000,0.001000
1004.769231,0.042112,0.001000,0.001000,0.001000,0.001000,0.001000
1004.788462,0.042885,0.001000,0.001000,0.001000,0.001000,0.001000
1004.807692,0.043622,0.001000,0.001000,0.001000,0.001000,0.001000
1004.826923,0.044321,0.001000,0.001000,0.001000,0.001000,0.001000
1004.846154,0.044981,0.001000,0.001000,0.001000,0.001000,0.001000
1004.865385,0.045603,0.001000,0.001000,0.001000,0.001000,0.001000
1004.884615,0.046186,0.001000,0.001000,0.001000,0.001000,0.001000
1004.903846,0.046728,0.001000,0.001000,0.001000,0.001000,0.001000
1004.923077,0.047231,0.001000,0.001000,0.001000,0.001000,0.001000
1004.942308,0.047692,0.001000,0.001000,0.001000,0.001000,0.001000
1004.961538,0.048113,0.001000,0.001000,0.001000,0.001000,0.001000
1004.980769,0.048491,0.001000,0.001000,0.001000,0.001000,0.001000
1005.000000,0.048829,0.001000,0.001000,0.001000,0.001000,0.001000
1005.019231,0.049123,0.001000,0.001000,0.001000,0.001000,0.001000
1005.038462,0.049376,0.001000,0.001000,0.001000,0.001000,0.001000
1005.057692,0.049586,0.001000,0.001000,0.001000,0.001000,0.001000
1005.076923,0.049753,0.001000,0.001000,0.001000,0.001000,0.001000
1005.096154,0.049877,0.001000,0.001000,0.001000,0.001000,0.001000
1005.115385,0.049959,0.001000,0.001000,0.001000,0.001000,0.001000
1005.134615,0.049997,0.001000,0.001000,0.001000,0.001000,0.001000
1005.153846,0.049992,0.001000,0.001000,0.001000,0.001000,0.001000
1005.173077,0.049944,0.001000,0.001000,0.001000,0.001000,0.001000
1005.192308,0.049852,0.001000,0.001000,0.001000,0.001000,0.001000
1005.211538,0.049718,0.001000,0.001000,0.001000,0.001000,0.001000
1005.230769,0.049541,0.001000,0.001000,0.001000,0.001000,0.001000
1005.250000,0.049321,0.001000,0.001000,0.001000,0.001000,0.001000
1005.269231,0.049059,0.001000,0.001000,0.001000,0.001000,0.001000
1005.288462,0.048754,0.001000,0.001000,0.001000,0.001000,0.001000
1005.307692,0.048407,0.001000,0.001000,0.001000,0.001000,0.001000
1005.326923,0.048019,0.001000,0.001000,0.001000,0.001000,0.001000
1005.346154,0.047589,0.001000,0.001000,0.001000,0.001000,0.001000
1005.365385,0.047118,0.001000,0.001000,0.001000,0.001000,0.001000
1005.384615,0.046606,0.001000,0.001000,0.001000,0.001000,0.001000
1005.403846,0.046054,0.001000,0.001000,0.001000,0.001000,0.001000
1005.423077,0.045462,0.001000,0.001000,0.001000,0.001000,0.001000
1005.442308,0.044832,0.001000,0.001000,0.001000,0.001000,0.001000
1005.461538,0.044162,0.001000,0.001000,0.001000,0.001000,0.001000
1005.480769,0.043454,0.001000,0.001000,0.001000,0.001000,0.001000
1005.500000,0.042709,0.001000,0.001000,0.001000,0.001000,0.001000
1005.519231,0.041927,0.001000,0.001000,0.001000,0.001000,0.001000
1005.538462,0.041109,0.001000,0.001000,0.001000,0.001000,0.001000
1005.557692,0.040255,0.001000,0.001000,0.001000,0.001000,0.001000
1005.576923,0.039367,0.001000,0.001000,0.001000,0.001000,0.001000
1005.596154,0.038445,0.001000,0.001000,0.001000,0.001000,0.001000
1005.615385,0.037489,0.001000,0.001000,0.001000,0.001000,0.001000
1005.634615,0.036502,0.001000,0.001000,0.001000,0.001000,0.001000
1005.653846,0.035482,0.001000,0.001000,0.001000,0.001000,0.001000
1005.673077,0.034432,0.001000,0.001000,0.001000,0.001000,0.001000
1005.692308,0.033353,0.001000,0.001000,0.001000,0.001000,0.001000
1005.711538,0.032244,0.001000,0.001000,0.001000,0.001000,0.001000
1005.730769,0.031108,0.001000,0.001000,0.001000,0.001000,0.001000
1005.750000,0.029945,0.001000,0.001000,0.001000,0.001000,0.001000
1005.769231,0.028756,0.001000,0.001000,0.001000,0.001000,0.001000
1005.788462,0.027542,0.001000,0.001000,0.001000,0.001000,0.001000
1005.807692,0.026305,0.001000,0.001000,0.001000,0.001000,0.001000
1005.826923,0.025045,0.001000,0.001000,0.001000,0.001000,0.001000
1005.846154,0.023763,0.001000,0.001000,0.001000,0.001000,0.001000
1005.865385,0.022461,0.001000,0.001000,0.001000,0.001000,0.001000
1005.884615,0.021139,0.001000,0.001000,0.001000,0.001000,0.001000
1005.903846,0.019799,0.001000,0.001000,0.001000,0.001000,0.001000
1005.923077,0.018442,0.001000,0.001000,0.001000,0.001000,0.001000
1005.942308,0.017069,0.001000,0.001000,0.001000,0.001000,0.001000
1005.961538,0.015682,0.001000,0.001000,0.001000,0.001000,0.001000
1005.980769,0.014281,0.001000,0.001000,0.001000,0.001000,0.001000
1006.000000,0.012867,0.001000,0.001000,0.001000,0.001000,0.001000
1006.019231,0.011443,0.001000,0.001000,0.001000,0.001000,0.001000
1006.038462,0.010008,0.001000,0.001000,0.001000,0.001000,0.001000
1006.057692,0.008565,0.001000,0.001000,0.001000,0.001000,0.001000
1006.076923,0.007115,0.001000,0.001000,0.001000,0.001000,0.001000
1006.096154,0.005658,0.001000,0.001000,0.001000,0.001000,0.001000
1006.115385,0.004197,0.001000,0.001000,0.001000,0.001000,0.001000
1006.134615,0.002732,0.001000,0.001000,0.001000,0.001000,0.001000
1006.153846,0.001264,0.001000,0.001000,0.001000,0.001000,0.001000
1006.173077,-0.000204,0.001000,0.001000,0.001000,0.001000,0.001000
1006.192308,-0.001673,0.001000,0.001000,0.001000,0.001000,0.001000
1006.211538,-0.003140,0.001000,0.001000,0.001000,0.001000,0.001000
1006.230769,-0.004604,0.001000,0.001000,0.001000,0.001000,0.001000
1006.250000,-0.006064,0.001000,0.001000,0.001000,0.001000,0.001000
1006.269231,-0.007519,0.001000,0.001000,0.001000,0.001000,0.001000
1006.288462,-0.008968,0.001000,0.001000,0.001000,0.001000,0.001000
1006.307692,-0.010408,0.001000,0.001000,0.001000,0.001000,0.001000
1006.326923,-0.011840,0.001000,0.001000,0.001000,0.001000,0.001000
1006.346154,-0.013262,0.001000,0.001000,0.001000,0.001000,0.001000
1006.365385,-0.014672,0.001000,0.001000,0.001000,0.001000,0.001000
1006.384615,-0.016069,0.001000,0.001000,0.001000,0.001000,0.001000
1006.403846,-0.017453,0.001000,0.001000,0.001000,0.001000,0.001000
1006.423077,-0.018822,0.001000,0.001000,0.001000,0.001000,0.001000
1006.442308,-0.020174,0.001000,0.001000,0.001000,0.001000,0.001000
1006.461538,-0.021509,0.001000,0.001000,0.001000,0.001000,0.001000
1006.480769,-0.022825,0.001000,0.001000,0.001000,0.001000,0.001000
1006.500000,-0.024122,0.001000,0.001000,0.001000,0.001000,0.001000
1006.519231,-0.025398,0.001000,0.001000,0.001000,0.001000,0.001000
1006.538462,-0.026652,0.001000,0.001000,0.001000,0.001000,0.001000
1006.557692,-0.027883,0.001000,0.001000,0.001000,0.001000,0.001000
1006.576923,-0.029090,0.001000,0.001000,0.001000,0.001000,0.001000
1006.596154,-0.030271,0.001000,0.001000,0.001000,0.001000,0.001000
1006.615385,-0.031427,0.001000,0.001000,0.001000,0.001000,0.001000
1006.634615,-0.032556,0.001000,0.001000,0.001000,0.001000,0.001000
1006.653846,-0.033656,0.001000,0.001000,0.001000,0.001000,0.001000
1006.673077,-0.034728,0.001000,0.001000,0.001000,0.001000,0.001000
1006.692308,-0.035769,0.001000,0.001000,0.001000,0.001000,0.001000
1006.711538,-0.036780,0.001000,0.001000,0.001000,0.001000,0.001000
1006.730769,-0.037759,0.001000,0.001000,0.001000,0.001000,0.001000
1006.750000,-0.038705,0.001000,0.001000,0.001000,0.001000,0.001000
1006.769231,-0.039618,0.001000,0.001000,0.001000,0.001000,0.001000
1006.788462,-0.040497,0.001000,0.001000,0.001000,0.001000,0.001000
1006.807692,-0.041340,0.001000,0.001000,0.001000,0.001000,0.001000
1006.826923,-0.042149,0.001000,0.001000,0.001000,0.001000,0.001000
1006.846154,-0.042920,0.001000,0.001000,0.001000,0.001000,0.001000
1006.865385,-0.043655,0.001000,0.001000,0.001000,0.001000,0.001000
1006.884615,-0.044352,0.001000,0.001000,0.001000,0.001000,0.001000
1006.903846,-0.045011,0.001000,0.001000,0.001000,0.001000,0.001000
1006.923077,-0.045631,0.001000,0.001000,0.001000,0.001000,0.001000
1006.942308,-0.046212,0.001000,0.001000,0.001000,0.001000,0.001000
1006.961538,-0.046752,0.001000,0.001000,0.001000,0.001000,0.001000
1006.980769,-0.047253,0.001000,0.001000,0.001000,0.001000,0.001000
1007.000000,-0.047713,0.001000,0.001000,0.001000,0.001000,0.001000
1007.019231,-0.048131,0.001000,0.001000,0.001000,0.001000,0.001000
1007.038462,-0.048508,0.001000,0.001000,0.001000,0.001000,0.001000
1007.057692,-0.048843,0.001000,0.001000,0.001000,0.001000,0.001000
1007.076923,-0.049136,0.001000,0.001000,0.001000,0.001000,0.001000
1007.096154,-0.049387,0.001000,0.001000,0.001000,0.001000,0.001000
1007.115385,-0.049595,0.001000,0.001000,0.001000,0.001000,0.001000
1007.134615,-0.049760,0.001000,0.001000,0.001000,0.001000,0.001000
1007.153846,-0.049882,0.001000,0.001000,0.001000,0.001000,0.001000
1007.173077,-0.049961,0.001000,0.001000,0.001000,0.001000,0.001000
1007.192308,-0.049998,0.001000,0.001000,0.001000,0.001000,0.001000
1007.211538,-0.049991,0.001000,0.001000,0.001000,0.001000,0.001000
1007.230769,-0.049940,0.001000,0.001000,0.001000,0.001000,0.001000
1007.250000,-0.049847,0.001000,0.001000,0.001000,0.001000,0.001000
1007.269231,-0.049711,0.001000,0.001000,0.001000,0.001000,0.001000
1007.288462,-0.049532,0.001000,0.001000,0.001000,0.001000,0.001000
1007.307692,-0.049310,0.001000,0.001000,0.001000,0.001000,0.001000
1007.326923,-0.049046,0.001000,0.001000,0.001000,0.001000,0.001000
1007.346154,-0.048739,0.001000,0.001000,0.001000,0.001000,0.001000
1007.365385,-0.048390,0.001000,0.001000,0.001000,0.001000,0.001000
1007.384615,-0.048000,0.001000,0.001000,0.001000,0.001000,0.001000
1007.403846,-0.047568,0.001000,0.001000,0.001000,0.001000,0.001000
1007.423077,-0.047095,0.001000,0.001000,0.001000,0.001000,0.001000
1007.442308,-0.046581,0.001000,0.001000,0.001000,0.001000,0.001000
1007.461538,-0.046027,0.001000,0.001000,0.001000,0.001000,0.001000
1007.480769,-0.045434,0.001000,0.001000,0.001000,0.001000,0.001000
1007.500000,-0.044801,0.001000,0.001000,0.001000,0.001000,0.001000
1007.519231,-0.044130,0.001000,0.001000,0.001000,0.001000,0.001000
1007.538462,-0.043421,0.001000,0.001000,0.001000,0.001000,0.001000
1007.557692,-0.042674,0.001000,0.001000,0.001000,0.001000,0.001000
1007.576923,-0.041890,0.001000,0.001000,0.001000,0.001000,0.001000
1007.596154,-0.041070,0.001000,0.001000,0.001000,0.001000,0.001000
1007.615385,-0.040215,0.001000,0.001000,0.001000,0.001000,0.001000
1007.634615,-0.039325,0.001000,0.001000,0.001000,0.001000,0.001000
1007.653846,-0.038401,0.001000,0.001000,0.001000,0.001000,0.001000
1007.673077,-0.037444,0.001000,0.001000,0.001000,0.001000,0.001000
1007.692308,-0.036455,0.001000,0.001000,0.001000,0.001000,0.001000
1007.711538,-0.035434,0.001000,0.001000,0.001000,0.001000,0.001000
1007.730769,-0.034383,0.001000,0.001000,0.001000,0.001000,0.001000
1007.750000,-0.033302,0.001000,0.001000,0.001000,0.001000,0.001000
1007.769231,-0.032192,0.001000,0.001000,0.001000,0.001000,0.001000
1007.788462,-0.031055,0.001000,0.001000,0.001000,0.001000,0.001000
1007.807692,-0.029890,0.001000,0.001000,0.001000,0.001000,0.001000
1007.826923,-0.028700,0.001000,0.001000,0.001000,0.001000,0.001000
1007.846154,-0.027485,0.001000,0.001000,0.001000,0.001000,0.001000
1007.865385,-0.026247,0.001000,0.001000,0.001000,0.001000,0.001000
1007.884615,-0.024986,0.001000,0.001000,0.001000,0.001000,0.001000
1007.903846,-0.023703,0.001000,0.001000,0.001000,0.001000,0.001000
1007.923077,-0.022400,0.001000,0.001000,0.001000,0.001000,0.001000
1007.942308,-0.021077,0.001000,0.001000,0.001000,0.001000,0.001000
1007.961538,-0.019737,0.001000,0.001000,0.001000,0.001000,0.001000
1007.980769,-0.018379,0.001000,0.001000,0.001000,0.001000,0.001000
1008.000000,-0.017005,0.001000,0.001000,0.001000,0.001000,0.001000
1008.019231,-0.015617,0.001000,0.001000,0.001000,0.001000,0.001000
1008.038462,-0.014215,0.001000,0.001000,0.001000,0.001000,0.001000
1008.057692,-0.012801,0.001000,0.001000,0.001000,0.001000,0.001000
1008.076923,-0.011376,0.001000,0.001000,0.001000,0.001000,0.001000
1008.096154,-0.009941,0.001000,0.001000,0.001000,0.001000,0.001000
1008.115385,-0.008498,0.001000,0.001000,0.001000,0.001000,0.001000
1008.134615,-0.007047,0.001000,0.001000,0.001000,0.001000,0.001000
1008.153846,-0.005590,0.001000,0.001000,0.001000,0.001000,0.001000
1008.173077,-0.004129,0.001000,0.001000,0.001000,0.001000,0.001000
1008.192308,-0.002664,0.001000,0.001000,0.001000,0.001000,0.001000
1008.211538,-0.001196,0.001000,0.001000,0.001000,0.001000,0.001000
1008.230769,0.000273,0.001000,0.001000,0.001000,0.001000,0.001000
1008.250000,0.001741,0.001000,0.001000,0.001000,0.001000,0.001000
1008.269231,0.003208,0.001000,0.001000,0.001000,0.001000,0.001000
1008.288462,0.004672,0.001000,0.001000,0.001000,0.001000,0.001000
1008.307692,0.006132,0.001000,0.001000,0.001000,0.001000,0.001000
1008.326923,0.007587,0.001000,0.001000,0.001000,0.001000,0.001000
1008.346154,0.009035,0.001000,0.001000,0.001000,0.001000,0.001000
1008.365385,0.010475,0.001000,0.001000,0.001000,0.001000,0.001000
1008.384615,0.011906,0.001000,0.001000,0.001000,0.001000,0.001000
1008.403846,0.013328,0.001000,0.001000,0.001000,0.001000,0.001000
1008.423077,0.014737,0.001000,0.001000,0.001000,0.001000,0.001000
1008.442308,0.016134,0.001000,0.001000,0.001000,0.001000,0.001000
1008.461538,0.017517,0.001000,0.001000,0.001000,0.001000,0.001000
1008.480769,0.018885,0.001000,0.001000,0.001000,0.001000,0.001000
1008.500000,0.020236,0.001000,0.001000,0.001000,0.001000,0.001000
1008.519231,0.021570,0.001000,0.001000,0.001000,0.001000,0.001000
1008.538462,0.022886,0.001000,0.001000,0.001000,0.001000,0.001000
1008.557692,0.024182,0.001000,0.001000,0.001000,0.001000,0.001000
1008.576923,0.025456,0.001000,0.001000,0.001000,0.001000,0.001000
1008.596154,0.026709,0.001000,0.001000,0.001000,0.001000,0.001000
1008.615385,0.027939,0.001000,0.001000,0.001000,0.001000,0.001000
1008.634615,0.029145,0.001000,0.001000,0.001000,0.001000,0.001000
1008.653846,0.030326,0.001000,0.001000,0.001000,0.001000,0.001000
1008.673077,0.031480,0.001000,0.001000,0.001000,0.001000,0.001000
1008.692308,0.032607,0.001000,0.001000,0.001000,0.001000,0.001000
1008.711538,0.033707,0.001000,0.001000,0.001000,0.001000,0.001000
1008.730769,0.034777,0.001000,0.001000,0.001000,0.001000,0.001000
1008.750000,0.035817,0.001000,0.001000,0.001000,0.001000,0.001000
1008.769231,0.036826,0.001000,0.001000,0.001000,0.001000,0.001000
1008.788462,0.037803,0.001000,0.001000,0.001000,0.001000,0.001000
1008.807692,0.038748,0.001000,0.001000,0.001000,0.001000,0.001000
1008.826923,0.039659,0.001000,0.001000,0.001000,0.001000,0.001000
1008.846154,0.040537,0.001000,0.001000,0.001000,0.001000,0.001000
1008.865385,0.041379,0.001000,0.001000,0.001000,0.001000,0.001000
1008.884615,0.042185,0.001000,0.001000,0.001000,0.001000,0.001000
1008.903846,0.042955,0.001000,0.001000,0.001000,0.001000,0.001000
1008.923077,0.043688,0.001000,0.001000,0.001000,0.001000,0.001000
1008.942308,0.044384,0.001000,0.001000,0.001000,0.001000,0.001000
1008.961538,0.045041,0.001000,0.001000,0.001000,0.001000,0.001000
1008.980769,0.045659,0.001000,0.001000,0.001000,0.001000,0.001000
1009.000000,0.046238,0.001000,0.001000,0.001000,0.001000,0.001000
1009.019231,0.046777,0.001000,0.001000,0.001000,0.001000,0.001000
1009.038462,0.047275,0.001000,0.001000,0.001000,0.001000,0.001000
1009.057692,0.047733,0.001000,0.001000,0.001000,0.001000,0.001000
1009.076923,0.048149,0.001000,0.001000,0.001000,0.001000,0.001000
1009.096154,0.048525,0.001000,0.001000,0.001000,0.001000,0.001000
1009.115385,0.048858,0.001000,0.001000,0.001000,0.001000,0.001000
1009.134615,0.049149,0.001000,0.001000,0.001000,0.001000,0.001000
1009.153846,0.049397,0.001000,0.001000,0.001000,0.001000,0.001000
1009.173077,0.049603,0.001000,0.001000,0.001000,0.001000,0.001000
1009.192308,0.049767,0.001000,0.001000,0.001000,0.001000,0.001000
1009.211538,0.049887,0.001000,0.001000,0.001000,0.001000,0.001000
1009.230769,0.049964,0.001000,0.001000,0.001000,0.001000,0.001000
1009.250000,0.049998,0.001000,0.001000,0.001000,0.001000,0.001000
1009.269231,0.049989,0.001000,0.001000,0.001000,0.001000,0.001000
1009.288462,0.049937,0.001000,0.001000,0.001000,0.001000,0.001000
1009.307692,0.049842,0.001000,0.001000,0.001000,0.001000,0.001000
1009.326923,0.049704,0.001000,0.001000,0.001000,0.001000,0.001000
1009.346154,0.049522,0.001000,0.001000,0.001000,0.001000,0.001000
1009.365385,0.049299,0.001000,0.001000,0.001000,0.001000,0.001000
1009.384615,0.049032,0.001000,0.001000,0.001000,0.001000,0.001000
1009.403846,0.048724,0.001000,0.001000,0.001000,0.001000,0.001000
1009.423077,0.048373,0.001000,0.001000,0.001000,0.001000,0.001000
1009.442308,0.047981,0.001000,0.001000,0.001000,0.001000,0.001000
1009.461538,0.047547,0.001000,0.001000,0.001000,0.001000,0.001000
1009.480769,0.047072,0.001000,0.001000,0.001000,0.001000,0.001000
1009.500000,0.046556,0.001000,0.001000,0.001000,0.001000,0.001000
1009.519231,0.046001,0.001000,0.001000,0.001000,0.001000,0.001000
1009.538462,0.045406,0.001000,0.001000,0.001000,0.001000,0.001000
1009.557692,0.044771,0.001000,0.001000,0.001000,0.001000,0.001000
1009.576923,0.044098,0.001000,0.001000,0.001000,0.001000,0.001000
1009.596154,0.043387,0.001000,0.001000,0.001000,0.001000,0.001000
1009.615385,0.042638,0.001000,0.001000,0.001000,0.001000,0.001000
1009.634615,0.041853,0.001000,0.001000,0.001000,0.001000,0.001000
1009.653846,0.041031,0.001000,0.001000,0.001000,0.001000,0.001000
1009.673077,0.040175,0.001000,0.001000,0.001000,0.001000,0.001000
1009.692308,0.039283,0.001000,0.001000,0.001000,0.001000,0.001000
1009.711538,0.038358,0.001000,0.001000,0.001000,0.001000,0.001000
1009.730769,0.037399,0.001000,0.001000,0.001000,0.001000,0.001000
1009.750000,0.036408,0.001000,0.001000,0.001000,0.001000,0.001000
1009.769231,0.035386,0.001000,0.001000,0.001000,0.001000,0.001000
1009.788462,0.034333,0.001000,0.001000,0.001000,0.001000,0.001000
1009.807692,0.033251,0.001000,0.001000,0.001000,0.001000,0.001000
1009.826923,0.032140,0.001000,0.001000,0.001000,0.001000,0.001000
1009.846154,0.031001,0.001000,0.001000,0.001000,0.001000,0.001000
1009.865385,0.029836,0.001000,0.001000,0.001000,0.001000,0.001000
1009.884615,0.028645,0.001000,0.001000,0.001000,0.001000,0.001000
1009.903846,0.027429,0.001000,0.001000,0.001000,0.001000,0.001000
1009.923077,0.026189,0.001000,0.001000,0.001000,0.001000,0.001000
1009.942308,0.024927,0.001000,0.001000,0.001000,0.001000,0.001000
1009.961538,0.023643,0.001000,0.001000,0.001000,0.001000,0.001000
1009.980769,0.022339,0.001000,0.001000,0.001000,0.001000,0.001000
1010.000000,0.021016,0.001000,0.001000,0.001000,0.001000,0.001000
1010.019231,0.019674,0.001000,0.001000,0.001000,0.001000,0.001000
1010.038462,0.018315,0.001000,0.001000,0.001000,0.001000,0.001000
1010.057692,0.016941,0.001000,0.001000,0.001000,0.001000,0.001000
1010.076923,0.015552,0.001000,0.001000,0.001000,0.001000,0.001000
1010.096154,0.014150,0.001000,0.001000,0.001000,0.001000,0.001000
1010.115385,0.012735,0.001000,0.001000,0.001000,0.001000,0.001000
1010.134615,0.011310,0.001000,0.001000,0.001000,0.001000,0.001000
1010.153846,0.009875,0.001000,0.001000,0.001000,0.001000,0.001000
1010.173077,0.008431,0.001000,0.001000,0.001000,0.001000,0.001000
1010.192308,0.006980,0.001000,0.001000,0.001000,0.001000,0.001000
1010.211538,0.005523,0.001000,0.001000,0.001000,0.001000,0.001000
1010.230769,0.004061,0.001000,0.001000,0.001000,0.001000,0.001000
1010.250000,0.002595,0.001000,0.001000,0.001000,0.001000,0.001000
1010.269231,0.001128,0.001000,0.001000,0.001000,0.001000,0.001000
1010.288462,-0.000341,0.001000,0.001000,0.001000,0.001000,0.001000
1010.307692,-0.001809,0.001000,0.001000,0.001000,0.001000,0.001000
1010.326923,-0.003276,0.001000,0.001000,0.001000,0.001000,0.001000
1010.346154,-0.004740,0.001000,0.001000,0.001000,0.001000,0.001000
1010.365385,-0.006199,0.001000,0.001000,0.001000,0.001000,0.001000
1010.384615,-0.007654,0.001000,0.001000,0.001000,0.001000,0.001000
1010.403846,-0.009102,0.001000,0.001000,0.001000,0.001000,0.001000
1010.423077,-0.010542,0.001000,0.001000,0.001000,0.001000,0.001000
1010.442308,-0.011973,0.001000,0.001000,0.001000,0.001000,0.001000
1010.461538,-0.013393,0.001000,0.001000,0.001000,0.001000,0.001000
1010.480769,-0.014802,0.001000,0.001000,0.001000,0.001000,0.001000
1010.500000,-0.016198,0.001000,0.001000,0.001000,0.001000,0.001000
1010.519231,-0.017581,0.001000,0.001000,0.001000,0.001000,0.001000
1010.538462,-0.018948,0.001000,0.001000,0.001000,0.001000,0.001000
1010.557692,-0.020299,0.001000,0.001000,0.001000,0.001000,0.001000
1010.576923,-0.021632,0.001000,0.001000,0.001000,0.001000,0.001000
1010.596154,-0.022946,0.001000,0.001000,0.001000,0.001000,0.001000
1010.615385,-0.024241,0.001000,0.001000,0.001000,0.001000,0.001000
1010.634615,-0.025515,0.001000,0.001000,0.001000,0.001000,0.001000
1010.653846,-0.026767,0.001000,0.001000,0.001000,0.001000,0.001000
1010.673077,-0.027996,0.001000,0.001000,0.001000,0.001000,0.001000
1010.692308,-0.029200,0.001000,0.001000,0.001000,0.001000,0.001000
1010.711538,-0.030380,0.001000,0.001000,0.001000,0.001000,0.001000
1010.730769,-0.031533,0.001000,0.001000,0.001000,0.001000,0.001000
1010.750000,-0.032659,0.001000,0.001000,0.001000,0.001000,0.001000
1010.769231,-0.033757,0.001000,0.001000,0.001000,0.001000,0.001000
1010.788462,-0.034826,0.001000,0.001000,0.001000,0.001000,0.001000
1010.807692,-0.035864,0.001000,0.001000,0.001000,0.001000,0.001000
1010.826923,-0.036872,0.001000,0.001000,0.001000,0.001000,0.001000
1010.846154,-0.037848,0.001000,0.001000,0.001000,0.001000,0.001000
1010.865385,-0.038791,0.001000,0.001000,0.001000,0.001000,0.001000
1010.884615,-0.039701,0.001000,0.001000,0.001000,0.001000,0.001000
1010.903846,-0.040576,0.001000,0.001000,0.001000,0.001000,0.001000
1010.923077,-0.041417,0.001000,0.001000,0.001000,0.001000,0.001000
1010.942308,-0.042222,0.001000,0.001000,0.001000,0.001000,0.001000
1010.961538,-0.042990,0.001000,0.001000,0.001000,0.001000,0.001000
1010.980769,-0.043721,0.001000,0.001000,0.001000,0.001000,0.001000
1011.000000,-0.044415,0.001000,0.001000,0.001000,0.001000,0.001000
1011.019231,-0.045070,0.001000,0.001000,0.001000,0.001000,0.001000
1011.038462,-0.045687,0.001000,0.001000,0.001000,0.001000,0.001000
1011.057692,-0.046264,0.001000,0.001000,0.001000,0.001000,0.001000
1011.076923,-0.046801,0.001000,0.001000,0.001000,0.001000,0.001000
1011.096154,-0.047297,0.001000,0.001000,0.001000,0.001000,0.001000
1011.115385,-0.047753,0.001000,0.001000,0.001000,0.001000,0.001000
1011.134615,-0.048168,0.001000,0.001000,0.001000,0.001000,0.001000
1011.153846,-0.048541,0.001000,0.001000,0.001000,0.001000,0.001000
1011.173077,-0.048872,0.001000,0.001000,0.001000,0.001000,0.001000
1011.192308,-0.049161,0.001000,0.001000,0.001000,0.001000,0.001000
1011.211538,-0.049408,0.001000,0.001000,0.001000,0.001000,0.001000
1011.230769,-0.049612,0.001000,0.001000,0.001000,0.001000,0.001000
1011.250000,-0.049773,0.001000,0.001000,0.001000,0.001000,0.001000
1011.269231,-0.049891,0.001000,0.001000,0.001000,0.001000,0.001000
1011.288462,-0.049967,0.001000,0.001000,0.001000,0.001000,0.001000
1011.307692,-0.049999,0.001000,0.001000,0.001000,0.001000,0.001000
1011.326923,-0.049988,0.001000,0.001000,0.001000,0.001000,0.001000
1011.346154,-0.049934,0.001000,0.001000,0.001000,0.001000,0.001000
1011.365385,-0.049836,0.001000,0.001000,0.001000,0.001000,0.001000
1011.384615,-0.049696,0.001000,0.001000,0.001000,0.001000,0.001000
1011.403846,-0.049513,0.001000,0.001000,0.001000,0.001000,0.001000
1011.423077,-0.049287,0.001000,0.001000,0.001000,0.001000,0.001000
1011.442308,-0.049019,0.001000,0.001000,0.001000,0.001000,0.001000
1011.461538,-0.048708,0.001000,0.001000,0.001000,0.001000,0.001000
1011.480769,-0.048356,0.001000,0.001000,0.001000,0.001000,0.001000
1011.500000,-0.047961,0.001000,0.001000,0.001000,0.001000,0.001000
1011.519231,-0.047526,0.001000,0.001000,0.001000,0.001000,0.001000
1011.538462,-0.047049,0.001000,0.001000,0.001000,0.001000,0.001000
1011.557692,-0.046532,0.001000,0.001000,0.001000,0.001000,0.001000
1011.576923,-0.045974,0.001000,0.001000,0.001000,0.001000,0.001000
1011.596154,-0.045377,0.001000,0.001000,0.001000,0.001000,0.001000
1011.615385,-0.044741,0.001000,0.001000,0.001000,0.001000,0.001000
1011.634615,-0.044066,0.001000,0.001000,0.001000,0.001000,0.001000
1011.653846,-0.043353,0.001000,0.001000,0.001000,0.001000,0.001000
1011.673077,-0.042603,0.001000,0.001000,0.001000,0.001000,0.001000
1011.692308,-0.041816,0.001000,0.001000,0.001000,0.001000,0.001000
1011.711538,-0.040992,0.001000,0.001000,0.001000,0.001000,0.001000
1011.730769,-0.040134,0.001000,0.001000,0.001000,0.001000,0.001000
1011.750000,-0.039241,0.001000,0.001000,0.001000,0.001000,0.001000
1011.769231,-0.038314,0.001000,0.001000,0.001000,0.001000,0.001000
1011.788462,-0.037354,0.001000,0.001000,0.001000,0.001000,0.001000
1011.807692,-0.036362,0.001000,0.001000,0.001000,0.001000,0.001000
1011.826923,-0.035338,0.001000,0.001000,0.001000,0.001000,0.001000
1011.846154,-0.034284,0.001000,0.001000,0.001000,0.001000,0.001000
1011.865385,-0.033200,0.001000,0.001000,0.001000,0.001000,0.001000
1011.884615,-0.032088,0.001000,0.001000,0.001000,0.001000,0.001000
1011.903846,-0.030948,0.001000,0.001000,0.001000,0.001000,0.001000
1011.923077,-0.029781,0.001000,0.001000,0.001000,0.001000,0.001000
1011.942308,-0.028589,0.001000,0.001000,0.001000,0.001000,0.001000
1011.961538,-0.027372,0.001000,0.001000,0.001000,0.001000,0.001000
1011.980769,-0.026131,0.001000,0.001000,0.001000,0.001000,0.001000
1012.000000,-0.024868,0.001000,0.001000,0.001000,0.001000,0.001000
1012.019231,-0.023583,0.001000,0.001000,0.001000,0.001000,0.001000
1012.038462,-0.022278,0.001000,0.001000,0.001000,0.001000,0.001000
1012.057692,-0.020954,0.001000,0.001000,0.001000,0.001000,0.001000
1012.076923,-0.019611,0.001000,0.001000,0.001000,0.001000,0.001000
1012.096154,-0.018252,0.001000,0.001000,0.001000,0.001000,0.001000
1012.115385,-0.016877,0.001000,0.001000,0.001000,0.001000,0.001000
1012.134615,-0.015488,0.001000,0.001000,0.001000,0.001000,0.001000
1012.153846,-0.014085,0.001000,0.001000,0.001000,0.001000,0.001000
1012.173077,-0.012670,0.001000,0.001000,0.001000,0.001000,0.001000
1012.192308,-0.011244,0.001000,0.001000,0.001000,0.001000,0.001000
1012.211538,-0.009808,0.001000,0.001000,0.001000,0.001000,0.001000
1012.230769,-0.008364,0.001000,0.001000,0.001000,0.001000,0.001000
1012.250000,-0.006912,0.001000,0.001000,0.001000,0.001000,0.001000
1012.269231,-0.005455,0.001000,0.001000,0.001000,0.001000,0.001000
1012.288462,-0.003993,0.001000,0.001000,0.001000,0.001000,0.001000
1012.307692,-0.002527,0.001000,0.001000,0.001000,0.001000,0.001000
1012.326923,-0.001060,0.001000,0.001000,0.001000,0.001000,0.001000
1012.346154,0.000409,0.001000,0.001000,0.001000,0.001000,0.001000
1012.365385,0.001877,0.001000,0.001000,0.001000,0.001000,0.001000
1012.384615,0.003344,0.001000,0.001000,0.001000,0.001000,0.001000
1012.403846,0.004807,0.001000,0.001000,0.001000,0.001000,0.001000
1012.423077,0.006267,0.001000,0.001000,0.001000,0.001000,0.001000
1012.442308,0.007721,0.001000,0.001000,0.001000,0.001000,0.001000
1012.461538,0.009169,0.001000,0.001000,0.001000,0.001000,0.001000
1012.480769,0.010608,0.001000,0.001000,0.001000,0.001000,0.001000
1012.500000,0.012039,0.001000,0.001000,0.001000,0.001000,0.001000
1012.519231,0.013459,0.001000,0.001000,0.001000,0.001000,0.001000
1012.538462,0.014867,0.001000,0.001000,0.001000,0.001000,0.001000
1012.557692,0.016263,0.001000,0.001000,0.001000,0.001000,0.001000
1012.576923,0.017644,0.001000,0.001000,0.001000,0.001000,0.001000
1012.596154,0.019011,0.001000,0.001000,0.001000,0.001000,0.001000
1012.615385,0.020361,0.001000,0.001000,0.001000,0.001000,0.001000
1012.634615,0.021693,0.001000,0.001000,0.001000,0.001000,0.001000
1012.653846,0.023007,0.001000,0.001000,0.001000,0.001000,0.001000
1012.673077,0.024301,0.001000,0.001000,0.001000,0.001000,0.001000
1012.692308,0.025574,0.001000,0.001000,0.001000,0.001000,0.001000
1012.711538,0.026824,0.001000,0.001000,0.001000,0.001000,0.001000
1012.730769,0.028052,0.001000,0.001000,0.001000,0.001000,0.001000
1012.750000,0.029256,0.001000,0.001000,0.001000,0.001000,0.001000
1012.769231,0.030434,0.001000,0.001000,0.001000,0.001000,0.001000
1012.788462,0.031586,0.001000,0.001000,0.001000,0.001000,0.001000
1012.807692,0.032711,0.001000,0.001000,0.001000,0.001000,0.001000
1012.826923,0.033807,0.001000,0.001000,0.001000,0.001000,0.001000
1012.846154,0.034874,0.001000,0.001000,0.001000,0.001000,0.001000
1012.865385,0.035912,0.001000,0.001000,0.001000,0.001000,0.001000
1012.884615,0.036918,0.001000,0.001000,0.001000,0.001000,0.001000
1012.903846,0.037892,0.001000,0.001000,0.001000,0.001000,0.001000
1012.923077,0.038834,0.001000,0.001000,0.001000,0.001000,0.001000
1012.942308,0.039742,0.001000,0.001000,0.001000,0.001000,0.001000
1012.961538,0.040616,0.001000,0.001000,0.001000,0.001000,0.001000
1012.980769,0.041455,0.001000,0.001000,0.001000,0.001000,0.001000
1013.000000,0.042258,0.001000,0.001000,0.001000,0.001000,0.001000
1013.019231,0.043025,0.001000,0.001000,0.001000,0.001000,0.001000
1013.038462,0.043754,0.001000,0.001000,0.001000,0.001000,0.001000
1013.057692,0.044446,0.001000,0.001000,0.001000,0.001000,0.001000
1013.076923,0.045100,0.001000,0.001000,0.001000,0.001000,0.001000
1013.096154,0.045714,0.001000,0.001000,0.001000,0.001000,0.001000
1013.115385,0.046289,0.001000,0.001000,0.001000,0.001000,0.001000
1013.134615,0.046825,0.001000,0.001000,0.001000,0.001000,0.001000
1013.153846,0.047319,0.001000,0.001000,0.001000,0.001000,0.001000
1013.173077,0.047773,0.001000,0.001000,0.001000,0.001000,0.001000
1013.192308,0.048186,0.001000,0.001000,0.001000,0.001000,0.001000
1013.211538,0.048557,0.001000,0.001000,0.001000,0.001000,0.001000
1013.230769,0.048886,0.001000,0.001000,0.001000,0.001000,0.001000
1013.250000,0.049174,0.001000,0.001000,0.001000,0.001000,0.001000
1013.269231,0.049418,0.001000,0.001000,0.001000,0.001000,0.001000
1013.288462,0.049620,0.001000,0.001000,0.001000,0.001000,0.001000
1013.307692,0.049780,0.001000,0.001000,0.001000,0.001000,0.001000
1013.326923,0.049896,0.001000,0.001000,0.001000,0.001000,0.001000
1013.346154,0.049969,0.001000,0.001000,0.001000,0.001000,0.001000
1013.365385,0.049999,0.001000,0.001000,0.001000,0.001000,0.001000
1013.384615,0.049986,0.001000,0.001000,0.001000,0.001000,0.001000
1013.403846,0.049930,0.001000,0.001000,0.001000,0.001000,0.001000
1013.423077,0.049831,0.001000,0.001000,0.001000,0.001000,0.001000
1013.442308,0.049689,0.001000,0.001000,0.001000,0.001000,0.001000
1013.461538,0.049504,0.001000,0.001000,0.001000,0.001000,0.001000
1013.480769,0.049276,0.001000,0.001000,0.001000,0.001000,0.001000
1013.500000,0.049005,0.001000,0.001000,0.001000,0.001000,0.001000
1013.519231,0.048693,0.001000,0.001000,0.001000,0.001000,0.001000
1013.538462,0.048338,0.001000,0.001000,0.001000,0.001000,0.001000
1013.557692,0.047942,0.001000,0.001000,0.001000,0.001000,0.001000
1013.576923,0.047504,0.001000,0.001000,0.001000,0.001000,0.001000
1013.596154,0.047026,0.001000,0.001000,0.001000,0.001000,0.001000
1013.615385,0.046507,0.001000,0.001000,0.001000,0.001000,0.001000
1013.634615,0.045947,0.001000,0.001000,0.001000,0.001000,0.001000
1013.653846,0.045348,0.001000,0.001000,0.001000,0.001000,0.001000
1013.673077,0.044710,0.001000,0.001000,0.001000,0.001000,0.001000
1013.692308,0.044034,0.001000,0.001000,0.001000,0.001000,0.001000
1013.711538,0.043319,0.001000,0.001000,0.001000,0.001000,0.001000
1013.730769,0.042567,0.001000,0.001000,0.001000,0.001000,0.001000
1013.750000,0.041778,0.001000,0.001000,0.001000,0.001000,0.001000
1013.769231,0.040953,0.001000,0.001000,0.001000,0.001000,0.001000
1013.788462,0.040093,0.001000,0.001000,0.001000,0.001000,0.001000
1013.807692,0.039199,0.001000,0.001000,0.001000,0.001000,0.001000
1013.826923,0.038270,0.001000,0.001000,0.001000,0.001000,0.001000
1013.846154,0.037308,0.001000,0.001000,0.001000,0.001000,0.001000
1013.865385,0.036315,0.001000,0.001000,0.001000,0.001000,0.001000
1013.884615,0.035290,0.001000,0.001000,0.001000,0.001000,0.001000
1013.903846,0.034234,0.001000,0.001000,0.001000,0.001000,0.001000
1013.923077,0.033149,0.001000,0.001000,0.001000,0.001000,0.001000
1013.942308,0.032035,0.001000,0.001000,0.001000,0.001000,0.001000
1013.961538,0.030894,0.001000,0.001000,0.001000,0.001000,0.001000
1013.980769,0.029726,0.001000,0.001000,0.001000,0.001000,0.001000
1014.000000,0.028533,0.001000,0.001000,0.001000,0.001000,0.001000
1014.019231,0.027315,0.001000,0.001000,0.001000,0.001000,0.001000
1014.038462,0.026073,0.001000,0.001000,0.001000,0.001000,0.001000
1014.057692,0.024808,0.001000,0.001000,0.001000,0.001000,0.001000
1014.076923,0.023523,0.001000,0.001000,0.001000,0.001000,0.001000
1014.096154,0.022217,0.001000,0.001000,0.001000,0.001000,0.001000
1014.115385,0.020892,0.001000,0.001000,0.001000,0.001000,0.001000
1014.134615,0.019549,0.001000,0.001000,0.001000,0.001000,0.001000
1014.153846,0.018189,0.001000,0.001000,0.001000,0.001000,0.001000
1014.173077,0.016813,0.001000,0.001000,0.001000,0.001000,0.001000
1014.192308,0.015423,0.001000,0.001000,0.001000,0.001000,0.001000
1014.211538,0.014019,0.001000,0.001000,0.001000,0.001000,0.001000
1014.230769,0.012604,0.001000,0.001000,0.001000,0.001000,0.001000
1014.250000,0.011177,0.001000,0.001000,0.001000,0.001000,0.001000
1014.269231,0.009741,0.001000,0.001000,0.001000,0.001000,0.001000
1014.288462,0.008296,0.001000,0.001000,0.001000,0.001000,0.001000
1014.307692,0.006845,0.001000,0.001000,0.001000,0.001000,0.001000
1014.326923,0.005387,0.001000,0.001000,0.001000,0.001000,0.001000
1014.346154,0.003925,0.001000,0.001000,0.001000,0.001000,0.001000
1014.365385,0.002459,0.001000,0.001000,0.001000,0.001000,0.001000
1014.384615,0.000992,0.001000,0.001000,0.001000,0.001000,0.001000
1014.403846,-0.000477,0.001000,0.001000,0.001000,0.001000,0.001000
1014.423077,-0.001945,0.001000,0.001000,0.001000,0.001000,0.001000
1014.442308,-0.003412,0.001000,0.001000,0.001000,0.001000,0.001000
1014.461538,-0.004875,0.001000,0.001000,0.001000,0.001000,0.001000
1014.480769,-0.006335,0.001000,0.001000,0.001000,0.001000,0.001000
1014.500000,-0.007789,0.001000,0.001000,0.001000,0.001000,0.001000
1014.519231,-0.009236,0.001000,0.001000,0.001000,0.001000,0.001000
1014.538462,-0.010675,0.001000,0.001000,0.001000,0.001000,0.001000
1014.557692,-0.012105,0.001000,0.001000,0.001000,0.001000,0.001000
1014.576923,-0.013524,0.001000,0.001000,0.001000,0.001000,0.001000
1014.596154,-0.014932,0.001000,0.001000,0.001000,0.001000,0.001000
1014.615385,-0.016327,0.001000,0.001000,0.001000,0.001000,0.001000
1014.634615,-0.017708,0.001000,0.001000,0.001000,0.001000,0.001000
1014.653846,-0.019074,0.001000,0.001000,0.001000,0.001000,0.001000
1014.673077,-0.020423,0.001000,0.001000,0.001000,0.001000,0.001000
1014.692308,-0.021755,0.001000,0.001000,0.001000,0.001000,0.001000
1014.711538,-0.023067,0.001000,0.001000,0.001000,0.001000,0.001000
1014.730769,-0.024360,0.001000,0.001000,0.001000,0.001000,0.001000
1014.750000,-0.025632,0.001000,0.001000,0.001000,0.001000,0.001000
1014.769231,-0.026882,0.001000,0.001000,0.001000,0.001000,0.001000
1014.788462,-0.028109,0.001000,0.001000,0.001000,0.001000,0.001000
1014.807692,-0.029311,0.001000,0.001000,0.001000,0.001000,0.001000
1014.826923,-0.030488,0.001000,0.001000,0.001000,0.001000,0.001000
1014.846154,-0.031639,0.001000,0.001000,0.001000,0.001000,0.001000
1014.865385,-0.032762,0.001000,0.001000,0.001000,0.001000,0.001000
1014.884615,-0.033857,0.001000,0.001000,0.001000,0.001000,0.001000
1014.903846,-0.034923,0.001000,0.001000,0.001000,0.001000,0.001000
1014.923077,-0.035959,0.001000,0.001000,0.001000,0.001000,0.001000
1014.942308,-0.036964,0.001000,0.001000,0.001000,0.001000,0.001000
1014.961538,-0.037937,0.001000,0.001000,0.001000,0.001000,0.001000
1014.980769,-0.038877,0.001000,0.001000,0.001000,0.001000,0.001000
1015.000000,-0.039784,0.001000,0.001000,0.001000,0.001000,0.001000
1015.019231,-0.040656,0.001000,0.001000,0.001000,0.001000,0.001000
1015.038462,-0.041493,0.001000,0.001000,0.001000,0.001000,0.001000
1015.057692,-0.042295,0.001000,0.001000,0.001000,0.001000,0.001000
1015.076923,-0.043060,0.001000,0.001000,0.001000,0.001000,0.001000
1015.096154,-0.043787,0.001000,0.001000,0.001000,0.001000,0.001000
1015.115385,-0.044477,0.001000,0.001000,0.001000,0.001000,0.001000
1015.134615,-0.045129,0.001000,0.001000,0.001000,0.001000,0.001000
1015.153846,-0.045742,0.001000,0.001000,0.001000,0.001000,0.001000
1015.173077,-0.046315,0.001000,0.001000,0.001000,0.001000,0.001000
1015.192308,-0.046848,0.001000,0.001000,0.001000,0.001000,0.001000
1015.211538,-0.047341,0.001000,0.001000,0.001000,0.001000,0.001000
1015.230769,-0.047793,0.001000,0.001000,0.001000,0.001000,0.001000
1015.250000,-0.048204,0.001000,0.001000,0.001000,0.001000,0.001000
1015.269231,-0.048573,0.001000,0.001000,0.001000,0.001000,0.001000
1015.288462,-0.048901,0.001000,0.001000,0.001000,0.001000,0.001000
1015.307692,-0.049186,0.001000,0.001000,0.001000,0.001000,0.001000
1015.326923,-0.049429,0.001000,0.001000,0.001000,0.001000,0.001000
1015.346154,-0.049629,0.001000,0.001000,0.001000,0.001000,0.001000
1015.365385,-0.049786,0.001000,0.001000,0.001000,0.001000,0.001000
1015.384615,-0.049900,0.001000,0.001000,0.001000,0.001000,0.001000
1015.403846,-0.049971,0.001000,0.001000,0.001000,0.001000,0.001000
1015.423077,-0.050000,0.001000,0.001000,0.001000,0.001000,0.001000
1015.442308,-0.049984,0.001000,0.001000,0.001000,0.001000,0.001000
1015.461538,-0.049926,0.001000,0.001000,0.001000,0.001000,0.001000
1015.480769,-0.049825,0.001000,0.001000,0.001000,0.001000,0.001000
1015.500000,-0.049681,0.001000,0.001000,0.001000,0.001000,0.001000
1015.519231,-0.049494,0.001000,0.001000,0.001000,0.001000,0.001000
1015.538462,-0.049264,0.001000,0.001000,0.001000,0.001000,0.001000
1015.557692,-0.048992,0.001000,0.001000,0.001000,0.001000,0.001000
1015.576923,-0.048677,0.001000,0.001000,0.001000,0.001000,0.001000
1015.596154,-0.048321,0.001000,0.001000,0.001000,0.001000,0.001000
1015.615385,-0.047923,0.001000,0.001000,0.001000,0.001000,0.001000
1015.634615,-0.047483,0.001000,0.001000,0.001000,0.001000,0.001000
1015.653846,-0.047003,0.001000,0.001000,0.001000,0.001000,0.001000
1015.673077,-0.046481,0.001000,0.001000,0.001000,0.001000,0.001000
1015.692308,-0.045920,0.001000,0.001000,0.001000,0.001000,0.001000
1015.711538,-0.045320,0.001000,0.001000,0.001000,0.001000,0.001000
1015.730769,-0.044680,0.001000,0.001000,0.001000,0.001000,0.001000
1015.750000,-0.044001,0.001000,0.001000,0.001000,0.001000,0.001000
1015.769231,-0.043285,0.001000,0.001000,0.001000,0.001000,0.001000
1015.788462,-0.042531,0.001000,0.001000,0.001000,0.001000,0.001000
1015.807692,-0.041741,0.001000,0.001000,0.001000,0.001000,0.001000
1015.826923,-0.040914,0.001000,0.001000,0.001000,0.001000,0.001000
1015.846154,-0.040052,0.001000,0.001000,0.001000,0.001000,0.001000
1015.865385,-0.039156,0.001000,0.001000,0.001000,0.001000,0.001000
1015.884615,-0.038226,0.001000,0.001000,0.001000,0.001000,0.001000
1015.903846,-0.037263,0.001000,0.001000,0.001000,0.001000,0.001000
1015.923077,-0.036268,0.001000,0.001000,0.001000,0.001000,0.001000
1015.942308,-0.035241,0.001000,0.001000,0.001000,0.001000,0.001000
1015.961538,-0.034184,0.001000,0.001000,0.001000,0.001000,0.001000
1015.980769,-0.033098,0.001000,0.001000,0.001000,0.001000,0.001000
1016.000000,-0.031983,0.001000,0.001000,0.001000,0.001000,0.001000
1016.019231,-0.030841,0.001000,0.001000,0.001000,0.001000,0.001000
1016.038462,-0.029671,0.001000,0.001000,0.001000,0.001000,0.001000
1016.057692,-0.028477,0.001000,0.001000,0.001000,0.001000,0.001000
1016.076923,-0.027257,0.001000,0.001000,0.001000,0.001000,0.001000
1016.096154,-0.026015,0.001000,0.001000,0.001000,0.001000,0.001000
1016.115385,-0.024749,0.001000,0.001000,0.001000,0.001000,0.001000
1016.134615,-0.023463,0.001000,0.001000,0.001000,0.001000,0.001000
1016.153846,-0.022156,0.001000,0.001000,0.001000,0.001000,0.001000
1016.173077,-0.020830,0.001000,0.001000,0.001000,0.001000,0.001000
1016.192308,-0.019486,0.001000,0.001000,0.001000,0.001000,0.001000
1016.211538,-0.018125,0.001000,0.001000,0.001000,0.001000,0.001000
1016.230769,-0.016749,0.001000,0.001000,0.001000,0.001000,0.001000
1016.250000,-0.015358,0.001000,0.001000,0.001000,0.001000,0.001000
1016.269231,-0.013954,0.001000,0.001000,0.001000,0.001000,0.001000
1016.288462,-0.012538,0.001000,0.001000,0.001000,0.001000,0.001000
1016.307692,-0.011111,0.001000,0.001000,0.001000,0.001000,0.001000
1016.326923,-0.009674,0.001000,0.001000,0.001000,0.001000,0.001000
1016.346154,-0.008229,0.001000,0.001000,0.001000,0.001000,0.001000
1016.365385,-0.006777,0.001000,0.001000,0.001000,0.001000,0.001000
1016.384615,-0.005319,0.001000,0.001000,0.001000,0.001000,0.001000
1016.403846,-0.003857,0.001000,0.001000,0.001000,0.001000,0.001000
1016.423077,-0.002391,0.001000,0.001000,0.001000,0.001000,0.001000
1016.442308,-0.000923,0.001000,0.001000,0.001000,0.001000,0.001000
1016.461538,0.000545,0.001000,0.001000,0.001000,0.001000,0.001000
1016.480769,0.002013,0.001000,0.001000,0.001000,0.001000,0.001000
1016.500000,0.003480,0.001000,0.001000,0.001000,0.001000,0.001000
1016.519231,0.004943,0.001000,0.001000,0.001000,0.001000,0.001000
1016.538462,0.006402,0.001000,0.001000,0.001000,0.001000,0.001000
1016.557692,0.007856,0.001000,0.001000,0.001000,0.001000,0.001000
1016.576923,0.009303,0.001000,0.001000,0.001000,0.001000,0.001000
1016.596154,0.010741,0.001000,0.001000,0.001000,0.001000,0.001000
1016.615385,0.012171,0.001000,0.001000,0.001000,0.001000,0.001000
1016.634615,0.013590,0.001000,0.001000,0.001000,0.001000,0.001000
1016.653846,0.014997,0.001000,0.001000,0.001000,0.001000,0.001000
1016.673077,0.016392,0.001000,0.001000,0.001000,0.001000,0.001000
1016.692308,0.017772,0.001000,0.001000,0.001000,0.001000,0.001000
1016.711538,0.019137,0.001000,0.001000,0.001000,0.001000,0.001000
1016.730769,0.020485,0.001000,0.001000,0.001000,0.001000,0.001000
1016.750000,0.021816,0.001000,0.001000,0.001000,0.001000,0.001000
1016.769231,0.023128,0.001000,0.001000,0.001000,0.001000,0.001000
1016.788462,0.024420,0.001000,0.001000,0.001000,0.001000,0.001000
1016.807692,0.025691,0.001000,0.001000,0.001000,0.001000,0.001000
1016.826923,0.026939,0.001000,0.001000,0.001000,0.001000,0.001000
1016.846154,0.028165,0.001000,0.001000,0.001000,0.001000,0.001000
1016.865385,0.029366,0.001000,0.001000,0.001000,0.001000,0.001000
1016.884615,0.030542,0.001000,0.001000,0.001000,0.001000,0.001000
1016.903846,0.031691,0.001000,0.001000,0.001000,0.001000,0.001000
1016.923077,0.032814,0.001000,0.001000,0.001000,0.001000,0.001000
1016.942308,0.033907,0.001000,0.001000,0.001000,0.001000,0.001000
1016.961538,0.034972,0.001000,0.001000,0.001000,0.001000,0.001000
1016.980769,0.036006,0.001000,0.001000,0.001000,0.001000,0.001000
1017.000000,0.037010,0.001000,0.001000,0.001000,0.001000,0.001000
1017.019231,0.037981,0.001000,0.001000,0.001000,0.001000,0.001000
1017.038462,0.038920,0.001000,0.001000,0.001000,0.001000,0.001000
1017.057692,0.039825,0.001000,0.001000,0.001000,0.001000,0.001000
1017.076923,0.040696,0.001000,0.001000,0.001000,0.001000,0.001000
1017.096154,0.041531,0.001000,0.001000,0.001000,0.001000,0.001000
1017.115385,0.042331,0.001000,0.001000,0.001000,0.001000,0.001000
1017.134615,0.043094,0.001000,0.001000,0.001000,0.001000,0.001000
1017.153846,0.043820,0.001000,0.001000,0.001000,0.001000,0.001000
1017.173077,0.044509,0.001000,0.001000,0.001000,0.001000,0.001000
1017.192308,0.045158,0.001000,0.001000,0.001000,0.001000,0.001000
1017.211538,0.045769,0.001000,0.001000,0.001000,0.001000,0.001000
1017.230769,0.046341,0.001000,0.001000,0.001000,0.001000,0.001000
1017.250000,0.046872,0.001000,0.001000,0.001000,0.001000,0.001000
1017.269231,0.047363,0.001000,0.001000,0.001000,0.001000,0.001000
1017.288462,0.047813,0.001000,0.001000,0.001000,0.001000,0.001000
1017.307692,0.048222,0.001000,0.001000,0.001000,0.001000,0.001000
1017.326923,0.048590,0.001000,0.001000,0.001000,0.001000,0.001000
1017.346154,0.048915,0.001000,0.001000,0.001000,0.001000,0.001000
1017.365385,0.049198,0.001000,0.001000,0.001000,0.001000,0.001000
1017.384615,0.049439,0.001000,0.001000,0.001000,0.001000,0.001000
1017.403846,0.049637,0.001000,0.001000,0.001000,0.001000,0.001000
1017.423077,0.049792,0.001000,0.001000,0.001000,0.001000,0.001000
1017.442308,0.049904,0.001000,0.001000,0.001000,0.001000,0.001000
1017.461538,0.049974,0.001000,0.001000,0.001000,0.001000,0.001000
1017.480769,0.050000,0.001000,0.001000,0.001000,0.001000,0.001000
1017.500000,0.049983,0.001000,0.001000,0.001000,0.001000,0.001000
1017.519231,0.049923,0.001000,0.001000,0.001000,0.001000,0.001000
1017.538462,0.049819,0.001000,0.001000,0.001000,0.001000,0.001000
1017.557692,0.049673,0.001000,0.001000,0.001000,0.001000,0.001000
1017.576923,0.049484,0.001000,0.001000,0.001000,0.001000,0.001000
1017.596154,0.049252,0.001000,0.001000,0.001000,0.001000,0.001000
1017.615385,0.048978,0.001000,0.001000,0.001000,0.001000,0.001000
1017.634615,0.048662,0.001000,0.001000,0.001000,0.001000,0.001000
1017.653846,0.048303,0.001000,0.001000,0.001000,0.001000,0.001000
1017.673077,0.047903,0.001000,0.001000,0.001000,0.001000,0.001000
1017.692308,0.047462,0.001000,0.001000,0.001000,0.001000,0.001000
1017.711538,0.046979,0.001000,0.001000,0.001000,0.001000,0.001000
1017.730769,0.046456,0.001000,0.001000,0.001000,0.001000,0.001000
1017.750000,0.045893,0.001000,0.001000,0.001000,0.001000,0.001000
1017.769231,0.045291,0.001000,0.001000,0.001000,0.001000,0.001000
1017.788462,0.044649,0.001000,0.001000,0.001000,0.001000,0.001000
1017.807692,0.043969,0.001000,0.001000,0.001000,0.001000,0.001000
1017.826923,0.043251,0.001000,0.001000,0.001000,0.001000,0.001000
1017.846154,0.042495,0.001000,0.001000,0.001000,0.001000,0.001000
1017.865385,0.041703,0.001000,0.001000,0.001000,0.001000,0.001000
1017.884615,0.040875,0.001000,0.001000,0.001000,0.001000,0.001000
1017.903846,0.040012,0.001000,0.001000,0.001000,0.001000,0.001000
1017.923077,0.039114,0.001000,0.001000,0.001000,0.001000,0.001000
1017.942308,0.038182,0.001000,0.001000,0.001000,0.001000,0.001000
1017.961538,0.037218,0.001000,0.001000,0.001000,0.001000,0.001000
1017.980769,0.036221,0.001000,0.001000,0.001000,0.001000,0.001000
1018.000000,0.035193,0.001000,0.001000,0.001000,0.001000,0.001000
1018.019231,0.034135,0.001000,0.001000,0.001000,0.001000,0.001000
1018.038462,0.033047,0.001000,0.001000,0.001000,0.001000,0.001000
1018.057692,0.031931,0.001000,0.001000,0.001000,0.001000,0.001000
1018.076923,0.030787,0.001000,0.001000,0.001000,0.001000,0.001000
1018.096154,0.029617,0.001000,0.001000,0.001000,0.001000,0.001000
1018.115385,0.028421,0.001000,0.001000,0.001000,0.001000,0.001000
1018.134615,0.027200,0.001000,0.001000,0.001000,0.001000,0.001000
1018.153846,0.025956,0.001000,0.001000,0.001000,0.001000,0.001000
1018.173077,0.024690,0.001000,0.001000,0.001000,0.001000,0.001000
1018.192308,0.023402,0.001000,0.001000,0.001000,0.001000,0.001000
1018.211538,0.022095,0.001000,0.001000,0.001000,0.001000,0.001000
1018.230769,0.020768,0.001000,0.001000,0.001000,0.001000,0.001000
1018.250000,0.019423,0.001000,0.001000,0.001000,0.001000,0.001000
1018.269231,0.018062,0.001000,0.001000,0.001000,0.001000,0.001000
1018.288462,0.016685,0.001000,0.001000,0.001000,0.001000,0.001000
1018.307692,0.015293,0.001000,0.001000,0.001000,0.001000,0.001000
1018.326923,0.013888,0.001000,0.001000,0.001000,0.001000,0.001000
1018.346154,0.012472,0.001000,0.001000,0.001000,0.001000,0.001000
1018.365385,0.011044,0.001000,0.001000,0.001000,0.001000,0.001000
1018.384615,0.009607,0.001000,0.001000,0.001000,0.001000,0.001000
1018.403846,0.008162,0.001000,0.001000,0.001000,0.001000,0.001000
1018.423077,0.006710,0.001000,0.001000,0.001000,0.001000,0.001000
1018.442308,0.005252,0.001000,0.001000,0.001000,0.001000,0.001000
1018.461538,0.003789,0.001000,0.001000,0.001000,0.001000,0.001000
1018.480769,0.002323,0.001000,0.001000,0.001000,0.001000,0.001000
1018.500000,0.000855,0.001000,0.001000,0.001000,0.001000,0.001000
1018.519231,-0.000613,0.001000,0.001000,0.001000,0.001000,0.001000
1018.538462,-0.002081,0.001000,0.001000,0.001000,0.001000,0.001000
1018.557692,-0.003548,0.001000,0.001000,0.001000,0.001000,0.001000
1018.576923,-0.005011,0.001000,0.001000,0.001000,0.001000,0.001000
1018.596154,-0.006470,0.001000,0.001000,0.001000,0.001000,0.001000
1018.615385,-0.007923,0.001000,0.001000,0.001000,0.001000,0.001000
1018.634615,-0.009370,0.001000,0.001000,0.001000,0.001000,0.001000
1018.653846,-0.010808,0.001000,0.001000,0.001000,0.001000,0.001000
1018.673077,-0.012237,0.001000,0.001000,0.001000,0.001000,0.001000
1018.692308,-0.013656,0.001000,0.001000,0.001000,0.001000,0.001000
1018.711538,-0.015062,0.001000,0.001000,0.001000,0.001000,0.001000
1018.730769,-0.016456,0.001000,0.001000,0.001000,0.001000,0.001000
1018.750000,-0.017836,0.001000,0.001000,0.001000,0.001000,0.001000
1018.769231,-0.019200,0.001000,0.001000,0.001000,0.001000,0.001000
1018.788462,-0.020547,0.001000,0.001000,0.001000,0.001000,0.001000
1018.807692,-0.021877,0.001000,0.001000,0.001000,0.001000,0.001000
1018.826923,-0.023188,0.001000,0.001000,0.001000,0.001000,0.001000
1018.846154,-0.024479,0.001000,0.001000,0.001000,0.001000,0.001000
1018.865385,-0.025749,0.001000,0.001000,0.001000,0.001000,0.001000
1018.884615,-0.026997,0.001000,0.001000,0.001000,0.001000,0.001000
1018.903846,-0.028221,0.001000,0.001000,0.001000,0.001000,0.001000
1018.923077,-0.029421,0.001000,0.001000,0.001000,0.001000,0.001000
1018.942308,-0.030596,0.001000,0.001000,0.001000,0.001000,0.001000
1018.961538,-0.031744,0.001000,0.001000,0.001000,0.001000,0.001000
1018.980769,-0.032865,0.001000,0.001000,0.001000,0.001000,0.001000
1019.000000,-0.033957,0.001000,0.001000,0.001000,0.001000,0.001000
1019.019231,-0.035021,0.001000,0.001000,0.001000,0.001000,0.001000
1019.038462,-0.036054,0.001000,0.001000,0.001000,0.001000,0.001000
1019.057692,-0.037055,0.001000,0.001000,0.001000,0.001000,0.001000
1019.076923,-0.038025,0.001000,0.001000,0.001000,0.001000,0.001000
1019.096154,-0.038962,0.001000,0.001000,0.001000,0.001000,0.001000
1019.115385,-0.039866,0.001000,0.001000,0.001000,0.001000,0.001000
1019.134615,-0.040735,0.001000,0.001000,0.001000,0.001000,0.001000
1019.153846,-0.041569,0.001000,0.001000,0.001000,0.001000,0.001000
1019.173077,-0.042367,0.001000,0.001000,0.001000,0.001000,0.001000
1019.192308,-0.043129,0.001000,0.001000,0.001000,0.001000,0.001000
1019.211538,-0.043853,0.001000,0.001000,0.001000,0.001000,0.001000
1019.230769,-0.044540,0.001000,0.001000,0.001000,0.001000,0.001000
1019.250000,-0.045188,0.001000,0.001000,0.001000,0.001000,0.001000
1019.269231,-0.045797,0.001000,0.001000,0.001000,0.001000,0.001000
1019.288462,-0.046366,0.001000,0.001000,0.001000,0.001000,0.001000
1019.307692,-0.046896,0.001000,0.001000,0.001000,0.001000,0.001000
1019.326923,-0.047385,0.001000,0.001000,0.001000,0.001000,0.001000
1019.346154,-0.047833,0.001000,0.001000,0.001000,0.001000,0.001000
1019.365385,-0.048240,0.001000,0.001000,0.001000,0.001000,0.001000
1019.384615,-0.048606,0.001000,0.001000,0.001000,0.001000,0.001000
1019.403846,-0.048929,0.001000,0.001000,0.001000,0.001000,0.001000
1019.423077,-0.049210,0.001000,0.001000,0.001000,0.001000,0.001000
1019.442308,-0.049449,0.001000,0.001000,0.001000,0.001000,0.001000
1019.461538,-0.049645,0.001000,0.001000,0.001000,0.001000,0.001000
1019.480769,-0.049798,0.001000,0.001000,0.001000,0.001000,0.001000
1019.500000,-0.049909,0.001000,0.001000,0.001000,0.001000,0.001000
1019.519231,-0.049976,0.001000,0.001000,0.001000,0.001000,0.001000
1019.538462,-0.050000,0.001000,0.001000,0.001000,0.001000,0.001000
1019.557692,-0.049981,0.001000,0.001000,0.001000,0.001000,0.001000
1019.576923,-0.049919,0.001000,0.001000,0.001000,0.001000,0.001000
1019.596154,-0.049814,0.001000,0.001000,0.001000,0.001000,0.001000
1019.615385,-0.049665,0.001000,0.001000,0.001000,0.001000,0.001000
1019.634615,-0.049474,0.001000,0.001000,0.001000,0.001000,0.001000
1019.653846,-0.049241,0.001000,0.001000,0.001000,0.001000,0.001000
1019.673077,-0.048964,0.001000,0.001000,0.001000,0.001000,0.001000
1019.692308,-0.048646,0.001000,0.001000,0.001000,0.001000,0.001000
1019.711538,-0.048286,0.001000,0.001000,0.001000,0.001000,0.001000
1019.730769,-0.047884,0.001000,0.001000,0.001000,0.001000,0.001000
1019.750000,-0.047440,0.001000,0.001000,0.001000,0.001000,0.001000
1019.769231,-0.046956,0.001000,0.001000,0.001000,0.001000,0.001000
1019.788462,-0.046431,0.001000,0.001000,0.001000,0.001000,0.001000
1019.807692,-0.045866,0.001000,0.001000,0.001000,0.001000,0.001000
1019.826923,-0.045262,0.001000,0.001000,0.001000,0.001000,0.001000
1019.846154,-0.044618,0.001000,0.001000,0.001000,0.001000,0.001000
1019.865385,-0.043936,0.001000,0.001000,0.001000,0.001000,0.001000
1019.884615,-0.043216,0.001000,0.001000,0.001000,0.001000,0.001000
1019.903846,-0.042459,0.001000,0.001000,0.001000,0.001000,0.001000
1019.923077,-0.041665,0.001000,0.001000,0.001000,0.001000,0.001000
1019.942308,-0.040836,0.001000,0.001000,0.001000,0.001000,0.001000
1019.961538,-0.039971,0.001000,0.001000,0.001000,0.001000,0.001000
1019.980769,-0.039071,0.001000,0.001000,0.001000,0.001000,0.001000
1020.000000,-0.038138,0.001000,0.001000,0.001000,0.001000,0.001000
1020.019231,-0.037172,0.001000,0.001000,0.001000,0.001000,0.001000
1020.038462,-0.036174,0.001000,0.001000,0.001000,0.001000,0.001000
1020.057692,-0.035145,0.001000,0.001000,0.001000,0.001000,0.001000
1020.076923,-0.034085,0.001000,0.001000,0.001000,0.001000,0.001000
1020.096154,-0.032996,0.001000,0.001000,0.001000,0.001000,0.001000
1020.115385,-0.031878,0.001000,0.001000,0.001000,0.001000,0.001000
1020.134615,-0.030733,0.001000,0.001000,0.001000,0.001000,0.001000
1020.153846,-0.029562,0.001000,0.001000,0.001000,0.001000,0.001000
1020.173077,-0.028365,0.001000,0.001000,0.001000,0.001000,0.001000
1020.192308,-0.027143,0.001000,0.001000,0.001000,0.001000,0.001000
1020.211538,-0.025898,0.001000,0.001000,0.001000,0.001000,0.001000
1020.230769,-0.024631,0.001000,0.001000,0.001000,0.001000,0.001000
1020.250000,-0.023342,0.001000,0.001000,0.001000,0.001000,0.001000
1020.269231,-0.022034,0.001000,0.001000,0.001000,0.001000,0.001000
1020.288462,-0.020706,0.001000,0.001000,0.001000,0.001000,0.001000
1020.307692,-0.019360,0.001000,0.001000,0.001000,0.001000,0.001000
1020.326923,-0.017998,0.001000,0.001000,0.001000,0.001000,0.001000
1020.346154,-0.016620,0.001000,0.001000,0.001000,0.001000,0.001000
1020.365385,-0.015228,0.001000,0.001000,0.001000,0.001000,0.001000
1020.384615,-0.013823,0.001000,0.001000,0.001000,0.001000,0.001000
1020.403846,-0.012406,0.001000,0.001000,0.001000,0.001000,0.001000
1020.423077,-0.010978,0.001000,0.001000,0.001000,0.001000,0.001000
1020.442308,-0.009540,0.001000,0.001000,0.001000,0.001000,0.001000
1020.461538,-0.008095,0.001000,0.001000,0.001000,0.001000,0.001000
1020.480769,-0.006642,0.001000,0.001000,0.001000,0.001000,0.001000
1020.500000,-0.005184,0.001000,0.001000,0.001000,0.001000,0.001000
1020.519231,-0.003721,0.001000,0.001000,0.001000,0.001000,0.001000
1020.538462,-0.002255,0.001000,0.001000,0.001000,0.001000,0.001000
1020.557692,-0.000787,0.001000,0.001000,0.001000,0.001000,0.001000
1020.576923,0.000681,0.001000,0.001000,0.001000,0.001000,0.001000
1020.596154,0.002149,0.001000,0.001000,0.001000,0.001000,0.001000
1020.615385,0.003616,0.001000,0.001000,0.001000,0.001000,0.001000
1020.634615,0.005079,0.001000,0.001000,0.001000,0.001000,0.001000
1020.653846,0.006537,0.001000,0.001000,0.001000,0.001000,0.001000
1020.673077,0.007990,0.001000,0.001000,0.001000,0.001000,0.001000
1020.692308,0.009437,0.001000,0.001000,0.001000,0.001000,0.001000
1020.711538,0.010875,0.001000,0.001000,0.001000,0.001000,0.001000
1020.730769,0.012303,0.001000,0.001000,0.001000,0.001000,0.001000
1020.750000,0.013721,0.001000,0.001000,0.001000,0.001000,0.001000
1020.769231,0.015127,0.001000,0.001000,0.001000,0.001000,0.001000
1020.788462,0.016520,0.001000,0.001000,0.001000,0.001000,0.001000
1020.807692,0.017899,0.001000,0.001000,0.001000,0.001000,0.001000
1020.826923,0.019263,0.001000,0.001000,0.001000,0.001000,0.001000
1020.846154,0.020609,0.001000,0.001000,0.001000,0.001000,0.001000
1020.865385,0.021939,0.001000,0.001000,0.001000,0.001000,0.001000
1020.884615,0.023249,0.001000,0.001000,0.001000,0.001000,0.001000
1020.903846,0.024539,0.001000,0.001000,0.001000,0.001000,0.001000
1020.923077,0.025808,0.001000,0.001000,0.001000,0.001000,0.001000
1020.942308,0.027054,0.001000,0.001000,0.001000,0.001000,0.001000
1020.961538,0.028277,0.001000,0.001000,0.001000,0.001000,0.001000
1020.980769,0.029476,0.001000,0.001000,0.001000,0.001000,0.001000
1021.000000,0.030650,0.001000,0.001000,0.001000,0.001000,0.001000
1021.019231,0.031797,0.001000,0.001000,0.001000,0.001000,0.001000
1021.038462,0.032916,0.001000,0.001000,0.001000,0.001000,0.001000
1021.057692,0.034007,0.001000,0.001000,0.001000,0.001000,0.001000
1021.076923,0.035069,0.001000,0.001000,0.001000,0.001000,0.001000
1021.096154,0.036101,0.001000,0.001000,0.001000,0.001000,0.001000
1021.115385,0.037101,0.001000,0.001000,0.001000,0.001000,0.001000
1021.134615,0.038070,0.001000,0.001000,0.001000,0.001000,0.001000
1021.153846,0.039005,0.001000,0.001000,0.001000,0.001000,0.001000
1021.173077,0.039907,0.001000,0.001000,0.001000,0.001000,0.001000
1021.192308,0.040775,0.001000,0.001000,0.001000,0.001000,0.001000
1021.211538,0.041607,0.001000,0.001000,0.001000,0.001000,0.001000
1021.230769,0.042403,0.001000,0.001000,0.001000,0.001000,0.001000
1021.250000,0.043163,0.001000,0.001000,0.001000,0.001000,0.001000
1021.269231,0.043886,0.001000,0.001000,0.001000,0.001000,0.001000
1021.288462,0.044570,0.001000,0.001000,0.001000,0.001000,0.001000
1021.307692,0.045217,0.001000,0.001000,0.001000,0.001000,0.001000
1021.326923,0.045824,0.001000,0.001000,0.001000,0.001000,0.001000
1021.346154,0.046392,0.001000,0.001000,0.001000,0.001000,0.001000
1021.365385,0.046919,0.001000,0.001000,0.001000,0.001000,0.001000
1021.384615,0.047407,0.001000,0.001000,0.001000,0.001000,0.001000
1021.403846,0.047853,0.001000,0.001000,0.001000,0.001000,0.001000
1021.423077,0.048258,0.001000,0.001000,0.001000,0.001000,0.001000
1021.442308,0.048621,0.001000,0.001000,0.001000,0.001000,0.001000
1021.461538,0.048943,0.001000,0.001000,0.001000,0.001000,0.001000
1021.480769,0.049222,0.001000,0.001000,0.001000,0.001000,0.001000
1021.500000,0.049459,0.001000,0.001000,0.001000,0.001000,0.001000
1021.519231,0.049653,0.001000,0.001000,0.001000,0.001000,0.001000
1021.538462,0.049804,0.001000,0.001000,0.001000,0.001000,0.001000
1021.557692,0.049913,0.001000,0.001000,0.001000,0.001000,0.001000
1021.576923,0.049978,0.001000,0.001000,0.001000,0.001000,0.001000
1021.596154,0.050000,0.001000,0.001000,0.001000,0.001000,0.001000
1021.615385,0.049979,0.001000,0.001000,0.001000,0.001000,0.001000
1021.634615,0.049915,0.001000,0.001000,0.001000,0.001000,0.001000
1021.653846,0.049808,0.001000,0.001000,0.001000,0.001000,0.001000
1021.673077,0.049657,0.001000,0.001000,0.001000,0.001000,0.001000
1021.692308,0.049464,0.001000,0.001000,0.001000,0.001000,0.001000
1021.711538,0.049229,0.001000,0.001000,0.001000,0.001000,0.001000
1021.730769,0.048951,0.001000,0.001000,0.001000,0.001000,0.001000
1021.750000,0.048630,0.001000,0.001000,0.001000,0.001000,0.001000
1021.769231,0.048268,0.001000,0.001000,0.001000,0.001000,0.001000
1021.788462,0.047864,0.001000,0.001000,0.001000,0.001000,0.001000
1021.807692,0.047419,0.001000,0.001000,0.001000,0.001000,0.001000
1021.826923,0.046932,0.001000,0.001000,0.001000,0.001000,0.001000
1021.846154,0.046406,0.001000,0.001000,0.001000,0.001000,0.001000
1021.865385,0.045839,0.001000,0.001000,0.001000,0.001000,0.001000
1021.884615,0.045233,0.001000,0.001000,0.001000,0.001000,0.001000
1021.903846,0.044588,0.001000,0.001000,0.001000,0.001000,0.001000
1021.923077,0.043904,0.001000,0.001000,0.001000,0.001000,0.001000
1021.942308,0.043182,0.001000,0.001000,0.001000,0.001000,0.001000
1021.961538,0.042423,0.001000,0.001000,0.001000,0.001000,0.001000
1021.980769,0.041628,0.001000,0.001000,0.001000,0.001000,0.001000
1022.000000,0.040796,0.001000,0.001000,0.001000,0.001000,0.001000
1022.019231,0.039930,0.001000,0.001000,0.001000,0.001000,0.001000
1022.038462,0.039029,0.001000,0.001000,0.001000,0.001000,0.001000
1022.057692,0.038094,0.001000,0.001000,0.001000,0.001000,0.001000
1022.076923,0.037126,0.001000,0.001000,0.001000,0.001000,0.001000
1022.096154,0.036127,0.001000,0.001000,0.001000,0.001000,0.001000
1022.115385,0.035096,0.001000,0.001000,0.001000,0.001000,0.001000
1022.134615,0.034035,0.001000,0.001000,0.001000,0.001000,0.001000
1022.153846,0.032945,0.001000,0.001000,0.001000,0.001000,0.001000
1022.173077,0.031826,0.001000,0.001000,0.001000,0.001000,0.001000
1022.192308,0.030679,0.001000,0.001000,0.001000,0.001000,0.001000
1022.211538,0.029507,0.001000,0.001000,0.001000,0.001000,0.001000
1022.230769,0.028308,0.001000,0.001000,0.001000,0.001000,0.001000
1022.250000,0.027086,0.001000,0.001000,0.001000,0.001000,0.001000
1022.269231,0.025840,0.001000,0.001000,0.001000,0.001000,0.001000
1022.288462,0.024571,0.001000,0.001000,0.001000,0.001000,0.001000
1022.307692,0.023282,0.001000,0.001000,0.001000,0.001000,0.001000
1022.326923,0.021972,0.001000,0.001000,0.001000,0.001000,0.001000
1022.346154,0.020644,0.001000,0.001000,0.001000,0.001000,0.001000
1022.365385,0.019297,0.001000,0.001000,0.001000,0.001000,0.001000
1022.384615,0.017934,0.001000,0.001000,0.001000,0.001000,0.001000
1022.403846,0.016556,0.001000,0.001000,0.001000,0.001000,0.001000
1022.423077,0.015163,0.001000,0.001000,0.001000,0.001000,0.001000
1022.442308,0.013757,0.001000,0.001000,0.001000,0.001000,0.001000
1022.461538,0.012340,0.001000,0.001000,0.001000,0.001000,0.001000
1022.480769,0.010911,0.001000,0.001000,0.001000,0.001000,0.001000
1022.500000,0.009474,0.001000,0.001000,0.001000,0.001000,0.001000
1022.519231,0.008028,0.001000,0.001000,0.001000,0.001000,0.001000
1022.538462,0.006575,0.001000,0.001000,0.001000,0.001000,0.001000
1022.557692,0.005116,0.001000,0.001000,0.001000,0.001000,0.001000
1022.576923,0.003653,0.001000,0.001000,0.001000,0.001000,0.001000
1022.596154,0.002187,0.001000,0.001000,0.001000,0.001000,0.001000
1022.615385,0.000719,0.001000,0.001000,0.001000,0.001000,0.001000
1022.634615,-0.000750,0.001000,0.001000,0.001000,0.001000,0.001000
1022.653846,-0.002218,0.001000,0.001000,0.001000,0.001000,0.001000
1022.673077,-0.003684,0.001000,0.001000,0.001000,0.001000,0.001000
1022.692308,-0.005146,0.001000,0.001000,0.001000,0.001000,0.001000
1022.711538,-0.006605,0.001000,0.001000,0.001000,0.001000,0.001000
1022.730769,-0.008058,0.001000,0.001000,0.001000,0.001000,0.001000
1022.750000,-0.009503,0.001000,0.001000,0.001000,0.001000,0.001000
1022.769231,-0.010941,0.001000,0.001000,0.001000,0.001000,0.001000
1022.788462,-0.012369,0.001000,0.001000,0.001000,0.001000,0.001000
1022.807692,-0.013787,0.001000,0.001000,0.001000,0.001000,0.001000
1022.826923,-0.015192,0.001000,0.001000,0.001000,0.001000,0.001000
1022.846154,-0.016585,0.001000,0.001000,0.001000,0.001000,0.001000
1022.865385,-0.017963,0.001000,0.001000,0.001000,0.001000,0.001000
1022.884615,-0.019326,0.001000,0.001000,0.001000,0.001000,0.001000
1022.903846,-0.020672,0.001000,0.001000,0.001000,0.001000,0.001000
1022.923077,-0.022000,0.001000,0.001000,0.001000,0.001000,0.001000
1022.942308,-0.023309,0.001000,0.001000,0.001000,0.001000,0.001000
1022.961538,-0.024598,0.001000,0.001000,0.001000,0.001000,0.001000
1022.980769,-0.025866,0.001000,0.001000,0.001000,0.001000,0.001000
1023.000000,-0.027111,0.001000,0.001000,0.001000,0.001000,0.001000
1023.019231,-0.028334,0.001000,0.001000,0.001000,0.001000,0.001000
1023.038462,-0.029531,0.001000,0.001000,0.001000,0.001000,0.001000
1023.057692,-0.030703,0.001000,0.001000,0.001000,0.001000,0.001000
1023.076923,-0.031849,0.001000,0.001000,0.001000,0.001000,0.001000
1023.096154,-0.032967,0.001000,0.001000,0.001000,0.001000,0.001000
1023.115385,-0.034057,0.001000,0.001000,0.001000,0.001000,0.001000
1023.134615,-0.035118,0.001000,0.001000,0.001000,0.001000,0.001000
1023.153846,-0.036148,0.001000,0.001000,0.001000,0.001000,0.001000
1023.173077,-0.037147,0.001000,0.001000,0.001000,0.001000,0.001000
1023.192308,-0.038114,0.001000,0.001000,0.001000,0.001000,0.001000
1023.211538,-0.039048,0.001000,0.001000,0.001000,0.001000,0.001000
1023.230769,-0.039948,0.001000,0.001000,0.001000,0.001000,0.001000
1023.250000,-0.040814,0.001000,0.001000,0.001000,0.001000,0.001000
1023.269231,-0.041645,0.001000,0.001000,0.001000,0.001000,0.001000
1023.288462,-0.042439,0.001000,0.001000,0.001000,0.001000,0.001000
1023.307692,-0.043197,0.001000,0.001000,0.001000,0.001000,0.001000
1023.326923,-0.043918,0.001000,0.001000,0.001000,0.001000,0.001000
1023.346154,-0.044601,0.001000,0.001000,0.001000,0.001000,0.001000
1023.365385,-0.045246,0.001000,0.001000,0.001000,0.001000,0.001000
1023.384615,-0.045851,0.001000,0.001000,0.001000,0.001000,0.001000
1023.403846,-0.046417,0.001000,0.001000,0.001000,0.001000,0.001000
1023.423077,-0.046943,0.001000,0.001000,0.001000,0.001000,0.001000
1023.442308,-0.047428,0.001000,0.001000,0.001000,0.001000,0.001000
1023.461538,-0.047873,0.001000,0.001000,0.001000,0.001000,0.001000
1023.480769,-0.048276,0.001000,0.001000,0.001000,0.001000,0.001000
1023.500000,-0.048637,0.001000,0.001000,0.001000,0.001000,0.001000
1023.519231,-0.048957,0.001000,0.001000,0.001000,0.001000,0.001000
1023.538462,-0.049234,0.001000,0.001000,0.001000,0.001000,0.001000
1023.557692,-0.049469,0.001000,0.001000,0.001000,0.001000,0.001000
1023.576923,-0.049661,0.001000,0.001000,0.001000,0.001000,0.001000
1023.596154,-0.049810,0.001000,0.001000,0.001000,0.001000,0.001000
1023.615385,-0.049917,0.001000,0.001000,0.001000,0.001000,0.001000
1023.634615,-0.049980,0.001000,0.001000,0.001000,0.001000,0.001000
1023.653846,-0.050000,0.001000,0.001000,0.001000,0.001000,0.001000
1023.673077,-0.049977,0.001000,0.001000,0.001000,0.001000,0.001000
1023.692308,-0.049911,0.001000,0.001000,0.001000,0.001000,0.001000
1023.711538,-0.049802,0.001000,0.001000,0.001000,0.001000,0.001000
1023.730769,-0.049649,0.001000,0.001000,0.001000,0.001000,0.001000
1023.750000,-0.049454,0.001000,0.001000,0.001000,0.001000,0.001000
1023.769231,-0.049217,0.001000,0.001000,0.001000,0.001000,0.001000
1023.788462,-0.048937,0.001000,0.001000,0.001000,0.001000,0.001000
1023.807692,-0.048614,0.001000,0.001000,0.001000,0.001000,0.001000
1023.826923,-0.048250,0.001000,0.001000,0.001000,0.001000,0.001000
1023.846154,-0.047844,0.001000,0.001000,0.001000,0.001000,0.001000
1023.865385,-0.047397,0.001000,0.001000,0.001000,0.001000,0.001000
1023.884615,-0.046909,0.001000,0.001000,0.001000,0.001000,0.001000
1023.903846,-0.046380,0.001000,0.001000,0.001000,0.001000,0.001000
1023.923077,-0.045812,0.001000,0.001000,0.001000,0.001000,0.001000
1023.942308,-0.045204,0.001000,0.001000,0.001000,0.001000,0.001000
1023.961538,-0.044557,0.001000,0.001000,0.001000,0.001000,0.001000
1023.980769,-0.043871,0.001000,0.001000,0.001000,0.001000,0.001000
1024.000000,-0.043148,0.001000,0.001000,0.001000,0.001000,0.001000
1024.019231,-0.042387,0.001000,0.001000,0.001000,0.001000,0.001000
1024.038462,-0.041590,0.001000,0.001000,0.001000,0.001000,0.001000
1024.057692,-0.040757,0.001000,0.001000,0.001000,0.001000,0.001000
1024.076923,-0.039889,0.001000,0.001000,0.001000,0.001000,0.001000
1024.096154,-0.038986,0.001000,0.001000,0.001000,0.001000,0.001000
1024.115385,-0.038050,0.001000,0.001000,0.001000,0.001000,0.001000
1024.134615,-0.037081,0.001000,0.001000,0.001000,0.001000,0.001000
1024.153846,-0.036080,0.001000,0.001000,0.001000,0.001000,0.001000
1024.173077,-0.035047,0.001000,0.001000,0.001000,0.001000,0.001000
1024.192308,-0.033985,0.001000,0.001000,0.001000,0.001000,0.001000
1024.211538,-0.032893,0.001000,0.001000,0.001000,0.001000,0.001000
1024.230769,-0.031773,0.001000,0.001000,0.001000,0.001000,0.001000
1024.250000,-0.030626,0.001000,0.001000,0.001000,0.001000,0.001000
1024.269231,-0.029452,0.001000,0.001000,0.001000,0.001000,0.001000
1024.288462,-0.028252,0.001000,0.001000,0.001000,0.001000,0.001000
1024.307692,-0.027028,0.001000,0.001000,0.001000,0.001000,0.001000
1024.326923,-0.025781,0.001000,0.001000,0.001000,0.001000,0.001000
1024.346154,-0.024512,0.001000,0.001000,0.001000,0.001000,0.001000
1024.365385,-0.023222,0.001000,0.001000,0.001000,0.001000,0.001000
1024.384615,-0.021911,0.001000,0.001000,0.001000,0.001000,0.001000
1024.403846,-0.020582,0.001000,0.001000,0.001000,0.001000,0.001000
1024.423077,-0.019235,0.001000,0.001000,0.001000,0.001000,0.001000
1024.442308,-0.017871,0.001000,0.001000,0.001000,0.001000,0.001000
1024.461538,-0.016492,0.001000,0.001000,0.001000,0.001000,0.001000
1024.480769,-0.015098,0.001000,0.001000,0.001000,0.001000,0.001000
1024.500000,-0.013692,0.001000,0.001000,0.001000,0.001000,0.001000
1024.519231,-0.012274,0.001000,0.001000,0.001000,0.001000,0.001000
1024.538462,-0.010845,0.001000,0.001000,0.001000,0.001000,0.001000
1024.557692,-0.009407,0.001000,0.001000,0.001000,0.001000,0.001000
1024.576923,-0.007960,0.001000,0.001000,0.001000,0.001000,0.001000
1024.596154,-0.006507,0.001000,0.001000,0.001000,0.001000,0.001000
1024.615385,-0.005048,0.001000,0.001000,0.001000,0.001000,0.001000
1024.634615,-0.003585,0.001000,0.001000,0.001000,0.001000,0.001000
1024.653846,-0.002119,0.001000,0.001000,0.001000,0.001000,0.001000
1024.673077,-0.000651,0.001000,0.001000,0.001000,0.001000,0.001000
1024.692308,0.000818,0.001000,0.001000,0.001000,0.001000,0.001000
1024.711538,0.002286,0.001000,0.001000,0.001000,0.001000,0.001000
1024.730769,0.003752,0.001000,0.001000,0.001000,0.001000,0.001000
1024.750000,0.005214,0.001000,0.001000,0.001000,0.001000,0.001000
1024.769231,0.006672,0.001000,0.001000,0.001000,0.001000,0.001000
1024.788462,0.008125,0.001000,0.001000,0.001000,0.001000,0.001000
1024.807692,0.009570,0.001000,0.001000,0.001000,0.001000,0.001000
1024.826923,0.011007,0.001000,0.001000,0.001000,0.001000,0.001000
1024.846154,0.012435,0.001000,0.001000,0.001000,0.001000,0.001000
1024.865385,0.013852,0.001000,0.001000,0.001000,0.001000,0.001000
1024.884615,0.015257,0.001000,0.001000,0.001000,0.001000,0.001000
1024.903846,0.016649,0.001000,0.001000,0.001000,0.001000,0.001000
1024.923077,0.018026,0.001000,0.001000,0.001000,0.001000,0.001000
1024.942308,0.019388,0.001000,0.001000,0.001000,0.001000,0.001000
1024.961538,0.020734,0.001000,0.001000,0.001000,0.001000,0.001000
1024.980769,0.022061,0.001000,0.001000,0.001000,0.001000,0.001000
1025.000000,0.023369,0.001000,0.001000,0.001000,0.001000,0.001000
1025.019231,0.024657,0.001000,0.001000,0.001000,0.001000,0.001000
1025.038462,0.025924,0.001000,0.001000,0.001000,0.001000,0.001000
1025.057692,0.027169,0.001000,0.001000,0.001000,0.001000,0.001000
1025.076923,0.028390,0.001000,0.001000,0.001000,0.001000,0.001000
1025.096154,0.029586,0.001000,0.001000,0.001000,0.001000,0.001000
1025.115385,0.030757,0.001000,0.001000,0.001000,0.001000,0.001000
1025.134615,0.031902,0.001000,0.001000,0.001000,0.001000,0.001000
1025.153846,0.033019,0.001000,0.001000,0.001000,0.001000,0.001000
1025.173077,0.034107,0.001000,0.001000,0.001000,0.001000,0.001000
1025.192308,0.035166,0.001000,0.001000,0.001000,0.001000,0.001000
1025.211538,0.036195,0.001000,0.001000,0.001000,0.001000,0.001000
1025.230769,0.037192,0.001000,0.001000,0.001000,0.001000,0.001000
1025.250000,0.038158,0.001000,0.001000,0.001000,0.001000,0.001000
1025.269231,0.039090,0.001000,0.001000,0.001000,0.001000,0.001000
1025.288462,0.039989,0.001000,0.001000,0.001000,0.001000,0.001000
1025.307692,0.040853,0.001000,0.001000,0.001000,0.001000,0.001000
1025.326923,0.041682,0.001000,0.001000,0.001000,0.001000,0.001000
1025.346154,0.042475,0.001000,0.001000,0.001000,0.001000,0.001000
1025.365385,0.043232,0.001000,0.001000,0.001000,0.001000,0.001000
1025.384615,0.043951,0.001000,0.001000,0.001000,0.001000,0.001000
1025.403846,0.044632,0.001000,0.001000,0.001000,0.001000,0.001000
1025.423077,0.045275,0.001000,0.001000,0.001000,0.001000,0.001000
1025.442308,0.045878,0.001000,0.001000,0.001000,0.001000,0.001000
1025.461538,0.046442,0.001000,0.001000,0.001000,0.001000,0.001000
1025.480769,0.046966,0.001000,0.001000,0.001000,0.001000,0.001000
1025.500000,0.047450,0.001000,0.001000,0.001000,0.001000,0.001000
1025.519231,0.047892,0.001000,0.001000,0.001000,0.001000,0.001000
1025.538462,0.048294,0.001000,0.001000,0.001000,0.001000,0.001000
1025.557692,0.048653,0.001000,0.001000,0.001000,0.001000,0.001000
1025.576923,0.048971,0.001000,0.001000,0.001000,0.001000,0.001000
1025.596154,0.049246,0.001000,0.001000,0.001000,0.001000,0.001000
1025.615385,0.049479,0.001000,0.001000,0.001000,0.001000,0.001000
1025.634615,0.049669,0.001000,0.001000,0.001000,0.001000,0.001000
1025.653846,0.049816,0.001000,0.001000,0.001000,0.001000,0.001000
1025.673077,0.049921,0.001000,0.001000,0.001000,0.001000,0.001000
1025.692308,0.049982,0.001000,0.001000,0.001000,0.001000,0.001000
1025.711538,0.050000,0.001000,0.001000,0.001000,0.001000,0.001000
1025.730769,0.049975,0.001000,0.001000,0.001000,0.001000,0.001000
1025.750000,0.049907,0.001000,0.001000,0.001000,0.001000,0.001000
1025.769231,0.049796,0.001000,0.001000,0.001000,0.001000,0.001000
1025.788462,0.049641,0.001000,0.001000,0.001000,0.001000,0.001000
1025.807692,0.049444,0.001000,0.001000,0.001000,0.001000,0.001000
1025.826923,0.049205,0.001000,0.001000,0.001000,0.001000,0.001000
1025.846154,0.048923,0.001000,0.001000,0.001000,0.001000,0.001000
1025.865385,0.048598,0.001000,0.001000,0.001000,0.001000,0.001000
1025.884615,0.048232,0.001000,0.001000,0.001000,0.001000,0.001000
1025.903846,0.047824,0.001000,0.001000,0.001000,0.001000,0.001000
1025.923077,0.047375,0.001000,0.001000,0.001000,0.001000,0.001000
1025.942308,0.046885,0.001000,0.001000,0.001000,0.001000,0.001000
1025.961538,0.046355,0.001000,0.001000,0.001000,0.001000,0.001000
1025.980769,0.045784,0.001000,0.001000,0.001000,0.001000,0.001000
1026.000000,0.045175,0.001000,0.001000,0.001000,0.001000,0.001000
1026.019231,0.044526,0.001000,0.001000,0.001000,0.001000,0.001000
1026.038462,0.043838,0.001000,0.001000,0.001000,0.001000,0.001000
1026.057692,0.043113,0.001000,0.001000,0.001000,0.001000,0.001000
1026.076923,0.042351,0.001000,0.001000,0.001000,0.001000,0.001000
1026.096154,0.041552,0.001000,0.001000,0.001000,0.001000,0.001000
1026.115385,0.040717,0.001000,0.001000,0.001000,0.001000,0.001000
1026.134615,0.039848,0.001000,0.001000,0.001000,0.001000,0.001000
1026.153846,0.038943,0.001000,0.001000,0.001000,0.001000,0.001000
1026.173077,0.038006,0.001000,0.001000,0.001000,0.001000,0.001000
1026.192308,0.037035,0.001000,0.001000,0.001000,0.001000,0.001000
1026.211538,0.036032,0.001000,0.001000,0.001000,0.001000,0.001000
1026.230769,0.034999,0.001000,0.001000,0.001000,0.001000,0.001000
1026.250000,0.033935,0.001000,0.001000,0.001000,0.001000,0.001000
1026.269231,0.032842,0.001000,0.001000,0.001000,0.001000,0.001000
1026.288462,0.031721,0.001000,0.001000,0.001000,0.001000,0.001000
1026.307692,0.030572,0.001000,0.001000,0.001000,0.001000,0.001000
1026.326923,0.029397,0.001000,0.001000,0.001000,0.001000,0.001000
1026.346154,0.028196,0.001000,0.001000,0.001000,0.001000,0.001000
1026.365385,0.026971,0.001000,0.001000,0.001000,0.001000,0.001000
1026.384615,0.025723,0.001000,0.001000,0.001000,0.001000,0.001000
1026.403846,0.024453,0.001000,0.001000,0.001000,0.001000,0.001000
1026.423077,0.023161,0.001000,0.001000,0.001000,0.001000,0.001000
1026.442308,0.021850,0.001000,0.001000,0.001000,0.001000,0.001000
1026.461538,0.020520,0.001000,0.001000,0.001000,0.001000,0.001000
1026.480769,0.019172,0.001000,0.001000,0.001000,0.001000,0.001000
1026.500000,0.017807,0.001000,0.001000,0.001000,0.001000,0.001000
1026.519231,0.016427,0.001000,0.001000,0.001000,0.001000,0.001000
1026.538462,0.015033,0.001000,0.001000,0.001000,0.001000,0.001000
1026.557692,0.013626,0.001000,0.001000,0.001000,0.001000,0.001000
1026.576923,0.012208,0.001000,0.001000,0.001000,0.001000,0.001000
1026.596154,0.010778,0.001000,0.001000,0.001000,0.001000,0.001000
1026.615385,0.009340,0.001000,0.001000,0.001000,0.001000,0.001000
1026.634615,0.007893,0.001000,0.001000,0.001000,0.001000,0.001000
1026.653846,0.006440,0.001000,0.001000,0.001000,0.001000,0.001000
1026.673077,0.004981,0.001000,0.001000,0.001000,0.001000,0.001000
1026.692308,0.003517,0.001000,0.001000,0.001000,0.001000,0.001000
1026.711538,0.002051,0.001000,0.001000,0.001000,0.001000,0.001000
1026.730769,0.000583,0.001000,0.001000,0.001000,0.001000,0.001000
1026.750000,-0.000886,0.001000,0.001000,0.001000,0.001000,0.001000
1026.769231,-0.002354,0.001000,0.001000,0.001000,0.001000,0.001000
1026.788462,-0.003819,0.001000,0.001000,0.001000,0.001000,0.001000
1026.807692,-0.005282,0.001000,0.001000,0.001000,0.001000,0.001000
1026.826923,-0.006740,0.001000,0.001000,0.001000,0.001000,0.001000
1026.846154,-0.008192,0.001000,0.001000,0.001000,0.001000,0.001000
1026.865385,-0.009637,0.001000,0.001000,0.001000,0.001000,0.001000
1026.884615,-0.011074,0.001000,0.001000,0.001000,0.001000,0.001000
1026.903846,-0.012501,0.001000,0.001000,0.001000,0.001000,0.001000
1026.923077,-0.013918,0.001000,0.001000,0.001000,0.001000,0.001000
1026.942308,-0.015322,0.001000,0.001000,0.001000,0.001000,0.001000
1026.961538,-0.016713,0.001000,0.001000,0.001000,0.001000,0.001000
1026.980769,-0.018090,0.001000,0.001000,0.001000,0.001000,0.001000
1027.000000,-0.019451,0.001000,0.001000,0.001000,0.001000,0.001000
1027.019231,-0.020796,0.001000,0.001000,0.001000,0.001000,0.001000
1027.038462,-0.022122,0.001000,0.001000,0.001000,0.001000,0.001000
1027.057692,-0.023429,0.001000,0.001000,0.001000,0.001000,0.001000
1027.076923,-0.024717,0.001000,0.001000,0.001000,0.001000,0.001000
1027.096154,-0.025982,0.001000,0.001000,0.001000,0.001000,0.001000
1027.115385,-0.027226,0.001000,0.001000,0.001000,0.001000,0.001000
1027.134615,-0.028446,0.001000,0.001000,0.001000,0.001000,0.001000
1027.153846,-0.029641,0.001000,0.001000,0.001000,0.001000,0.001000
1027.173077,-0.030811,0.001000,0.001000,0.001000,0.001000,0.001000
1027.192308,-0.031954,0.001000,0.001000,0.001000,0.001000,0.001000
1027.211538,-0.033070,0.001000,0.001000,0.001000,0.001000,0.001000
1027.230769,-0.034157,0.001000,0.001000,0.001000,0.001000,0.001000
1027.250000,-0.035215,0.001000,0.001000,0.001000,0.001000,0.001000
1027.269231,-0.036242,0.001000,0.001000,0.001000,0.001000,0.001000
1027.288462,-0.037238,0.001000,0.001000,0.001000,0.001000,0.001000
1027.307692,-0.038202,0.001000,0.001000,0.001000,0.001000,0.001000
1027.326923,-0.039133,0.001000,0.001000,0.001000,0.001000,0.001000
1027.346154,-0.040030,0.001000,0.001000,0.001000,0.001000,0.001000
1027.365385,-0.040893,0.001000,0.001000,0.001000,0.001000,0.001000
1027.384615,-0.041720,0.001000,0.001000,0.001000,0.001000,0.001000
1027.403846,-0.042511,0.001000,0.001000,0.001000,0.001000,0.001000
1027.423077,-0.043266,0.001000,0.001000,0.001000,0.001000,0.001000
1027.442308,-0.043983,0.001000,0.001000,0.001000,0.001000,0.001000
1027.461538,-0.044663,0.001000,0.001000,0.001000,0.001000,0.001000
1027.480769,-0.045304,0.001000,0.001000,0.001000,0.001000,0.001000
1027.500000,-0.045905,0.001000,0.001000,0.001000,0.001000,0.001000
1027.519231,-0.046468,0.001000,0.001000,0.001000,0.001000,0.001000
1027.538462,-0.046990,0.001000,0.001000,0.001000,0.001000,0.001000
1027.557692,-0.047471,0.001000,0.001000,0.001000,0.001000,0.001000
1027.576923,-0.047912,0.001000,0.001000,0.001000,0.001000,0.001000
1027.596154,-0.048311,0.001000,0.001000,0.001000,0.001000,0.001000
1027.615385,-0.048669,0.001000,0.001000,0.001000,0.001000,0.001000
1027.634615,-0.048984,0.001000,0.001000,0.001000,0.001000,0.001000
1027.653846,-0.049258,0.001000,0.001000,0.001000,0.001000,0.001000
1027.673077,-0.049489,0.001000,0.001000,0.001000,0.001000,0.001000
1027.692308,-0.049677,0.001000,0.001000,0.001000,0.001000,0.001000
1027.711538,-0.049822,0.001000,0.001000,0.001000,0.001000,0.001000
1027.730769,-0.049924,0.001000,0.001000,0.001000,0.001000,0.001000
1027.750000,-0.049984,0.001000,0.001000,0.001000,0.001000,0.001000
1027.769231,-0.050000,0.001000,0.001000,0.001000,0.001000,0.001000
1027.788462,-0.049973,0.001000,0.001000,0.001000,0.001000,0.001000
1027.807692,-0.049903,0.001000,0.001000,0.001000,0.001000,0.001000
1027.826923,-0.049789,0.001000,0.001000,0.001000,0.001000,0.001000
1027.846154,-0.049633,0.001000,0.001000,0.001000,0.001000,0.001000
1027.865385,-0.049434,0.001000,0.001000,0.001000,0.001000,0.001000
1027.884615,-0.049193,0.001000,0.001000,0.001000,0.001000,0.001000
1027.903846,-0.048909,0.001000,0.001000,0.001000,0.001000,0.001000
1027.923077,-0.048582,0.001000,0.001000,0.001000,0.001000,0.001000
1027.942308,-0.048214,0.001000,0.001000,0.001000,0.001000,0.001000
1027.961538,-0.047804,0.001000,0.001000,0.001000,0.001000,0.001000
1027.980769,-0.047353,0.001000,0.001000,0.001000,0.001000,0.001000
1028.000000,-0.046862,0.001000,0.001000,0.001000,0.001000,0.001000
1028.019231,-0.046329,0.001000,0.001000,0.001000,0.001000,0.001000
1028.038462,-0.045757,0.001000,0.001000,0.001000,0.001000,0.001000
1028.057692,-0.045145,0.001000,0.001000,0.001000,0.001000,0.001000
1028.076923,-0.044495,0.001000,0.001000,0.001000,0.001000,0.001000
1028.096154,-0.043806,0.001000,0.001000,0.001000,0.001000,0.001000
1028.115385,-0.043079,0.001000,0.001000,0.001000,0.001000,0.001000
1028.134615,-0.042315,0.001000,0.001000,0.001000,0.001000,0.001000
1028.153846,-0.041514,0.001000,0.001000,0.001000,0.001000,0.001000
1028.173077,-0.040678,0.001000,0.001000,0.001000,0.001000,0.001000
1028.192308,-0.039806,0.001000,0.001000,0.001000,0.001000,0.001000
1028.211538,-0.038901,0.001000,0.001000,0.001000,0.001000,0.001000
1028.230769,-0.037961,0.001000,0.001000,0.001000,0.001000,0.001000
1028.250000,-0.036989,0.001000,0.001000,0.001000,0.001000,0.001000
1028.269231,-0.035985,0.001000,0.001000,0.001000,0.001000,0.001000
1028.288462,-0.034950,0.001000,0.001000,0.001000,0.001000,0.001000
1028.307692,-0.033885,0.001000,0.001000,0.001000,0.001000,0.001000
1028.326923,-0.032791,0.001000,0.001000,0.001000,0.001000,0.001000
1028.346154,-0.031668,0.001000,0.001000,0.001000,0.001000,0.001000
1028.365385,-0.030518,0.001000,0.001000,0.001000,0.001000,0.001000
1028.384615,-0.029341,0.001000,0.001000,0.001000,0.001000,0.001000
1028.403846,-0.028140,0.001000,0.001000,0.001000,0.001000,0.001000
1028.423077,-0.026914,0.001000,0.001000,0.001000,0.001000,0.001000
1028.442308,-0.025665,0.001000,0.001000,0.001000,0.001000,0.001000
1028.461538,-0.024393,0.001000,0.001000,0.001000,0.001000,0.001000
1028.480769,-0.023101,0.001000,0.001000,0.001000,0.001000,0.001000
1028.500000,-0.021789,0.001000,0.001000,0.001000,0.001000,0.001000
1028.519231,-0.020457,0.001000,0.001000,0.001000,0.001000,0.001000
1028.538462,-0.019109,0.001000,0.001000,0.001000,0.001000,0.001000
1028.557692,-0.017743,0.001000,0.001000,0.001000,0.001000,0.001000
1028.576923,-0.016363,0.001000,0.001000,0.001000,0.001000,0.001000
1028.596154,-0.014968,0.001000,0.001000,0.001000,0.001000,0.001000
1028.615385,-0.013561,0.001000,0.001000,0.001000,0.001000,0.001000
1028.634615,-0.012141,0.001000,0.001000,0.001000,0.001000,0.001000
1028.653846,-0.010712,0.001000,0.001000,0.001000,0.001000,0.001000
1028.673077,-0.009273,0.001000,0.001000,0.001000,0.001000,0.001000
1028.692308,-0.007826,0.001000,0.001000,0.001000,0.001000,0.001000
1028.711538,-0.006372,0.001000,0.001000,0.001000,0.001000,0.001000
1028.730769,-0.004913,0.001000,0.001000,0.001000,0.001000,0.001000
1028.750000,-0.003449,0.001000,0.001000,0.001000,0.001000,0.001000
1028.769231,-0.001983,0.001000,0.001000,0.001000,0.001000,0.001000
1028.788462,-0.000515,0.001000,0.001000,0.001000,0.001000,0.001000
1028.807692,0.000954,0.001000,0.001000,0.001000,0.001000,0.001000
1028.826923,0.002422,0.001000,0.001000,0.001000,0.001000,0.001000
1028.846154,0.003887,0.001000,0.001000,0.001000,0.001000,0.001000
1028.865385,0.005350,0.001000,0.001000,0.001000,0.001000,0.001000
1028.884615,0.006807,0.001000,0.001000,0.001000,0.001000,0.001000
1028.903846,0.008259,0.001000,0.001000,0.001000,0.001000,0.001000
1028.923077,0.009704,0.001000,0.001000,0.001000,0.001000,0.001000
1028.942308,0.011140,0.001000,0.001000,0.001000,0.001000,0.001000
1028.961538,0.012567,0.001000,0.001000,0.001000,0.001000,0.001000
1028.980769,0.013983,0.001000,0.001000,0.001000,0.001000,0.001000
1029.000000,0.015387,0.001000,0.001000,0.001000,0.001000,0.001000
1029.019231,0.016777,0.001000,0.001000,0.001000,0.001000,0.001000
1029.038462,0.018154,0.001000,0.001000,0.001000,0.001000,0.001000
1029.057692,0.019514,0.001000,0.001000,0.001000,0.001000,0.001000
1029.076923,0.020858,0.001000,0.001000,0.001000,0.001000,0.001000
1029.096154,0.022183,0.001000,0.001000,0.001000,0.001000,0.001000
1029.115385,0.023490,0.001000,0.001000,0.001000,0.001000,0.001000
1029.134615,0.024776,0.001000,0.001000,0.001000,0.001000,0.001000
1029.153846,0.026041,0.001000,0.001000,0.001000,0.001000,0.001000
1029.173077,0.027283,0.001000,0.001000,0.001000,0.001000,0.001000
1029.192308,0.028502,0.001000,0.001000,0.001000,0.001000,0.001000
1029.211538,0.029696,0.001000,0.001000,0.001000,0.001000,0.001000
1029.230769,0.030865,0.001000,0.001000,0.001000,0.001000,0.001000
1029.250000,0.032007,0.001000,0.001000,0.001000,0.001000,0.001000
1029.269231,0.033121,0.001000,0.001000,0.001000,0.001000,0.001000
1029.288462,0.034207,0.001000,0.001000,0.001000,0.001000,0.001000
1029.307692,0.035263,0.001000,0.001000,0.001000,0.001000,0.001000
1029.326923,0.036289,0.001000,0.001000,0.001000,0.001000,0.001000
1029.346154,0.037283,0.001000,0.001000,0.001000,0.001000,0.001000
1029.365385,0.038246,0.001000,0.001000,0.001000,0.001000,0.001000
1029.384615,0.039175,0.001000,0.001000,0.001000,0.001000,0.001000
1029.403846,0.040071,0.001000,0.001000,0.001000,0.001000,0.001000
1029.423077,0.040932,0.001000,0.001000,0.001000,0.001000,0.001000
1029.442308,0.041757,0.001000,0.001000,0.001000,0.001000,0.001000
1029.461538,0.042547,0.001000,0.001000,0.001000,0.001000,0.001000
1029.480769,0.043300,0.001000,0.001000,0.001000,0.001000,0.001000
1029.500000,0.044016,0.001000,0.001000,0.001000,0.001000,0.001000
1029.519231,0.044693,0.001000,0.001000,0.001000,0.001000,0.001000
1029.538462,0.045332,0.001000,0.001000,0.001000,0.001000,0.001000
1029.557692,0.045932,0.001000,0.001000,0.001000,0.001000,0.001000
1029.576923,0.046493,0.001000,0.001000,0.001000,0.001000,0.001000
1029.596154,0.047013,0.001000,0.001000,0.001000,0.001000,0.001000
1029.615385,0.047493,0.001000,0.001000,0.001000,0.001000,0.001000
1029.634615,0.047931,0.001000,0.001000,0.001000,0.001000,0.001000
1029.653846,0.048329,0.001000,0.001000,0.001000,0.001000,0.001000
1029.673077,0.048684,0.001000,0.001000,0.001000,0.001000,0.001000
1029.692308,0.048998,0.001000,0.001000,0.001000,0.001000,0.001000
1029.711538,0.049269,0.001000,0.001000,0.001000,0.001000,0.001000
1029.730769,0.049498,0.001000,0.001000,0.001000,0.001000,0.001000
1029.750000,0.049684,0.001000,0.001000,0.001000,0.001000,0.001000
1029.769231,0.049828,0.001000,0.001000,0.001000,0.001000,0.001000
1029.788462,0.049928,0.001000,0.001000,0.001000,0.001000,0.001000
1029.807692,0.049985,0.001000,0.001000,0.001000,0.001000,0.001000
1029.826923,0.049999,0.001000,0.001000,0.001000,0.001000,0.001000
1029.846154,0.049970,0.001000,0.001000,0.001000,0.001000,0.001000
1029.865385,0.049898,0.001000,0.001000,0.001000,0.001000,0.001000
1029.884615,0.049783,0.001000,0.001000,0.001000,0.001000,0.001000
1029.903846,0.049625,0.001000,0.001000,0.001000,0.001000,0.001000
1029.923077,0.049424,0.001000,0.001000,0.001000,0.001000,0.001000
1029.942308,0.049180,0.001000,0.001000,0.001000,0.001000,0.001000
1029.961538,0.048894,0.001000,0.001000,0.001000,0.001000,0.001000
1029.980769,0.048566,0.001000,0.001000,0.001000,0.001000,0.001000
1030.000000,0.000000,0.001000,0.001000,0.001000,0.001000,0.001000
1030.019231,0.001474,0.001000,0.001000,0.001000,0.001000,0.001000
1030.038462,0.002946,0.001000,0.001000,0.001000,0.001000,0.001000
1030.057692,0.004415,0.001000,0.001000,0.001000,0.001000,0.001000
1030.076923,0.005881,0.001000,0.001000,0.001000,0.001000,0.001000
1030.096154,0.007342,0.001000,0.001000,0.001000,0.001000,0.001000
1030.115385,0.008796,0.001000,0.001000,0.001000,0.001000,0.001000
1030.134615,0.010243,0.001000,0.001000,0.001000,0.001000,0.001000
1030.153846,0.011681,0.001000,0.001000,0.001000,0.001000,0.001000
1030.173077,0.013109,0.001000,0.001000,0.001000,0.001000,0.001000
1030.192308,0.014525,0.001000,0.001000,0.001000,0.001000,0.001000
1030.211538,0.015929,0.001000,0.001000,0.001000,0.001000,0.001000
1030.230769,0.017318,0.001000,0.001000,0.001000,0.001000,0.001000
1030.250000,0.018693,0.001000,0.001000,0.001000,0.001000,0.001000
1030.269231,0.020052,0.001000,0.001000,0.001000,0.001000,0.001000
1030.288462,0.021393,0.001000,0.001000,0.001000,0.001000,0.001000
1030.307692,0.022716,0.001000,0.001000,0.001000,0.001000,0.001000
1030.326923,0.024018,0.001000,0.001000,0.001000,0.001000,0.001000
1030.346154,0.025300,0.001000,0.001000,0.001000,0.001000,0.001000
1030.365385,0.026560,0.001000,0.001000,0.001000,0.001000,0.001000
1030.384615,0.027797,0.001000,0.001000,0.001000,0.001000,0.001000
1030.403846,0.029010,0.001000,0.001000,0.001000,0.001000,0.001000
1030.423077,0.030197,0.001000,0.001000,0.001000,0.001000,0.001000
1030.442308,0.031359,0.001000,0.001000,0.001000,0.001000,0.001000
1030.461538,0.032493,0.001000,0.001000,0.001000,0.001000,0.001000
1030.480769,0.033599,0.001000,0.001000,0.001000,0.001000,0.001000
1030.500000,0.034675,0.001000,0.001000,0.001000,0.001000,0.001000
1030.519231,0.035722,0.001000,0.001000,0.001000,0.001000,0.001000
1030.538462,0.036737,0.001000,0.001000,0.001000,0.001000,0.001000
1030.557692,0.037721,0.001000,0.001000,0.001000,0.001000,0.001000
1030.576923,0.038672,0.001000,0.001000,0.001000,0.001000,0.001000
1030.596154,0.039589,0.001000,0.001000,0.001000,0.001000,0.001000
1030.615385,0.040472,0.001000,0.001000,0.001000,0.001000,0.001000
1030.634615,0.041320,0.001000,0.001000,0.001000,0.001000,0.001000
1030.653846,0.042131,0.001000,0.001000,0.001000,0.001000,0.001000
1030.673077,0.042907,0.001000,0.001000,0.001000,0.001000,0.001000
1030.692308,0.043645,0.001000,0.001000,0.001000,0.001000,0.001000
1030.711538,0.044345,0.001000,0.001000,0.001000,0.001000,0.001000
1030.730769,0.045006,0.001000,0.001000,0.001000,0.001000,0.001000
1030.750000,0.045628,0.001000,0.001000,0.001000,0.001000,0.001000
1030.769231,0.046211,0.001000,0.001000,0.001000,0.001000,0.001000
1030.788462,0.046754,0.001000,0.001000,0.001000,0.001000,0.001000
1030.807692,0.047256,0.001000,0.001000,0.001000,0.001000,0.001000
1030.826923,0.047717,0.001000,0.001000,0.001000,0.001000,0.001000
1030.846154,0.048136,0.001000,0.001000,0.001000,0.001000,0.001000
1030.865385,0.048514,0.001000,0.001000,0.001000,0.001000,0.001000
1030.884615,0.048849,0.001000,0.001000,0.001000,0.001000,0.001000
1030.903846,0.049142,0.001000,0.001000,0.001000,0.001000,0.001000
1030.923077,0.049393,0.001000,0.001000,0.001000,0.001000,0.001000
1030.942308,0.049600,0.001000,0.001000,0.001000,0.001000,0.001000
1030.961538,0.049765,0.001000,0.001000,0.001000,0.001000,0.001000
1030.980769,0.049886,0.001000,0.001000,0.001000,0.001000,0.001000
1031.000000,0.049964,0.001000,0.001000,0.001000,0.001000,0.001000
1031.019231,0.049998,0.001000,0.001000,0.001000,0.001000,0.001000
1031.038462,0.049989,0.001000,0.001000,0.001000,0.001000,0.001000
1031.057692,0.049937,0.001000,0.001000,0.001000,0.001000,0.001000
1031.076923,0.049841,0.001000,0.001000,0.001000,0.001000,0.001000
1031.096154,0.049702,0.001000,0.001000,0.001000,0.001000,0.001000
1031.115385,0.049520,0.001000,0.001000,0.001000,0.001000,0.001000
1031.134615,0.049294,0.001000,0.001000,0.001000,0.001000,0.001000
1031.153846,0.049026,0.001000,0.001000,0.001000,0.001000,0.001000
1031.173077,0.048715,0.001000,0.001000,0.001000,0.001000,0.001000
1031.192308,0.048362,0.001000,0.001000,0.001000,0.001000,0.001000
1031.211538,0.047967,0.001000,0.001000,0.001000,0.001000,0.001000
1031.230769,0.047531,0.001000,0.001000,0.001000,0.001000,0.001000
1031.250000,0.047053,0.001000,0.001000,0.001000,0.001000,0.001000
1031.269231,0.046534,0.001000,0.001000,0.001000,0.001000,0.001000
1031.288462,0.045974,0.001000,0.001000,0.001000,0.001000,0.001000
1031.307692,0.045375,0.001000,0.001000,0.001000,0.001000,0.001000
1031.326923,0.044737,0.001000,0.001000,0.001000,0.001000,0.001000
1031.346154,0.044059,0.001000,0.001000,0.001000,0.001000,0.001000
1031.365385,0.043343,0.001000,0.001000,0.001000,0.001000,0.001000
1031.384615,0.042590,0.001000,0.001000,0.001000,0.001000,0.001000
1031.403846,0.041799,0.001000,0.001000,0.001000,0.001000,0.001000
1031.423077,0.040973,0.001000,0.001000,0.001000,0.001000,0.001000
1031.442308,0.040110,0.001000,0.001000,0.001000,0.001000,0.001000
1031.461538,0.039213,0.001000,0.001000,0.001000,0.001000,0.001000
1031.480769,0.038282,0.001000,0.001000,0.001000,0.001000,0.001000
1031.500000,0.037317,0.001000,0.001000,0.001000,0.001000,0.001000
1031.519231,0.036320,0.001000,0.001000,0.001000,0.001000,0.001000
1031.538462,0.035292,0.001000,0.001000,0.001000,0.001000,0.001000
1031.557692,0.034233,0.001000,0.001000,0.001000,0.001000,0.001000
1031.576923,0.033144,0.001000,0.001000,0.001000,0.001000,0.001000
1031.596154,0.032026,0.001000,0.001000,0.001000,0.001000,0.001000
1031.615385,0.030881,0.001000,0.001000,0.001000,0.001000,0.001000
1031.634615,0.029708,0.001000,0.001000,0.001000,0.001000,0.001000
1031.653846,0.028510,0.001000,0.001000,0.001000,0.001000,0.001000
1031.673077,0.027287,0.001000,0.001000,0.001000,0.001000,0.001000
1031.692308,0.026041,0.001000,0.001000,0.001000,0.001000,0.001000
1031.711538,0.024771,0.001000,0.001000,0.001000,0.001000,0.001000
1031.730769,0.023481,0.001000,0.001000,0.001000,0.001000,0.001000
1031.750000,0.022170,0.001000,0.001000,0.001000,0.001000,0.001000
1031.769231,0.020839,0.001000,0.001000,0.001000,0.001000,0.001000
1031.788462,0.019491,0.001000,0.001000,0.001000,0.001000,0.001000
1031.807692,0.018125,0.001000,0.001000,0.001000,0.001000,0.001000
1031.826923,0.016744,0.001000,0.001000,0.001000,0.001000,0.001000
1031.846154,0.015348,0.001000,0.001000,0.001000,0.001000,0.001000
1031.865385,0.013939,0.001000,0.001000,0.001000,0.001000,0.001000
1031.884615,0.012518,0.001000,0.001000,0.001000,0.001000,0.001000
1031.903846,0.011086,0.001000,0.001000,0.001000,0.001000,0.001000
1031.923077,0.009644,0.001000,0.001000,0.001000,0.001000,0.001000
1031.942308,0.008194,0.001000,0.001000,0.001000,0.001000,0.001000
1031.961538,0.006737,0.001000,0.001000,0.001000,0.001000,0.001000
1031.980769,0.005274,0.001000,0.001000,0.001000,0.001000,0.001000
1032.000000,0.003807,0.001000,0.001000,0.001000,0.001000,0.001000
1032.019231,0.002336,0.001000,0.001000,0.001000,0.001000,0.001000
1032.038462,0.000863,0.001000,0.001000,0.001000,0.001000,0.001000
1032.057692,-0.000611,0.001000,0.001000,0.001000,0.001000,0.001000
1032.076923,-0.002084,0.001000,0.001000,0.001000,0.001000,0.001000
1032.096154,-0.003555,0.001000,0.001000,0.001000,0.001000,0.001000
1032.115385,-0.005024,0.001000,0.001000,0.001000,0.001000,0.001000
1032.134615,-0.006488,0.001000,0.001000,0.001000,0.001000,0.001000
1032.153846,-0.007946,0.001000,0.001000,0.001000,0.001000,0.001000
1032.173077,-0.009397,0.001000,0.001000,0.001000,0.001000,0.001000
1032.192308,-0.010840,0.001000,0.001000,0.001000,0.001000,0.001000
1032.211538,-0.012274,0.001000,0.001000,0.001000,0.001000,0.001000
1032.230769,-0.013697,0.001000,0.001000,0.001000,0.001000,0.001000
1032.250000,-0.015108,0.001000,0.001000,0.001000,0.001000,0.001000
1032.269231,-0.016507,0.001000,0.001000,0.001000,0.001000,0.001000
1032.288462,-0.017890,0.001000,0.001000,0.001000,0.001000,0.001000
1032.307692,-0.019258,0.001000,0.001000,0.001000,0.001000,0.001000
1032.326923,-0.020610,0.001000,0.001000,0.001000,0.001000,0.001000
1032.346154,-0.021944,0.001000,0.001000,0.001000,0.001000,0.001000
1032.365385,-0.023258,0.001000,0.001000,0.001000,0.001000,0.001000
1032.384615,-0.024552,0.001000,0.001000,0.001000,0.001000,0.001000
1032.403846,-0.025825,0.001000,0.001000,0.001000,0.001000,0.001000
1032.423077,-0.027076,0.001000,0.001000,0.001000,0.001000,0.001000
1032.442308,-0.028303,0.001000,0.001000,0.001000,0.001000,0.001000
1032.461538,-0.029505,0.001000,0.001000,0.001000,0.001000,0.001000
1032.480769,-0.030682,0.001000,0.001000,0.001000,0.001000,0.001000
1032.500000,-0.031832,0.001000,0.001000,0.001000,0.001000,0.001000
1032.519231,-0.032955,0.001000,0.001000,0.001000,0.001000,0.001000
1032.538462,-0.034049,0.001000,0.001000,0.001000,0.001000,0.001000
1032.557692,-0.035113,0.001000,0.001000,0.001000,0.001000,0.001000
1032.576923,-0.036147,0.001000,0.001000,0.001000,0.001000,0.001000
1032.596154,-0.037149,0.001000,0.001000,0.001000,0.001000,0.001000
1032.615385,-0.038119,0.001000,0.001000,0.001000,0.001000,0.001000
1032.634615,-0.039056,0.001000,0.001000,0.001000,0.001000,0.001000
1032.653846,-0.039959,0.001000,0.001000,0.001000,0.001000,0.001000
1032.673077,-0.040828,0.001000,0.001000,0.001000,0.001000,0.001000
1032.692308,-0.041661,0.001000,0.001000,0.001000,0.001000,0.001000
1032.711538,-0.042457,0.001000,0.001000,0.001000,0.001000,0.001000
1032.730769,-0.043217,0.001000,0.001000,0.001000,0.001000,0.001000
1032.750000,-0.043939,0.001000,0.001000,0.001000,0.001000,0.001000
1032.769231,-0.044623,0.001000,0.001000,0.001000,0.001000,0.001000
1032.788462,-0.045269,0.001000,0.001000,0.001000,0.001000,0.001000
1032.807692,-0.045875,0.001000,0.001000,0.001000,0.001000,0.001000
1032.826923,-0.046441,0.001000,0.001000,0.001000,0.001000,0.001000
1032.846154,-0.046967,0.001000,0.001000,0.001000,0.001000,0.001000
1032.865385,-0.047452,0.001000,0.001000,0.001000,0.001000,0.001000
1032.884615,-0.047896,0.001000,0.001000,0.001000,0.001000,0.001000
1032.903846,-0.048298,0.001000,0.001000,0.001000,0.001000,0.001000
1032.923077,-0.048658,0.001000,0.001000,0.001000,0.001000,0.001000
1032.942308,-0.048976,0.001000,0.001000,0.001000,0.001000,0.001000
1032.961538,-0.049251,0.001000,0.001000,0.001000,0.001000,0.001000
1032.980769,-0.049484,0.001000,0.001000,0.001000,0.001000,0.001000
1033.000000,-0.049674,0.001000,0.001000,0.001000,0.001000,0.001000
1033.019231,-0.049820,0.001000,0.001000,0.001000,0.001000,0.001000
1033.038462,-0.049923,0.001000,0.001000,0.001000,0.001000,0.001000
1033.057692,-0.049983,0.001000,0.001000,0.001000,0.001000,0.001000
1033.076923,-0.050000,0.001000,0.001000,0.001000,0.001000,0.001000
1033.096154,-0.049973,0.001000,0.001000,0.001000,0.001000,0.001000
1033.115385,-0.049902,0.001000,0.001000,0.001000,0.001000,0.001000
1033.134615,-0.049788,0.001000,0.001000,0.001000,0.001000,0.001000
1033.153846,-0.049631,0.001000,0.001000,0.001000,0.001000,0.001000
1033.173077,-0.049431,0.001000,0.001000,0.001000,0.001000,0.001000
1033.192308,-0.049188,0.001000,0.001000,0.001000,0.001000,0.001000
1033.211538,-0.048902,0.001000,0.001000,0.001000,0.001000,0.001000
1033.230769,-0.048574,0.001000,0.001000,0.001000,0.001000,0.001000
1033.250000,-0.048204,0.001000,0.001000,0.001000,0.001000,0.001000
1033.269231,-0.047791,0.001000,0.001000,0.001000,0.001000,0.001000
1033.288462,-0.047337,0.001000,0.001000,0.001000,0.001000,0.001000
1033.307692,-0.046842,0.001000,0.001000,0.001000,0.001000,0.001000
1033.326923,-0.046307,0.001000,0.001000,0.001000,0.001000,0.001000
1033.346154,-0.045731,0.001000,0.001000,0.001000,0.001000,0.001000
1033.365385,-0.045115,0.001000,0.001000,0.001000,0.001000,0.001000
1033.384615,-0.044460,0.001000,0.001000,0.001000,0.001000,0.001000
1033.403846,-0.043767,0.001000,0.001000,0.001000,0.001000,0.001000
1033.423077,-0.043035,0.001000,0.001000,0.001000,0.001000,0.001000
1033.442308,-0.042267,0.001000,0.001000,0.001000,0.001000,0.001000
1033.461538,-0.041461,0.001000,0.001000,0.001000,0.001000,0.001000
1033.480769,-0.040619,0.001000,0.001000,0.001000,0.001000,0.001000
1033.500000,-0.039742,0.001000,0.001000,0.001000,0.001000,0.001000
1033.519231,-0.038831,0.001000,0.001000,0.001000,0.001000,0.001000
1033.538462,-0.037886,0.001000,0.001000,0.001000,0.001000,0.001000
1033.557692,-0.036908,0.001000,0.001000,0.001000,0.001000,0.001000
1033.576923,-0.035898,0.001000,0.001000,0.001000,0.001000,0.001000
1033.596154,-0.034856,0.001000,0.001000,0.001000,0.001000,0.001000
1033.615385,-0.033785,0.001000,0.001000,0.001000,0.001000,0.001000
1033.634615,-0.032684,0.001000,0.001000,0.001000,0.001000,0.001000
1033.653846,-0.031555,0.001000,0.001000,0.001000,0.001000,0.001000
1033.673077,-0.030398,0.001000,0.001000,0.001000,0.001000,0.001000
1033.692308,-0.029215,0.001000,0.001000,0.001000,0.001000,0.001000
1033.711538,-0.028006,0.001000,0.001000,0.001000,0.001000,0.001000
1033.730769,-0.026773,0.001000,0.001000,0.001000,0.001000,0.001000
1033.750000,-0.025517,0.001000,0.001000,0.001000,0.001000,0.001000
1033.769231,-0.024239,0.001000,0.001000,0.001000,0.001000,0.001000
1033.788462,-0.022940,0.001000,0.001000,0.001000,0.001000,0.001000
1033.807692,-0.021620,0.001000,0.001000,0.001000,0.001000,0.001000
1033.826923,-0.020282,0.001000,0.001000,0.001000,0.001000,0.001000
1033.846154,-0.018927,0.001000,0.001000,0.001000,0.001000,0.001000
1033.865385,-0.017555,0.001000,0.001000,0.001000,0.001000,0.001000
1033.884615,-0.016167,0.001000,0.001000,0.001000,0.001000,0.001000
1033.903846,-0.014766,0.001000,0.001000,0.001000,0.001000,0.001000
1033.923077,-0.013352,0.001000,0.001000,0.001000,0.001000,0.001000
1033.942308,-0.011926,0.001000,0.001000,0.001000,0.001000,0.001000
1033.961538,-0.010490,0.001000,0.001000,0.001000,0.001000,0.001000
1033.980769,-0.009044,0.001000,0.001000,0.001000,0.001000,0.001000
1034.000000,-0.007591,0.001000,0.001000,0.001000,0.001000,0.001000
1034.019231,-0.006131,0.001000,0.001000,0.001000,0.001000,0.001000
1034.038462,-0.004666,0.001000,0.001000,0.001000,0.001000,0.001000
1034.057692,-0.003197,0.001000,0.001000,0.001000,0.001000,0.001000
1034.076923,-0.001725,0.001000,0.001000,0.001000,0.001000,0.001000
1034.096154,-0.000252,0.001000,0.001000,0.001000,0.001000,0.001000
1034.115385,0.001222,0.001000,0.001000,0.001000,0.001000,0.001000
1034.134615,0.002694,0.001000,0.001000,0.001000,0.001000,0.001000
1034.153846,0.004164,0.001000,0.001000,0.001000,0.001000,0.001000
1034.173077,0.005631,0.001000,0.001000,0.001000,0.001000,0.001000
1034.192308,0.007093,0.001000,0.001000,0.001000,0.001000,0.001000
1034.211538,0.008548,0.001000,0.001000,0.001000,0.001000,0.001000
1034.230769,0.009996,0.001000,0.001000,0.001000,0.001000,0.001000
1034.250000,0.011436,0.001000,0.001000,0.001000,0.001000,0.001000
1034.269231,0.012865,0.001000,0.001000,0.001000,0.001000,0.001000
1034.288462,0.014284,0.001000,0.001000,0.001000,0.001000,0.001000
1034.307692,0.015690,0.001000,0.001000,0.001000,0.001000,0.001000
1034.326923,0.017082,0.001000,0.001000,0.001000,0.001000,0.001000
1034.346154,0.018459,0.001000,0.001000,0.001000,0.001000,0.001000
1034.365385,0.019821,0.001000,0.001000,0.001000,0.001000,0.001000
1034.384615,0.021165,0.001000,0.001000,0.001000,0.001000,0.001000
1034.403846,0.022491,0.001000,0.001000,0.001000,0.001000,0.001000
1034.423077,0.023797,0.001000,0.001000,0.001000,0.001000,0.001000
1034.442308,0.025083,0.001000,0.001000,0.001000,0.001000,0.001000
1034.461538,0.026346,0.001000,0.001000,0.001000,0.001000,0.001000
1034.480769,0.027587,0.001000,0.001000,0.001000,0.001000,0.001000
1034.500000,0.028804,0.001000,0.001000,0.001000,0.001000,0.001000
1034.519231,0.029996,0.001000,0.001000,0.001000,0.001000,0.001000
1034.538462,0.031162,0.001000,0.001000,0.001000,0.001000,0.001000
1034.557692,0.032301,0.001000,0.001000,0.001000,0.001000,0.001000
1034.576923,0.033412,0.001000,0.001000,0.001000,0.001000,0.001000
1034.596154,0.034493,0.001000,0.001000,0.001000,0.001000,0.001000
1034.615385,0.035545,0.001000,0.001000,0.001000,0.001000,0.001000
1034.634615,0.036566,0.001000,0.001000,0.001000,0.001000,0.001000
1034.653846,0.037555,0.001000,0.001000,0.001000,0.001000,0.001000
1034.673077,0.038512,0.001000,0.001000,0.001000,0.001000,0.001000
