timestamp,ax,ay,az,gx,gy,gz
1000.000000,0.000000,0.001000,0.001000,0.001000,0.001000,0.001000
1000.019231,0.001387,0.001000,0.001000,0.001000,0.001000,0.001000
1000.038462,0.002773,0.001000,0.001000,0.001000,0.001000,0.001000
1000.057692,0.004157,0.001000,0.001000,0.001000,0.001000,0.001000
1000.076923,0.005537,0.001000,0.001000,0.001000,0.001000,0.001000
1000.096154,0.006914,0.001000,0.001000,0.001000,0.001000,0.001000
1000.115385,0.008285,0.001000,0.001000,0.001000,0.001000,0.001000
1000.134615,0.009649,0.001000,0.001000,0.001000,0.001000,0.001000
1000.153846,0.011006,0.001000,0.001000,0.001000,0.001000,0.001000
1000.173077,0.012355,0.001000,0.001000,0.001000,0.001000,0.001000
1000.192308,0.013694,0.001000,0.001000,0.001000,0.001000,0.001000
1000.211538,0.015023,0.001000,0.001000,0.001000,0.001000,0.001000
1000.230769,0.016340,0.001000,0.001000,0.001000,0.001000,0.001000
1000.250000,0.017645,0.001000,0.001000,0.001000,0.001000,0.001000
1000.269231,0.018936,0.001000,0.001000,0.001000,0.001000,0.001000
1000.288462,0.020212,0.001000,0.001000,0.001000,0.001000,0.001000
1000.307692,0.021473,0.001000,0.001000,0.001000,0.001000,0.001000
1000.326923,0.022717,0.001000,0.001000,0.001000,0.001000,0.001000
1000.346154,0.023944,0.001000,0.001000,0.001000,0.001000,0.001000
1000.365385,0.025152,0.001000,0.001000,0.001000,0.001000,0.001000
1000.384615,0.026341,0.001000,0.001000,0.001000,0.001000,0.001000
1000.403846,0.027510,0.001000,0.001000,0.001000,0.001000,0.001000
1000.423077,0.028658,0.001000,0.001000,0.001000,0.001000,0.001000
1000.442308,0.029783,0.001000,0.001000,0.001000,0.001000,0.001000
1000.461538,0.030886,0.001000,0.001000,0.001000,0.001000,0.001000
1000.480769,0.031965,0.001000,0.001000,0.001000,0.001000,0.001000
1000.500000,0.033019,0.001000,0.001000,0.001000,0.001000,0.001000
1000.519231,0.034048,0.001000,0.001000,0.001000,0.001000,0.001000
1000.538462,0.035050,0.001000,0.001000,0.001000,0.001000,0.001000
1000.557692,0.036026,0.001000,0.001000,0.001000,0.001000,0.001000
1000.576923,0.036974,0.001000,0.001000,0.001000,0.001000,0.001000
1000.596154,0.037893,0.001000,0.001000,0.001000,0.001000,0.001000
1000.615385,0.038784,0.001000,0.001000,0.001000,0.001000,0.001000
1000.634615,0.039644,0.001000,0.001000,0.001000,0.001000,0.001000
1000.653846,0.040474,0.001000,0.001000,0.001000,0.001000,0.001000
1000.673077,0.041273,0.001000,0.001000,0.001000,0.001000,0.001000
1000.692308,0.042040,0.001000,0.001000,0.001000,0.001000,0.001000
1000.711538,0.042774,0.001000,0.001000,0.001000,0.001000,0.001000
1000.730769,0.043476,0.001000,0.001000,0.001000,0.001000,0.001000
1000.750000,0.044145,0.001000,0.001000,0.001000,0.001000,0.001000
1000.769231,0.044779,0.001000,0.001000,0.001000,0.001000,0.001000
1000.788462,0.045379,0.001000,0.001000,0.001000,0.001000,0.001000
1000.807692,0.045944,0.001000,0.001000,0.001000,0.001000,0.001000
1000.826923,0.046473,0.001000,0.001000,0.001000,0.001000,0.001000
1000.846154,0.046967,0.001000,0.001000,0.001000,0.001000,0.001000
1000.865385,0.047425,0.001000,0.001000,0.001000,0.001000,0.001000
1000.884615,0.047846,0.001000,0.001000,0.001000,0.001000,0.001000
1000.903846,0.048230,0.001000,0.001000,0.001000,0.001000,0.001000
1000.923077,0.048577,0.001000,0.001000,0.001000,0.001000,0.001000
1000.942308,0.048887,0.001000,0.001000,0.001000,0.001000,0.001000
1000.961538,0.049159,0.001000,0.001000,0.001000,0.001000,0.001000
1000.980769,0.049394,0.001000,0.001000,0.001000,0.001000,0.001000
1001.000000,0.049590,0.001000,0.001000,0.001000,0.001000,0.001000
1001.019231,0.049748,0.001000,0.001000,0.001000,0.001000,0.001000
1001.038462,0.049868,0.001000,0.001000,0.001000,0.001000,0.001000
1001.057692,0.049950,0.001000,0.001000,0.001000,0.001000,0.001000
1001.076923,0.049993,0.001000,0.001000,0.001000,0.001000,0.001000
1001.096154,0.049997,0.001000,0.001000,0.001000,0.001000,0.001000
1001.115385,0.049963,0.001000,0.001000,0.001000,0.001000,0.001000
1001.134615,0.049891,0.001000,0.001000,0.001000,0.001000,0.001000
1001.153846,0.049780,0.001000,0.001000,0.001000,0.001000,0.001000
1001.173077,0.049631,0.001000,0.001000,0.001000,0.001000,0.001000
1001.192308,0.049444,0.001000,0.001000,0.001000,0.001000,0.001000
1001.211538,0.049219,0.001000,0.001000,0.001000,0.001000,0.001000
1001.230769,0.048955,0.001000,0.001000,0.001000,0.001000,0.001000
1001.250000,0.048655,0.001000,0.001000,0.001000,0.001000,0.001000
1001.269231,0.048316,0.001000,0.001000,0.001000,0.001000,0.001000
1001.288462,0.047941,0.001000,0.001000,0.001000,0.001000,0.001000
1001.307692,0.047528,0.001000,0.001000,0.001000,0.001000,0.001000
1001.326923,0.047079,0.001000,0.001000,0.001000,0.001000,0.001000
1001.346154,0.046594,0.001000,0.001000,0.001000,0.001000,0.001000
1001.365385,0.046073,0.001000,0.001000,0.001000,0.001000,0.001000
1001.384615,0.045517,0.001000,0.001000,0.001000,0.001000,0.001000
1001.403846,0.044925,0.001000,0.001000,0.001000,0.001000,0.001000
1001.423077,0.044299,0.001000,0.001000,0.001000,0.001000,0.001000
1001.442308,0.043639,0.001000,0.001000,0.001000,0.001000,0.001000
1001.461538,0.042945,0.001000,0.001000,0.001000,0.001000,0.001000
1001.480769,0.042218,0.001000,0.001000,0.001000,0.001000,0.001000
1001.500000,0.041459,0.001000,0.001000,0.001000,0.001000,0.001000
1001.519231,0.040667,0.001000,0.001000,0.001000,0.001000,0.001000
1001.538462,0.039845,0.001000,0.001000,0.001000,0.001000,0.001000
1001.557692,0.038992,0.001000,0.001000,0.001000,0.001000,0.001000
1001.576923,0.038108,0.001000,0.001000,0.001000,0.001000,0.001000
1001.596154,0.037196,0.001000,0.001000,0.001000,0.001000,0.001000
1001.615385,0.036255,0.001000,0.001000,0.001000,0.001000,0.001000
1001.634615,0.035286,0.001000,0.001000,0.001000,0.001000,0.001000
1001.653846,0.034289,0.001000,0.001000,0.001000,0.001000,0.001000
1001.673077,0.033267,0.001000,0.001000,0.001000,0.001000,0.001000
1001.692308,0.032218,0.001000,0.001000,0.001000,0.001000,0.001000
1001.711538,0.031145,0.001000,0.001000,0.001000,0.001000,0.001000
1001.730769,0.030048,0.001000,0.001000,0.001000,0.001000,0.001000
1001.750000,0.028928,0.001000,0.001000,0.001000,0.001000,0.001000
1001.769231,0.027786,0.001000,0.001000,0.001000,0.001000,0.001000
1001.788462,0.026622,0.001000,0.001000,0.001000,0.001000,0.001000
1001.807692,0.025438,0.001000,0.001000,0.001000,0.001000,0.001000
1001.826923,0.024234,0.001000,0.001000,0.001000,0.001000,0.001000
1001.846154,0.023011,0.001000,0.001000,0.001000,0.001000,0.001000
1001.865385,0.021771,0.001000,0.001000,0.001000,0.001000,0.001000
1001.884615,0.020514,0.001000,0.001000,0.001000,0.001000,0.001000
1001.903846,0.019242,0.001000,0.001000,0.001000,0.001000,0.001000
1001.923077,0.017954,0.001000,0.001000,0.001000,0.001000,0.001000
1001.942308,0.016653,0.001000,0.001000,0.001000,0.001000,0.001000
1001.961538,0.015338,0.001000,0.001000,0.001000,0.001000,0.001000
1001.980769,0.014012,0.001000,0.001000,0.001000,0.001000,0.001000
1002.000000,0.012676,0.001000,0.001000,0.001000,0.001000,0.001000
1002.019231,0.011329,0.001000,0.001000,0.001000,0.001000,0.001000
1002.038462,0.009974,0.001000,0.001000,0.001000,0.001000,0.001000
1002.057692,0.008611,0.001000,0.001000,0.001000,0.001000,0.001000
1002.076923,0.007241,0.001000,0.001000,0.001000,0.001000,0.001000
1002.096154,0.005866,0.001000,0.001000,0.001000,0.001000,0.001000
1002.115385,0.004486,0.001000,0.001000,0.001000,0.001000,0.001000
1002.134615,0.003103,0.001000,0.001000,0.001000,0.001000,0.001000
1002.153846,0.001718,0.001000,0.001000,0.001000,0.001000,0.001000
1002.173077,0.000331,0.001000,0.001000,0.001000,0.001000,0.001000
1002.192308,-0.001056,0.001000,0.001000,0.001000,0.001000,0.001000
1002.211538,-0.002442,0.001000,0.001000,0.001000,0.001000,0.001000
1002.230769,-0.003827,0.001000,0.001000,0.001000,0.001000,0.001000
1002.250000,-0.005208,0.001000,0.001000,0.001000,0.001000,0.001000
1002.269231,-0.006586,0.001000,0.001000,0.001000,0.001000,0.001000
1002.288462,-0.007958,0.001000,0.001000,0.001000,0.001000,0.001000
1002.307692,-0.009324,0.001000,0.001000,0.001000,0.001000,0.001000
1002.326923,-0.010683,0.001000,0.001000,0.001000,0.001000,0.001000
1002.346154,-0.012034,0.001000,0.001000,0.001000,0.001000,0.001000
1002.365385,-0.013376,0.001000,0.001000,0.001000,0.001000,0.001000
1002.384615,-0.014707,0.001000,0.001000,0.001000,0.001000,0.001000
1002.403846,-0.016027,0.001000,0.001000,0.001000,0.001000,0.001000
1002.423077,-0.017335,0.001000,0.001000,0.001000,0.001000,0.001000
1002.442308,-0.018629,0.001000,0.001000,0.001000,0.001000,0.001000
1002.461538,-0.019909,0.001000,0.001000,0.001000,0.001000,0.001000
1002.480769,-0.021173,0.001000,0.001000,0.001000,0.001000,0.001000
1002.500000,-0.022422,0.001000,0.001000,0.001000,0.001000,0.001000
1002.519231,-0.023653,0.001000,0.001000,0.001000,0.001000,0.001000
1002.538462,-0.024866,0.001000,0.001000,0.001000,0.001000,0.001000
1002.557692,-0.026059,0.001000,0.001000,0.001000,0.001000,0.001000
1002.576923,-0.027233,0.001000,0.001000,0.001000,0.001000,0.001000
1002.596154,-0.028386,0.001000,0.001000,0.001000,0.001000,0.001000
1002.615385,-0.029517,0.001000,0.001000,0.001000,0.001000,0.001000
1002.634615,-0.030625,0.001000,0.001000,0.001000,0.001000,0.001000
1002.653846,-0.031709,0.001000,0.001000,0.001000,0.001000,0.001000
1002.673077,-0.032770,0.001000,0.001000,0.001000,0.001000,0.001000
1002.692308,-0.033805,0.001000,0.001000,0.001000,0.001000,0.001000
1002.711538,-0.034813,0.001000,0.001000,0.001000,0.001000,0.001000
1002.730769,-0.035796,0.001000,0.001000,0.001000,0.001000,0.001000
1002.750000,-0.036750,0.001000,0.001000,0.001000,0.001000,0.001000
1002.769231,-0.037677,0.001000,0.001000,0.001000,0.001000,0.001000
1002.788462,-0.038574,0.001000,0.001000,0.001000,0.001000,0.001000
1002.807692,-0.039441,0.001000,0.001000,0.001000,0.001000,0.001000
1002.826923,-0.040279,0.001000,0.001000,0.001000,0.001000,0.001000
1002.846154,-0.041085,0.001000,0.001000,0.001000,0.001000,0.001000
1002.865385,-0.041860,0.001000,0.001000,0.001000,0.001000,0.001000
1002.884615,-0.042602,0.001000,0.001000,0.001000,0.001000,0.001000
1002.903846,-0.043312,0.001000,0.001000,0.001000,0.001000,0.001000
1002.923077,-0.043988,0.001000,0.001000,0.001000,0.001000,0.001000
1002.942308,-0.044631,0.001000,0.001000,0.001000,0.001000,0.001000
1002.961538,-0.045239,0.001000,0.001000,0.001000,0.001000,0.001000
1002.980769,-0.045812,0.001000,0.001000,0.001000,0.001000,0.001000
1003.000000,-0.046350,0.001000,0.001000,0.001000,0.001000,0.001000
1003.019231,-0.046852,0.001000,0.001000,0.001000,0.001000,0.001000
1003.038462,-0.047319,0.001000,0.001000,0.001000,0.001000,0.001000
1003.057692,-0.047749,0.001000,0.001000,0.001000,0.001000,0.001000
1003.076923,-0.048142,0.001000,0.001000,0.001000,0.001000,0.001000
1003.096154,-0.048498,0.001000,0.001000,0.001000,0.001000,0.001000
1003.115385,-0.048817,0.001000,0.001000,0.001000,0.001000,0.001000
1003.134615,-0.049098,0.001000,0.001000,0.001000,0.001000,0.001000
1003.153846,-0.049341,0.001000,0.001000,0.001000,0.001000,0.001000
1003.173077,-0.049547,0.001000,0.001000,0.001000,0.001000,0.001000
1003.192308,-0.049714,0.001000,0.001000,0.001000,0.001000,0.001000
1003.211538,-0.049843,0.001000,0.001000,0.001000,0.001000,0.001000
1003.230769,-0.049934,0.001000,0.001000,0.001000,0.001000,0.001000
1003.250000,-0.049986,0.001000,0.001000,0.001000,0.001000,0.001000
1003.269231,-0.050000,0.001000,0.001000,0.001000,0.001000,0.001000
1003.288462,-0.049975,0.001000,0.001000,0.001000,0.001000,0.001000
1003.307692,-0.049912,0.001000,0.001000,0.001000,0.001000,0.001000
1003.326923,-0.049810,0.001000,0.001000,0.001000,0.001000,0.001000
1003.346154,-0.049670,0.001000,0.001000,0.001000,0.001000,0.001000
1003.365385,-0.049492,0.001000,0.001000,0.001000,0.001000,0.001000
1003.384615,-0.049276,0.001000,0.001000,0.001000,0.001000,0.001000
1003.403846,-0.049022,0.001000,0.001000,0.001000,0.001000,0.001000
1003.423077,-0.048730,0.001000,0.001000,0.001000,0.001000,0.001000
1003.442308,-0.048400,0.001000,0.001000,0.001000,0.001000,0.001000
1003.461538,-0.048034,0.001000,0.001000,0.001000,0.001000,0.001000
1003.480769,-0.047630,0.001000,0.001000,0.001000,0.001000,0.001000
1003.500000,-0.047190,0.001000,0.001000,0.001000,0.001000,0.001000
1003.519231,-0.046713,0.001000,0.001000,0.001000,0.001000,0.001000
1003.538462,-0.046201,0.001000,0.001000,0.001000,0.001000,0.001000
1003.557692,-0.045653,0.001000,0.001000,0.001000,0.001000,0.001000
1003.576923,-0.045069,0.001000,0.001000,0.001000,0.001000,0.001000
1003.596154,-0.044451,0.001000,0.001000,0.001000,0.001000,0.001000
1003.615385,-0.043799,0.001000,0.001000,0.001000,0.001000,0.001000
1003.634615,-0.043114,0.001000,0.001000,0.001000,0.001000,0.001000
1003.653846,-0.042394,0.001000,0.001000,0.001000,0.001000,0.001000
1003.673077,-0.041643,0.001000,0.001000,0.001000,0.001000,0.001000
1003.692308,-0.040859,0.001000,0.001000,0.001000,0.001000,0.001000
1003.711538,-0.040044,0.001000,0.001000,0.001000,0.001000,0.001000
1003.730769,-0.039198,0.001000,0.001000,0.001000,0.001000,0.001000
1003.750000,-0.038322,0.001000,0.001000,0.001000,0.001000,0.001000
1003.769231,-0.037416,0.001000,0.001000,0.001000,0.001000,0.001000
1003.788462,-0.036482,0.001000,0.001000,0.001000,0.001000,0.001000
1003.807692,-0.035519,0.001000,0.001000,0.001000,0.001000,0.001000
1003.826923,-0.034529,0.001000,0.001000,0.001000,0.001000,0.001000
1003.846154,-0.033513,0.001000,0.001000,0.001000,0.001000,0.001000
1003.865385,-0.032471,0.001000,0.001000,0.001000,0.001000,0.001000
1003.884615,-0.031404,0.001000,0.001000,0.001000,0.001000,0.001000
1003.903846,-0.030312,0.001000,0.001000,0.001000,0.001000,0.001000
1003.923077,-0.029198,0.001000,0.001000,0.001000,0.001000,0.001000
1003.942308,-0.028060,0.001000,0.001000,0.001000,0.001000,0.001000
1003.961538,-0.026902,0.001000,0.001000,0.001000,0.001000,0.001000
1003.980769,-0.025722,0.001000,0.001000,0.001000,0.001000,0.001000
1004.000000,-0.024523,0.001000,0.001000,0.001000,0.001000,0.001000
1004.019231,-0.023305,0.001000,0.001000,0.001000,0.001000,0.001000
1004.038462,-0.022069,0.001000,0.001000,0.001000,0.001000,0.001000
1004.057692,-0.020816,0.001000,0.001000,0.001000,0.001000,0.001000
1004.076923,-0.019547,0.001000,0.001000,0.001000,0.001000,0.001000
1004.096154,-0.018262,0.001000,0.001000,0.001000,0.001000,0.001000
1004.115385,-0.016964,0.001000,0.001000,0.001000,0.001000,0.001000
1004.134615,-0.015653,0.001000,0.001000,0.001000,0.001000,0.001000
1004.153846,-0.014330,0.001000,0.001000,0.001000,0.001000,0.001000
1004.173077,-0.012995,0.001000,0.001000,0.001000,0.001000,0.001000
1004.192308,-0.011651,0.001000,0.001000,0.001000,0.001000,0.001000
1004.211538,-0.010298,0.001000,0.001000,0.001000,0.001000,0.001000
1004.230769,-0.008937,0.001000,0.001000,0.001000,0.001000,0.001000
1004.250000,-0.007569,0.001000,0.001000,0.001000,0.001000,0.001000
1004.269231,-0.006195,0.001000,0.001000,0.001000,0.001000,0.001000
1004.288462,-0.004816,0.001000,0.001000,0.001000,0.001000,0.001000
1004.307692,-0.003434,0.001000,0.001000,0.001000,0.001000,0.001000
1004.326923,-0.002049,0.001000,0.001000,0.001000,0.001000,0.001000
1004.346154,-0.000662,0.001000,0.001000,0.001000,0.001000,0.001000
1004.365385,0.000725,0.001000,0.001000,0.001000,0.001000,0.001000
1004.384615,0.002112,0.001000,0.001000,0.001000,0.001000,0.001000
1004.403846,0.003497,0.001000,0.001000,0.001000,0.001000,0.001000
1004.423077,0.004879,0.001000,0.001000,0.001000,0.001000,0.001000
1004.442308,0.006257,0.001000,0.001000,0.001000,0.001000,0.001000
1004.461538,0.007631,0.001000,0.001000,0.001000,0.001000,0.001000
1004.480769,0.008999,0.001000,0.001000,0.001000,0.001000,0.001000
1004.500000,0.010360,0.001000,0.001000,0.001000,0.001000,0.001000
1004.519231,0.011713,0.001000,0.001000,0.001000,0.001000,0.001000
1004.538462,0.013056,0.001000,0.001000,0.001000,0.001000,0.001000
1004.557692,0.014390,0.001000,0.001000,0.001000,0.001000,0.001000
1004.576923,0.015713,0.001000,0.001000,0.001000,0.001000,0.001000
1004.596154,0.017024,0.001000,0.001000,0.001000,0.001000,0.001000
1004.615385,0.018321,0.001000,0.001000,0.001000,0.001000,0.001000
1004.634615,0.019605,0.001000,0.001000,0.001000,0.001000,0.001000
1004.653846,0.020873,0.001000,0.001000,0.001000,0.001000,0.001000
1004.673077,0.022125,0.001000,0.001000,0.001000,0.001000,0.001000
1004.692308,0.023361,0.001000,0.001000,0.001000,0.001000,0.001000
1004.711538,0.024578,0.001000,0.001000,0.001000,0.001000,0.001000
1004.730769,0.025776,0.001000,0.001000,0.001000,0.001000,0.001000
1004.750000,0.026955,0.001000,0.001000,0.001000,0.001000,0.001000
1004.769231,0.028113,0.001000,0.001000,0.001000,0.001000,0.001000
1004.788462,0.029249,0.001000,0.001000,0.001000,0.001000,0.001000
1004.807692,0.030363,0.001000,0.001000,0.001000,0.001000,0.001000
1004.826923,0.031453,0.001000,0.001000,0.001000,0.001000,0.001000
1004.846154,0.032519,0.001000,0.001000,0.001000,0.001000,0.001000
1004.865385,0.033560,0.001000,0.001000,0.001000,0.001000,0.001000
1004.884615,0.034575,0.001000,0.001000,0.001000,0.001000,0.001000
1004.903846,0.035564,0.001000,0.001000,0.001000,0.001000,0.001000
1004.923077,0.036525,0.001000,0.001000,0.001000,0.001000,0.001000
1004.942308,0.037458,0.001000,0.001000,0.001000,0.001000,0.001000
1004.961538,0.038362,0.001000,0.001000,0.001000,0.001000,0.001000
1004.980769,0.039237,0.001000,0.001000,0.001000,0.001000,0.001000
1005.000000,0.040082,0.001000,0.001000,0.001000,0.001000,0.001000
1005.019231,0.040896,0.001000,0.001000,0.001000,0.001000,0.001000
1005.038462,0.041678,0.001000,0.001000,0.001000,0.001000,0.001000
1005.057692,0.042428,0.001000,0.001000,0.001000,0.001000,0.001000
1005.076923,0.043145,0.001000,0.001000,0.001000,0.001000,0.001000
1005.096154,0.043830,0.001000,0.001000,0.001000,0.001000,0.001000
1005.115385,0.044480,0.001000,0.001000,0.001000,0.001000,0.001000
1005.134615,0.045097,0.001000,0.001000,0.001000,0.001000,0.001000
1005.153846,0.045678,0.001000,0.001000,0.001000,0.001000,0.001000
1005.173077,0.046225,0.001000,0.001000,0.001000,0.001000,0.001000
1005.192308,0.046736,0.001000,0.001000,0.001000,0.001000,0.001000
1005.211538,0.047211,0.001000,0.001000,0.001000,0.001000,0.001000
1005.230769,0.047649,0.001000,0.001000,0.001000,0.001000,0.001000
1005.250000,0.048051,0.001000,0.001000,0.001000,0.001000,0.001000
1005.269231,0.048416,0.001000,0.001000,0.001000,0.001000,0.001000
1005.288462,0.048744,0.001000,0.001000,0.001000,0.001000,0.001000
1005.307692,0.049034,0.001000,0.001000,0.001000,0.001000,0.001000
1005.326923,0.049287,0.001000,0.001000,0.001000,0.001000,0.001000
1005.346154,0.049501,0.001000,0.001000,0.001000,0.001000,0.001000
1005.365385,0.049677,0.001000,0.001000,0.001000,0.001000,0.001000
1005.384615,0.049816,0.001000,0.001000,0.001000,0.001000,0.001000
1005.403846,0.049915,0.001000,0.001000,0.001000,0.001000,0.001000
1005.423077,0.049977,0.001000,0.001000,0.001000,0.001000,0.001000
1005.442308,0.050000,0.001000,0.001000,0.001000,0.001000,0.001000
1005.461538,0.049984,0.001000,0.001000,0.001000,0.001000,0.001000
1005.480769,0.049930,0.001000,0.001000,0.001000,0.001000,0.001000
1005.500000,0.049838,0.001000,0.001000,0.001000,0.001000,0.001000
1005.519231,0.049707,0.001000,0.001000,0.001000,0.001000,0.001000
1005.538462,0.049538,0.001000,0.001000,0.001000,0.001000,0.001000
1005.557692,0.049331,0.001000,0.001000,0.001000,0.001000,0.001000
1005.576923,0.049086,0.001000,0.001000,0.001000,0.001000,0.001000
1005.596154,0.048803,0.001000,0.001000,0.001000,0.001000,0.001000
1005.615385,0.048482,0.001000,0.001000,0.001000,0.001000,0.001000
1005.634615,0.048125,0.001000,0.001000,0.001000,0.001000,0.001000
1005.653846,0.047730,0.001000,0.001000,0.001000,0.001000,0.001000
1005.673077,0.047298,0.001000,0.001000,0.001000,0.001000,0.001000
1005.692308,0.046830,0.001000,0.001000,0.001000,0.001000,0.001000
1005.711538,0.046326,0.001000,0.001000,0.001000,0.001000,0.001000
1005.730769,0.045787,0.001000,0.001000,0.001000,0.001000,0.001000
1005.750000,0.045212,0.001000,0.001000,0.001000,0.001000,0.001000
1005.769231,0.044602,0.001000,0.001000,0.001000,0.001000,0.001000
1005.788462,0.043958,0.001000,0.001000,0.001000,0.001000,0.001000
1005.807692,0.043280,0.001000,0.001000,0.001000,0.001000,0.001000
1005.826923,0.042569,0.001000,0.001000,0.001000,0.001000,0.001000
1005.846154,0.041825,0.001000,0.001000,0.001000,0.001000,0.001000
1005.865385,0.041049,0.001000,0.001000,0.001000,0.001000,0.001000
1005.884615,0.040241,0.001000,0.001000,0.001000,0.001000,0.001000
1005.903846,0.039403,0.001000,0.001000,0.001000,0.001000,0.001000
1005.923077,0.038534,0.001000,0.001000,0.001000,0.001000,0.001000
1005.942308,0.037635,0.001000,0.001000,0.001000,0.001000,0.001000
1005.961538,0.036707,0.001000,0.001000,0.001000,0.001000,0.001000
1005.980769,0.035752,0.001000,0.001000,0.001000,0.001000,0.001000
1006.000000,0.034768,0.001000,0.001000,0.001000,0.001000,0.001000
1006.019231,0.033758,0.001000,0.001000,0.001000,0.001000,0.001000
1006.038462,0.032722,0.001000,0.001000,0.001000,0.001000,0.001000
1006.057692,0.031661,0.001000,0.001000,0.001000,0.001000,0.001000
1006.076923,0.030575,0.001000,0.001000,0.001000,0.001000,0.001000
1006.096154,0.029466,0.001000,0.001000,0.001000,0.001000,0.001000
1006.115385,0.028334,0.001000,0.001000,0.001000,0.001000,0.001000
1006.134615,0.027180,0.001000,0.001000,0.001000,0.001000,0.001000
1006.153846,0.026005,0.001000,0.001000,0.001000,0.001000,0.001000
1006.173077,0.024811,0.001000,0.001000,0.001000,0.001000,0.001000
1006.192308,0.023597,0.001000,0.001000,0.001000,0.001000,0.001000
1006.211538,0.022365,0.001000,0.001000,0.001000,0.001000,0.001000
1006.230769,0.021116,0.001000,0.001000,0.001000,0.001000,0.001000
1006.250000,0.019851,0.001000,0.001000,0.001000,0.001000,0.001000
1006.269231,0.018570,0.001000,0.001000,0.001000,0.001000,0.001000
1006.288462,0.017275,0.001000,0.001000,0.001000,0.001000,0.001000
1006.307692,0.015967,0.001000,0.001000,0.001000,0.001000,0.001000
1006.326923,0.014647,0.001000,0.001000,0.001000,0.001000,0.001000
1006.346154,0.013315,0.001000,0.001000,0.001000,0.001000,0.001000
1006.365385,0.011973,0.001000,0.001000,0.001000,0.001000,0.001000
1006.384615,0.010622,0.001000,0.001000,0.001000,0.001000,0.001000
1006.403846,0.009262,0.001000,0.001000,0.001000,0.001000,0.001000
1006.423077,0.007896,0.001000,0.001000,0.001000,0.001000,0.001000
1006.442308,0.006523,0.001000,0.001000,0.001000,0.001000,0.001000
1006.461538,0.005145,0.001000,0.001000,0.001000,0.001000,0.001000
1006.480769,0.003764,0.001000,0.001000,0.001000,0.001000,0.001000
1006.500000,0.002379,0.001000,0.001000,0.001000,0.001000,0.001000
1006.519231,0.000993,0.001000,0.001000,0.001000,0.001000,0.001000
1006.538462,-0.000394,0.001000,0.001000,0.001000,0.001000,0.001000
1006.557692,-0.001781,0.001000,0.001000,0.001000,0.001000,0.001000
1006.576923,-0.003166,0.001000,0.001000,0.001000,0.001000,0.001000
1006.596154,-0.004549,0.001000,0.001000,0.001000,0.001000,0.001000
1006.615385,-0.005929,0.001000,0.001000,0.001000,0.001000,0.001000
1006.634615,-0.007304,0.001000,0.001000,0.001000,0.001000,0.001000
1006.653846,-0.008673,0.001000,0.001000,0.001000,0.001000,0.001000
1006.673077,-0.010036,0.001000,0.001000,0.001000,0.001000,0.001000
1006.692308,-0.011391,0.001000,0.001000,0.001000,0.001000,0.001000
1006.711538,-0.012737,0.001000,0.001000,0.001000,0.001000,0.001000
1006.730769,-0.014073,0.001000,0.001000,0.001000,0.001000,0.001000
1006.750000,-0.015398,0.001000,0.001000,0.001000,0.001000,0.001000
1006.769231,-0.016712,0.001000,0.001000,0.001000,0.001000,0.001000
1006.788462,-0.018013,0.001000,0.001000,0.001000,0.001000,0.001000
1006.807692,-0.019300,0.001000,0.001000,0.001000,0.001000,0.001000
1006.826923,-0.020572,0.001000,0.001000,0.001000,0.001000,0.001000
1006.846154,-0.021828,0.001000,0.001000,0.001000,0.001000,0.001000
1006.865385,-0.023067,0.001000,0.001000,0.001000,0.001000,0.001000
1006.884615,-0.024289,0.001000,0.001000,0.001000,0.001000,0.001000
1006.903846,-0.025492,0.001000,0.001000,0.001000,0.001000,0.001000
1006.923077,-0.026676,0.001000,0.001000,0.001000,0.001000,0.001000
1006.942308,-0.027838,0.001000,0.001000,0.001000,0.001000,0.001000
1006.961538,-0.028980,0.001000,0.001000,0.001000,0.001000,0.001000
1006.980769,-0.030099,0.001000,0.001000,0.001000,0.001000,0.001000
1007.000000,-0.031195,0.001000,0.001000,0.001000,0.001000,0.001000
1007.019231,-0.032267,0.001000,0.001000,0.001000,0.001000,0.001000
1007.038462,-0.033314,0.001000,0.001000,0.001000,0.001000,0.001000
1007.057692,-0.034335,0.001000,0.001000,0.001000,0.001000,0.001000
1007.076923,-0.035330,0.001000,0.001000,0.001000,0.001000,0.001000
1007.096154,-0.036298,0.001000,0.001000,0.001000,0.001000,0.001000
1007.115385,-0.037238,0.001000,0.001000,0.001000,0.001000,0.001000
1007.134615,-0.038149,0.001000,0.001000,0.001000,0.001000,0.001000
1007.153846,-0.039031,0.001000,0.001000,0.001000,0.001000,0.001000
1007.173077,-0.039883,0.001000,0.001000,0.001000,0.001000,0.001000
1007.192308,-0.040704,0.001000,0.001000,0.001000,0.001000,0.001000
1007.211538,-0.041494,0.001000,0.001000,0.001000,0.001000,0.001000
1007.230769,-0.042252,0.001000,0.001000,0.001000,0.001000,0.001000
1007.250000,-0.042977,0.001000,0.001000,0.001000,0.001000,0.001000
1007.269231,-0.043670,0.001000,0.001000,0.001000,0.001000,0.001000
1007.288462,-0.044328,0.001000,0.001000,0.001000,0.001000,0.001000
1007.307692,-0.044953,0.001000,0.001000,0.001000,0.001000,0.001000
1007.326923,-0.045543,0.001000,0.001000,0.001000,0.001000,0.001000
1007.346154,-0.046098,0.001000,0.001000,0.001000,0.001000,0.001000
1007.365385,-0.046617,0.001000,0.001000,0.001000,0.001000,0.001000
1007.384615,-0.047101,0.001000,0.001000,0.001000,0.001000,0.001000
1007.403846,-0.047548,0.001000,0.001000,0.001000,0.001000,0.001000
1007.423077,-0.047959,0.001000,0.001000,0.001000,0.001000,0.001000
1007.442308,-0.048333,0.001000,0.001000,0.001000,0.001000,0.001000
1007.461538,-0.048669,0.001000,0.001000,0.001000,0.001000,0.001000
1007.480769,-0.048968,0.001000,0.001000,0.001000,0.001000,0.001000
1007.500000,-0.049230,0.001000,0.001000,0.001000,0.001000,0.001000
1007.519231,-0.049453,0.001000,0.001000,0.001000,0.001000,0.001000
1007.538462,-0.049639,0.001000,0.001000,0.001000,0.001000,0.001000
1007.557692,-0.049786,0.001000,0.001000,0.001000,0.001000,0.001000
1007.576923,-0.049895,0.001000,0.001000,0.001000,0.001000,0.001000
1007.596154,-0.049966,0.001000,0.001000,0.001000,0.001000,0.001000
1007.615385,-0.049998,0.001000,0.001000,0.001000,0.001000,0.001000
1007.634615,-0.049991,0.001000,0.001000,0.001000,0.001000,0.001000
1007.653846,-0.049947,0.001000,0.001000,0.001000,0.001000,0.001000
1007.673077,-0.049863,0.001000,0.001000,0.001000,0.001000,0.001000
1007.692308,-0.049742,0.001000,0.001000,0.001000,0.001000,0.001000
1007.711538,-0.049582,0.001000,0.001000,0.001000,0.001000,0.001000
1007.730769,-0.049384,0.001000,0.001000,0.001000,0.001000,0.001000
1007.750000,-0.049148,0.001000,0.001000,0.001000,0.001000,0.001000
1007.769231,-0.048874,0.001000,0.001000,0.001000,0.001000,0.001000
1007.788462,-0.048562,0.001000,0.001000,0.001000,0.001000,0.001000
1007.807692,-0.048213,0.001000,0.001000,0.001000,0.001000,0.001000
1007.826923,-0.047827,0.001000,0.001000,0.001000,0.001000,0.001000
1007.846154,-0.047405,0.001000,0.001000,0.001000,0.001000,0.001000
1007.865385,-0.046945,0.001000,0.001000,0.001000,0.001000,0.001000
1007.884615,-0.046450,0.001000,0.001000,0.001000,0.001000,0.001000
1007.903846,-0.045919,0.001000,0.001000,0.001000,0.001000,0.001000
1007.923077,-0.045352,0.001000,0.001000,0.001000,0.001000,0.001000
1007.942308,-0.044751,0.001000,0.001000,0.001000,0.001000,0.001000
1007.961538,-0.044115,0.001000,0.001000,0.001000,0.001000,0.001000
1007.980769,-0.043445,0.001000,0.001000,0.001000,0.001000,0.001000
1008.000000,-0.042742,0.001000,0.001000,0.001000,0.001000,0.001000
1008.019231,-0.042006,0.001000,0.001000,0.001000,0.001000,0.001000
1008.038462,-0.041237,0.001000,0.001000,0.001000,0.001000,0.001000
1008.057692,-0.040437,0.001000,0.001000,0.001000,0.001000,0.001000
1008.076923,-0.039606,0.001000,0.001000,0.001000,0.001000,0.001000
1008.096154,-0.038744,0.001000,0.001000,0.001000,0.001000,0.001000
1008.115385,-0.037852,0.001000,0.001000,0.001000,0.001000,0.001000
1008.134615,-0.036931,0.001000,0.001000,0.001000,0.001000,0.001000
1008.153846,-0.035982,0.001000,0.001000,0.001000,0.001000,0.001000
1008.173077,-0.035005,0.001000,0.001000,0.001000,0.001000,0.001000
1008.192308,-0.034001,0.001000,0.001000,0.001000,0.001000,0.001000
1008.211538,-0.032971,0.001000,0.001000,0.001000,0.001000,0.001000
1008.230769,-0.031916,0.001000,0.001000,0.001000,0.001000,0.001000
1008.250000,-0.030836,0.001000,0.001000,0.001000,0.001000,0.001000
1008.269231,-0.029732,0.001000,0.001000,0.001000,0.001000,0.001000
1008.288462,-0.028606,0.001000,0.001000,0.001000,0.001000,0.001000
1008.307692,-0.027457,0.001000,0.001000,0.001000,0.001000,0.001000
1008.326923,-0.026288,0.001000,0.001000,0.001000,0.001000,0.001000
1008.346154,-0.025098,0.001000,0.001000,0.001000,0.001000,0.001000
1008.365385,-0.023888,0.001000,0.001000,0.001000,0.001000,0.001000
1008.384615,-0.022661,0.001000,0.001000,0.001000,0.001000,0.001000
1008.403846,-0.021416,0.001000,0.001000,0.001000,0.001000,0.001000
1008.423077,-0.020154,0.001000,0.001000,0.001000,0.001000,0.001000
1008.442308,-0.018877,0.001000,0.001000,0.001000,0.001000,0.001000
1008.461538,-0.017586,0.001000,0.001000,0.001000,0.001000,0.001000
1008.480769,-0.016280,0.001000,0.001000,0.001000,0.001000,0.001000
1008.500000,-0.014963,0.001000,0.001000,0.001000,0.001000,0.001000
1008.519231,-0.013634,0.001000,0.001000,0.001000,0.001000,0.001000
1008.538462,-0.012294,0.001000,0.001000,0.001000,0.001000,0.001000
1008.557692,-0.010945,0.001000,0.001000,0.001000,0.001000,0.001000
1008.576923,-0.009587,0.001000,0.001000,0.001000,0.001000,0.001000
1008.596154,-0.008222,0.001000,0.001000,0.001000,0.001000,0.001000
1008.615385,-0.006851,0.001000,0.001000,0.001000,0.001000,0.001000
1008.634615,-0.005474,0.001000,0.001000,0.001000,0.001000,0.001000
1008.653846,-0.004094,0.001000,0.001000,0.001000,0.001000,0.001000
1008.673077,-0.002710,0.001000,0.001000,0.001000,0.001000,0.001000
1008.692308,-0.001324,0.001000,0.001000,0.001000,0.001000,0.001000
1008.711538,0.000063,0.001000,0.001000,0.001000,0.001000,0.001000
1008.730769,0.001450,0.001000,0.001000,0.001000,0.001000,0.001000
1008.750000,0.002836,0.001000,0.001000,0.001000,0.001000,0.001000
1008.769231,0.004220,0.001000,0.001000,0.001000,0.001000,0.001000
1008.788462,0.005600,0.001000,0.001000,0.001000,0.001000,0.001000
1008.807692,0.006976,0.001000,0.001000,0.001000,0.001000,0.001000
1008.826923,0.008347,0.001000,0.001000,0.001000,0.001000,0.001000
1008.846154,0.009711,0.001000,0.001000,0.001000,0.001000,0.001000
1008.865385,0.011068,0.001000,0.001000,0.001000,0.001000,0.001000
1008.884615,0.012416,0.001000,0.001000,0.001000,0.001000,0.001000
1008.903846,0.013755,0.001000,0.001000,0.001000,0.001000,0.001000
1008.923077,0.015083,0.001000,0.001000,0.001000,0.001000,0.001000
1008.942308,0.016400,0.001000,0.001000,0.001000,0.001000,0.001000
1008.961538,0.017704,0.001000,0.001000,0.001000,0.001000,0.001000
1008.980769,0.018994,0.001000,0.001000,0.001000,0.001000,0.001000
1009.000000,0.020270,0.001000,0.001000,0.001000,0.001000,0.001000
1009.019231,0.021530,0.001000,0.001000,0.001000,0.001000,0.001000
1009.038462,0.022773,0.001000,0.001000,0.001000,0.001000,0.001000
1009.057692,0.023999,0.001000,0.001000,0.001000,0.001000,0.001000
1009.076923,0.025207,0.001000,0.001000,0.001000,0.001000,0.001000
1009.096154,0.026395,0.001000,0.001000,0.001000,0.001000,0.001000
1009.115385,0.027563,0.001000,0.001000,0.001000,0.001000,0.001000
1009.134615,0.028709,0.001000,0.001000,0.001000,0.001000,0.001000
1009.153846,0.029834,0.001000,0.001000,0.001000,0.001000,0.001000
1009.173077,0.030935,0.001000,0.001000,0.001000,0.001000,0.001000
1009.192308,0.032013,0.001000,0.001000,0.001000,0.001000,0.001000
1009.211538,0.033066,0.001000,0.001000,0.001000,0.001000,0.001000
1009.230769,0.034094,0.001000,0.001000,0.001000,0.001000,0.001000
1009.250000,0.035095,0.001000,0.001000,0.001000,0.001000,0.001000
1009.269231,0.036070,0.001000,0.001000,0.001000,0.001000,0.001000
1009.288462,0.037016,0.001000,0.001000,0.001000,0.001000,0.001000
1009.307692,0.037934,0.001000,0.001000,0.001000,0.001000,0.001000
1009.326923,0.038823,0.001000,0.001000,0.001000,0.001000,0.001000
1009.346154,0.039683,0.001000,0.001000,0.001000,0.001000,0.001000
1009.365385,0.040511,0.001000,0.001000,0.001000,0.001000,0.001000
1009.384615,0.041308,0.001000,0.001000,0.001000,0.001000,0.001000
1009.403846,0.042074,0.001000,0.001000,0.001000,0.001000,0.001000
1009.423077,0.042807,0.001000,0.001000,0.001000,0.001000,0.001000
1009.442308,0.043507,0.001000,0.001000,0.001000,0.001000,0.001000
1009.461538,0.044174,0.001000,0.001000,0.001000,0.001000,0.001000
1009.480769,0.044807,0.001000,0.001000,0.001000,0.001000,0.001000
1009.500000,0.045405,0.001000,0.001000,0.001000,0.001000,0.001000
1009.519231,0.045968,0.001000,0.001000,0.001000,0.001000,0.001000
1009.538462,0.046496,0.001000,0.001000,0.001000,0.001000,0.001000
1009.557692,0.046989,0.001000,0.001000,0.001000,0.001000,0.001000
1009.576923,0.047445,0.001000,0.001000,0.001000,0.001000,0.001000
1009.596154,0.047864,0.001000,0.001000,0.001000,0.001000,0.001000
1009.615385,0.048247,0.001000,0.001000,0.001000,0.001000,0.001000
1009.634615,0.048592,0.001000,0.001000,0.001000,0.001000,0.001000
1009.653846,0.048900,0.001000,0.001000,0.001000,0.001000,0.001000
1009.673077,0.049171,0.001000,0.001000,0.001000,0.001000,0.001000
1009.692308,0.049403,0.001000,0.001000,0.001000,0.001000,0.001000
1009.711538,0.049598,0.001000,0.001000,0.001000,0.001000,0.001000
1009.730769,0.049754,0.001000,0.001000,0.001000,0.001000,0.001000
1009.750000,0.049873,0.001000,0.001000,0.001000,0.001000,0.001000
1009.769231,0.049952,0.001000,0.001000,0.001000,0.001000,0.001000
1009.788462,0.049994,0.001000,0.001000,0.001000,0.001000,0.001000
1009.807692,0.049997,0.001000,0.001000,0.001000,0.001000,0.001000
1009.826923,0.049961,0.001000,0.001000,0.001000,0.001000,0.001000
1009.846154,0.049887,0.001000,0.001000,0.001000,0.001000,0.001000
1009.865385,0.049774,0.001000,0.001000,0.001000,0.001000,0.001000
1009.884615,0.049623,0.001000,0.001000,0.001000,0.001000,0.001000
1009.903846,0.049435,0.001000,0.001000,0.001000,0.001000,0.001000
1009.923077,0.049207,0.001000,0.001000,0.001000,0.001000,0.001000
1009.942308,0.048943,0.001000,0.001000,0.001000,0.001000,0.001000
1009.961538,0.048640,0.001000,0.001000,0.001000,0.001000,0.001000
1009.980769,0.048300,0.001000,0.001000,0.001000,0.001000,0.001000
1010.000000,0.047923,0.001000,0.001000,0.001000,0.001000,0.001000
1010.019231,0.047509,0.001000,0.001000,0.001000,0.001000,0.001000
1010.038462,0.047058,0.001000,0.001000,0.001000,0.001000,0.001000
1010.057692,0.046571,0.001000,0.001000,0.001000,0.001000,0.001000
1010.076923,0.046049,0.001000,0.001000,0.001000,0.001000,0.001000
1010.096154,0.045490,0.001000,0.001000,0.001000,0.001000,0.001000
1010.115385,0.044897,0.001000,0.001000,0.001000,0.001000,0.001000
1010.134615,0.044270,0.001000,0.001000,0.001000,0.001000,0.001000
1010.153846,0.043608,0.001000,0.001000,0.001000,0.001000,0.001000
1010.173077,0.042913,0.001000,0.001000,0.001000,0.001000,0.001000
1010.192308,0.042184,0.001000,0.001000,0.001000,0.001000,0.001000
1010.211538,0.041423,0.001000,0.001000,0.001000,0.001000,0.001000
1010.230769,0.040631,0.001000,0.001000,0.001000,0.001000,0.001000
1010.250000,0.039807,0.001000,0.001000,0.001000,0.001000,0.001000
1010.269231,0.038952,0.001000,0.001000,0.001000,0.001000,0.001000
1010.288462,0.038068,0.001000,0.001000,0.001000,0.001000,0.001000
1010.307692,0.037154,0.001000,0.001000,0.001000,0.001000,0.001000
1010.326923,0.036211,0.001000,0.001000,0.001000,0.001000,0.001000
1010.346154,0.035241,0.001000,0.001000,0.001000,0.001000,0.001000
1010.365385,0.034243,0.001000,0.001000,0.001000,0.001000,0.001000
1010.384615,0.033220,0.001000,0.001000,0.001000,0.001000,0.001000
1010.403846,0.032170,0.001000,0.001000,0.001000,0.001000,0.001000
1010.423077,0.031096,0.001000,0.001000,0.001000,0.001000,0.001000
1010.442308,0.029998,0.001000,0.001000,0.001000,0.001000,0.001000
1010.461538,0.028877,0.001000,0.001000,0.001000,0.001000,0.001000
1010.480769,0.027733,0.001000,0.001000,0.001000,0.001000,0.001000
1010.500000,0.026569,0.001000,0.001000,0.001000,0.001000,0.001000
1010.519231,0.025383,0.001000,0.001000,0.001000,0.001000,0.001000
1010.538462,0.024179,0.001000,0.001000,0.001000,0.001000,0.001000
1010.557692,0.022955,0.001000,0.001000,0.001000,0.001000,0.001000
1010.576923,0.021714,0.001000,0.001000,0.001000,0.001000,0.001000
1010.596154,0.020457,0.001000,0.001000,0.001000,0.001000,0.001000
1010.615385,0.019183,0.001000,0.001000,0.001000,0.001000,0.001000
1010.634615,0.017895,0.001000,0.001000,0.001000,0.001000,0.001000
1010.653846,0.016593,0.001000,0.001000,0.001000,0.001000,0.001000
1010.673077,0.015278,0.001000,0.001000,0.001000,0.001000,0.001000
1010.692308,0.013952,0.001000,0.001000,0.001000,0.001000,0.001000
1010.711538,0.012614,0.001000,0.001000,0.001000,0.001000,0.001000
1010.730769,0.011267,0.001000,0.001000,0.001000,0.001000,0.001000
1010.750000,0.009912,0.001000,0.001000,0.001000,0.001000,0.001000
1010.769231,0.008549,0.001000,0.001000,0.001000,0.001000,0.001000
1010.788462,0.007179,0.001000,0.001000,0.001000,0.001000,0.001000
1010.807692,0.005803,0.001000,0.001000,0.001000,0.001000,0.001000
1010.826923,0.004424,0.001000,0.001000,0.001000,0.001000,0.001000
1010.846154,0.003040,0.001000,0.001000,0.001000,0.001000,0.001000
1010.865385,0.001655,0.001000,0.001000,0.001000,0.001000,0.001000
1010.884615,0.000268,0.001000,0.001000,0.001000,0.001000,0.001000
1010.903846,-0.001119,0.001000,0.001000,0.001000,0.001000,0.001000
1010.923077,-0.002505,0.001000,0.001000,0.001000,0.001000,0.001000
1010.942308,-0.003890,0.001000,0.001000,0.001000,0.001000,0.001000
1010.961538,-0.005271,0.001000,0.001000,0.001000,0.001000,0.001000
1010.980769,-0.006648,0.001000,0.001000,0.001000,0.001000,0.001000
1011.000000,-0.008020,0.001000,0.001000,0.001000,0.001000,0.001000
1011.019231,-0.009386,0.001000,0.001000,0.001000,0.001000,0.001000
1011.038462,-0.010745,0.001000,0.001000,0.001000,0.001000,0.001000
1011.057692,-0.012095,0.001000,0.001000,0.001000,0.001000,0.001000
1011.076923,-0.013436,0.001000,0.001000,0.001000,0.001000,0.001000
1011.096154,-0.014767,0.001000,0.001000,0.001000,0.001000,0.001000
1011.115385,-0.016087,0.001000,0.001000,0.001000,0.001000,0.001000
1011.134615,-0.017394,0.001000,0.001000,0.001000,0.001000,0.001000
1011.153846,-0.018687,0.001000,0.001000,0.001000,0.001000,0.001000
1011.173077,-0.019967,0.001000,0.001000,0.001000,0.001000,0.001000
1011.192308,-0.021231,0.001000,0.001000,0.001000,0.001000,0.001000
1011.211538,-0.022478,0.001000,0.001000,0.001000,0.001000,0.001000
1011.230769,-0.023708,0.001000,0.001000,0.001000,0.001000,0.001000
1011.250000,-0.024920,0.001000,0.001000,0.001000,0.001000,0.001000
1011.269231,-0.026113,0.001000,0.001000,0.001000,0.001000,0.001000
1011.288462,-0.027286,0.001000,0.001000,0.001000,0.001000,0.001000
1011.307692,-0.028438,0.001000,0.001000,0.001000,0.001000,0.001000
1011.326923,-0.029568,0.001000,0.001000,0.001000,0.001000,0.001000
1011.346154,-0.030675,0.001000,0.001000,0.001000,0.001000,0.001000
1011.365385,-0.031758,0.001000,0.001000,0.001000,0.001000,0.001000
1011.384615,-0.032817,0.001000,0.001000,0.001000,0.001000,0.001000
1011.403846,-0.033851,0.001000,0.001000,0.001000,0.001000,0.001000
1011.423077,-0.034859,0.001000,0.001000,0.001000,0.001000,0.001000
1011.442308,-0.035840,0.001000,0.001000,0.001000,0.001000,0.001000
1011.461538,-0.036793,0.001000,0.001000,0.001000,0.001000,0.001000
1011.480769,-0.037718,0.001000,0.001000,0.001000,0.001000,0.001000
1011.500000,-0.038614,0.001000,0.001000,0.001000,0.001000,0.001000
1011.519231,-0.039480,0.001000,0.001000,0.001000,0.001000,0.001000
1011.538462,-0.040316,0.001000,0.001000,0.001000,0.001000,0.001000
1011.557692,-0.041121,0.001000,0.001000,0.001000,0.001000,0.001000
1011.576923,-0.041894,0.001000,0.001000,0.001000,0.001000,0.001000
1011.596154,-0.042635,0.001000,0.001000,0.001000,0.001000,0.001000
1011.615385,-0.043343,0.001000,0.001000,0.001000,0.001000,0.001000
1011.634615,-0.044018,0.001000,0.001000,0.001000,0.001000,0.001000
1011.653846,-0.044659,0.001000,0.001000,0.001000,0.001000,0.001000
1011.673077,-0.045266,0.001000,0.001000,0.001000,0.001000,0.001000
1011.692308,-0.045837,0.001000,0.001000,0.001000,0.001000,0.001000
1011.711538,-0.046374,0.001000,0.001000,0.001000,0.001000,0.001000
1011.730769,-0.046874,0.001000,0.001000,0.001000,0.001000,0.001000
1011.750000,-0.047339,0.001000,0.001000,0.001000,0.001000,0.001000
1011.769231,-0.047767,0.001000,0.001000,0.001000,0.001000,0.001000
1011.788462,-0.048159,0.001000,0.001000,0.001000,0.001000,0.001000
1011.807692,-0.048513,0.001000,0.001000,0.001000,0.001000,0.001000
1011.826923,-0.048830,0.001000,0.001000,0.001000,0.001000,0.001000
1011.846154,-0.049110,0.001000,0.001000,0.001000,0.001000,0.001000
1011.865385,-0.049351,0.001000,0.001000,0.001000,0.001000,0.001000
1011.884615,-0.049555,0.001000,0.001000,0.001000,0.001000,0.001000
1011.903846,-0.049721,0.001000,0.001000,0.001000,0.001000,0.001000
1011.923077,-0.049848,0.001000,0.001000,0.001000,0.001000,0.001000
1011.942308,-0.049937,0.001000,0.001000,0.001000,0.001000,0.001000
1011.961538,-0.049987,0.001000,0.001000,0.001000,0.001000,0.001000
1011.980769,-0.049999,0.001000,0.001000,0.001000,0.001000,0.001000
1012.000000,-0.049973,0.001000,0.001000,0.001000,0.001000,0.001000
1012.019231,-0.049908,0.001000,0.001000,0.001000,0.001000,0.001000
1012.038462,-0.049805,0.001000,0.001000,0.001000,0.001000,0.001000
1012.057692,-0.049663,0.001000,0.001000,0.001000,0.001000,0.001000
1012.076923,-0.049483,0.001000,0.001000,0.001000,0.001000,0.001000
1012.096154,-0.049265,0.001000,0.001000,0.001000,0.001000,0.001000
1012.115385,-0.049009,0.001000,0.001000,0.001000,0.001000,0.001000
1012.134615,-0.048716,0.001000,0.001000,0.001000,0.001000,0.001000
1012.153846,-0.048385,0.001000,0.001000,0.001000,0.001000,0.001000
1012.173077,-0.048016,0.001000,0.001000,0.001000,0.001000,0.001000
1012.192308,-0.047611,0.001000,0.001000,0.001000,0.001000,0.001000
1012.211538,-0.047169,0.001000,0.001000,0.001000,0.001000,0.001000
1012.230769,-0.046691,0.001000,0.001000,0.001000,0.001000,0.001000
1012.250000,-0.046177,0.001000,0.001000,0.001000,0.001000,0.001000
1012.269231,-0.045627,0.001000,0.001000,0.001000,0.001000,0.001000
1012.288462,-0.045042,0.001000,0.001000,0.001000,0.001000,0.001000
1012.307692,-0.044423,0.001000,0.001000,0.001000,0.001000,0.001000
1012.326923,-0.043769,0.001000,0.001000,0.001000,0.001000,0.001000
1012.346154,-0.043081,0.001000,0.001000,0.001000,0.001000,0.001000
1012.365385,-0.042361,0.001000,0.001000,0.001000,0.001000,0.001000
1012.384615,-0.041608,0.001000,0.001000,0.001000,0.001000,0.001000
1012.403846,-0.040823,0.001000,0.001000,0.001000,0.001000,0.001000
1012.423077,-0.040006,0.001000,0.001000,0.001000,0.001000,0.001000
1012.442308,-0.039159,0.001000,0.001000,0.001000,0.001000,0.001000
1012.461538,-0.038281,0.001000,0.001000,0.001000,0.001000,0.001000
1012.480769,-0.037374,0.001000,0.001000,0.001000,0.001000,0.001000
1012.500000,-0.036439,0.001000,0.001000,0.001000,0.001000,0.001000
1012.519231,-0.035475,0.001000,0.001000,0.001000,0.001000,0.001000
1012.538462,-0.034484,0.001000,0.001000,0.001000,0.001000,0.001000
1012.557692,-0.033466,0.001000,0.001000,0.001000,0.001000,0.001000
1012.576923,-0.032423,0.001000,0.001000,0.001000,0.001000,0.001000
1012.596154,-0.031355,0.001000,0.001000,0.001000,0.001000,0.001000
1012.615385,-0.030262,0.001000,0.001000,0.001000,0.001000,0.001000
1012.634615,-0.029146,0.001000,0.001000,0.001000,0.001000,0.001000
1012.653846,-0.028008,0.001000,0.001000,0.001000,0.001000,0.001000
1012.673077,-0.026848,0.001000,0.001000,0.001000,0.001000,0.001000
1012.692308,-0.025668,0.001000,0.001000,0.001000,0.001000,0.001000
1012.711538,-0.024468,0.001000,0.001000,0.001000,0.001000,0.001000
1012.730769,-0.023249,0.001000,0.001000,0.001000,0.001000,0.001000
1012.750000,-0.022012,0.001000,0.001000,0.001000,0.001000,0.001000
1012.769231,-0.020758,0.001000,0.001000,0.001000,0.001000,0.001000
1012.788462,-0.019488,0.001000,0.001000,0.001000,0.001000,0.001000
1012.807692,-0.018204,0.001000,0.001000,0.001000,0.001000,0.001000
1012.826923,-0.016905,0.001000,0.001000,0.001000,0.001000,0.001000
1012.846154,-0.015593,0.001000,0.001000,0.001000,0.001000,0.001000
1012.865385,-0.014269,0.001000,0.001000,0.001000,0.001000,0.001000
1012.884615,-0.012934,0.001000,0.001000,0.001000,0.001000,0.001000
1012.903846,-0.011590,0.001000,0.001000,0.001000,0.001000,0.001000
1012.923077,-0.010236,0.001000,0.001000,0.001000,0.001000,0.001000
1012.942308,-0.008875,0.001000,0.001000,0.001000,0.001000,0.001000
1012.961538,-0.007506,0.001000,0.001000,0.001000,0.001000,0.001000
1012.980769,-0.006132,0.001000,0.001000,0.001000,0.001000,0.001000
1013.000000,-0.004753,0.001000,0.001000,0.001000,0.001000,0.001000
1013.019231,-0.003371,0.001000,0.001000,0.001000,0.001000,0.001000
1013.038462,-0.001985,0.001000,0.001000,0.001000,0.001000,0.001000
1013.057692,-0.000599,0.001000,0.001000,0.001000,0.001000,0.001000
1013.076923,0.000788,0.001000,0.001000,0.001000,0.001000,0.001000
1013.096154,0.002175,0.001000,0.001000,0.001000,0.001000,0.001000
1013.115385,0.003560,0.001000,0.001000,0.001000,0.001000,0.001000
1013.134615,0.004942,0.001000,0.001000,0.001000,0.001000,0.001000
1013.153846,0.006320,0.001000,0.001000,0.001000,0.001000,0.001000
1013.173077,0.007693,0.001000,0.001000,0.001000,0.001000,0.001000
1013.192308,0.009061,0.001000,0.001000,0.001000,0.001000,0.001000
1013.211538,0.010421,0.001000,0.001000,0.001000,0.001000,0.001000
1013.230769,0.011774,0.001000,0.001000,0.001000,0.001000,0.001000
1013.250000,0.013117,0.001000,0.001000,0.001000,0.001000,0.001000
1013.269231,0.014451,0.001000,0.001000,0.001000,0.001000,0.001000
1013.288462,0.015773,0.001000,0.001000,0.001000,0.001000,0.001000
1013.307692,0.017083,0.001000,0.001000,0.001000,0.001000,0.001000
1013.326923,0.018380,0.001000,0.001000,0.001000,0.001000,0.001000
1013.346154,0.019663,0.001000,0.001000,0.001000,0.001000,0.001000
1013.365385,0.020930,0.001000,0.001000,0.001000,0.001000,0.001000
1013.384615,0.022182,0.001000,0.001000,0.001000,0.001000,0.001000
1013.403846,0.023416,0.001000,0.001000,0.001000,0.001000,0.001000
1013.423077,0.024633,0.001000,0.001000,0.001000,0.001000,0.001000
1013.442308,0.025830,0.001000,0.001000,0.001000,0.001000,0.001000
1013.461538,0.027008,0.001000,0.001000,0.001000,0.001000,0.001000
1013.480769,0.028165,0.001000,0.001000,0.001000,0.001000,0.001000
1013.500000,0.029300,0.001000,0.001000,0.001000,0.001000,0.001000
1013.519231,0.030413,0.001000,0.001000,0.001000,0.001000,0.001000
1013.538462,0.031502,0.001000,0.001000,0.001000,0.001000,0.001000
1013.557692,0.032567,0.001000,0.001000,0.001000,0.001000,0.001000
1013.576923,0.033607,0.001000,0.001000,0.001000,0.001000,0.001000
1013.596154,0.034621,0.001000,0.001000,0.001000,0.001000,0.001000
1013.615385,0.035608,0.001000,0.001000,0.001000,0.001000,0.001000
1013.634615,0.036568,0.001000,0.001000,0.001000,0.001000,0.001000
1013.653846,0.037500,0.001000,0.001000,0.001000,0.001000,0.001000
1013.673077,0.038403,0.001000,0.001000,0.001000,0.001000,0.001000
1013.692308,0.039276,0.001000,0.001000,0.001000,0.001000,0.001000
1013.711538,0.040119,0.001000,0.001000,0.001000,0.001000,0.001000
1013.730769,0.040932,0.001000,0.001000,0.001000,0.001000,0.001000
1013.750000,0.041713,0.001000,0.001000,0.001000,0.001000,0.001000
1013.769231,0.042461,0.001000,0.001000,0.001000,0.001000,0.001000
1013.788462,0.043177,0.001000,0.001000,0.001000,0.001000,0.001000
1013.807692,0.043860,0.001000,0.001000,0.001000,0.001000,0.001000
1013.826923,0.044509,0.001000,0.001000,0.001000,0.001000,0.001000
1013.846154,0.045124,0.001000,0.001000,0.001000,0.001000,0.001000
1013.865385,0.045704,0.001000,0.001000,0.001000,0.001000,0.001000
1013.884615,0.046249,0.001000,0.001000,0.001000,0.001000,0.001000
1013.903846,0.046758,0.001000,0.001000,0.001000,0.001000,0.001000
1013.923077,0.047231,0.001000,0.001000,0.001000,0.001000,0.001000
1013.942308,0.047668,0.001000,0.001000,0.001000,0.001000,0.001000
1013.961538,0.048069,0.001000,0.001000,0.001000,0.001000,0.001000
1013.980769,0.048432,0.001000,0.001000,0.001000,0.001000,0.001000
1014.000000,0.048758,0.001000,0.001000,0.001000,0.001000,0.001000
1014.019231,0.049046,0.001000,0.001000,0.001000,0.001000,0.001000
1014.038462,0.049297,0.001000,0.001000,0.001000,0.001000,0.001000
1014.057692,0.049510,0.001000,0.001000,0.001000,0.001000,0.001000
1014.076923,0.049685,0.001000,0.001000,0.001000,0.001000,0.001000
1014.096154,0.049821,0.001000,0.001000,0.001000,0.001000,0.001000
1014.115385,0.049919,0.001000,0.001000,0.001000,0.001000,0.001000
1014.134615,0.049979,0.001000,0.001000,0.001000,0.001000,0.001000
1014.153846,0.050000,0.001000,0.001000,0.001000,0.001000,0.001000
1014.173077,0.049983,0.001000,0.001000,0.001000,0.001000,0.001000
1014.192308,0.049927,0.001000,0.001000,0.001000,0.001000,0.001000
1014.211538,0.049833,0.001000,0.001000,0.001000,0.001000,0.001000
1014.230769,0.049700,0.001000,0.001000,0.001000,0.001000,0.001000
1014.250000,0.049529,0.001000,0.001000,0.001000,0.001000,0.001000
1014.269231,0.049321,0.001000,0.001000,0.001000,0.001000,0.001000
1014.288462,0.049074,0.001000,0.001000,0.001000,0.001000,0.001000
1014.307692,0.048789,0.001000,0.001000,0.001000,0.001000,0.001000
1014.326923,0.048467,0.001000,0.001000,0.001000,0.001000,0.001000
1014.346154,0.048107,0.001000,0.001000,0.001000,0.001000,0.001000
1014.365385,0.047711,0.001000,0.001000,0.001000,0.001000,0.001000
1014.384615,0.047278,0.001000,0.001000,0.001000,0.001000,0.001000
1014.403846,0.046808,0.001000,0.001000,0.001000,0.001000,0.001000
1014.423077,0.046302,0.001000,0.001000,0.001000,0.001000,0.001000
1014.442308,0.045761,0.001000,0.001000,0.001000,0.001000,0.001000
1014.461538,0.045185,0.001000,0.001000,0.001000,0.001000,0.001000
1014.480769,0.044573,0.001000,0.001000,0.001000,0.001000,0.001000
1014.500000,0.043928,0.001000,0.001000,0.001000,0.001000,0.001000
1014.519231,0.043249,0.001000,0.001000,0.001000,0.001000,0.001000
1014.538462,0.042536,0.001000,0.001000,0.001000,0.001000,0.001000
1014.557692,0.041790,0.001000,0.001000,0.001000,0.001000,0.001000
1014.576923,0.041013,0.001000,0.001000,0.001000,0.001000,0.001000
1014.596154,0.040204,0.001000,0.001000,0.001000,0.001000,0.001000
1014.615385,0.039364,0.001000,0.001000,0.001000,0.001000,0.001000
1014.634615,0.038493,0.001000,0.001000,0.001000,0.001000,0.001000
1014.653846,0.037593,0.001000,0.001000,0.001000,0.001000,0.001000
1014.673077,0.036664,0.001000,0.001000,0.001000,0.001000,0.001000
1014.692308,0.035707,0.001000,0.001000,0.001000,0.001000,0.001000
1014.711538,0.034723,0.001000,0.001000,0.001000,0.001000,0.001000
1014.730769,0.033711,0.001000,0.001000,0.001000,0.001000,0.001000
1014.750000,0.032674,0.001000,0.001000,0.001000,0.001000,0.001000
1014.769231,0.031612,0.001000,0.001000,0.001000,0.001000,0.001000
1014.788462,0.030525,0.001000,0.001000,0.001000,0.001000,0.001000
1014.807692,0.029415,0.001000,0.001000,0.001000,0.001000,0.001000
1014.826923,0.028282,0.001000,0.001000,0.001000,0.001000,0.001000
1014.846154,0.027127,0.001000,0.001000,0.001000,0.001000,0.001000
1014.865385,0.025952,0.001000,0.001000,0.001000,0.001000,0.001000
1014.884615,0.024756,0.001000,0.001000,0.001000,0.001000,0.001000
1014.903846,0.023541,0.001000,0.001000,0.001000,0.001000,0.001000
1014.923077,0.022309,0.001000,0.001000,0.001000,0.001000,0.001000
1014.942308,0.021059,0.001000,0.001000,0.001000,0.001000,0.001000
1014.961538,0.019793,0.001000,0.001000,0.001000,0.001000,0.001000
1014.980769,0.018512,0.001000,0.001000,0.001000,0.001000,0.001000
1015.000000,0.017216,0.001000,0.001000,0.001000,0.001000,0.001000
1015.019231,0.015907,0.001000,0.001000,0.001000,0.001000,0.001000
1015.038462,0.014586,0.001000,0.001000,0.001000,0.001000,0.001000
1015.057692,0.013254,0.001000,0.001000,0.001000,0.001000,0.001000
1015.076923,0.011911,0.001000,0.001000,0.001000,0.001000,0.001000
1015.096154,0.010560,0.001000,0.001000,0.001000,0.001000,0.001000
1015.115385,0.009200,0.001000,0.001000,0.001000,0.001000,0.001000
1015.134615,0.007833,0.001000,0.001000,0.001000,0.001000,0.001000
1015.153846,0.006460,0.001000,0.001000,0.001000,0.001000,0.001000
1015.173077,0.005083,0.001000,0.001000,0.001000,0.001000,0.001000
1015.192308,0.003701,0.001000,0.001000,0.001000,0.001000,0.001000
1015.211538,0.002316,0.001000,0.001000,0.001000,0.001000,0.001000
1015.230769,0.000930,0.001000,0.001000,0.001000,0.001000,0.001000
1015.250000,-0.000457,0.001000,0.001000,0.001000,0.001000,0.001000
1015.269231,-0.001844,0.001000,0.001000,0.001000,0.001000,0.001000
1015.288462,-0.003229,0.001000,0.001000,0.001000,0.001000,0.001000
1015.307692,-0.004612,0.001000,0.001000,0.001000,0.001000,0.001000
1015.326923,-0.005991,0.001000,0.001000,0.001000,0.001000,0.001000
1015.346154,-0.007366,0.001000,0.001000,0.001000,0.001000,0.001000
1015.365385,-0.008735,0.001000,0.001000,0.001000,0.001000,0.001000
1015.384615,-0.010097,0.001000,0.001000,0.001000,0.001000,0.001000
1015.403846,-0.011452,0.001000,0.001000,0.001000,0.001000,0.001000
1015.423077,-0.012798,0.001000,0.001000,0.001000,0.001000,0.001000
1015.442308,-0.014134,0.001000,0.001000,0.001000,0.001000,0.001000
1015.461538,-0.015459,0.001000,0.001000,0.001000,0.001000,0.001000
1015.480769,-0.016772,0.001000,0.001000,0.001000,0.001000,0.001000
1015.500000,-0.018072,0.001000,0.001000,0.001000,0.001000,0.001000
1015.519231,-0.019358,0.001000,0.001000,0.001000,0.001000,0.001000
1015.538462,-0.020629,0.001000,0.001000,0.001000,0.001000,0.001000
1015.557692,-0.021885,0.001000,0.001000,0.001000,0.001000,0.001000
1015.576923,-0.023124,0.001000,0.001000,0.001000,0.001000,0.001000
1015.596154,-0.024344,0.001000,0.001000,0.001000,0.001000,0.001000
1015.615385,-0.025546,0.001000,0.001000,0.001000,0.001000,0.001000
1015.634615,-0.026729,0.001000,0.001000,0.001000,0.001000,0.001000
1015.653846,-0.027891,0.001000,0.001000,0.001000,0.001000,0.001000
1015.673077,-0.029031,0.001000,0.001000,0.001000,0.001000,0.001000
1015.692308,-0.030149,0.001000,0.001000,0.001000,0.001000,0.001000
1015.711538,-0.031244,0.001000,0.001000,0.001000,0.001000,0.001000
1015.730769,-0.032315,0.001000,0.001000,0.001000,0.001000,0.001000
1015.750000,-0.033361,0.001000,0.001000,0.001000,0.001000,0.001000
1015.769231,-0.034381,0.001000,0.001000,0.001000,0.001000,0.001000
1015.788462,-0.035375,0.001000,0.001000,0.001000,0.001000,0.001000
1015.807692,-0.036342,0.001000,0.001000,0.001000,0.001000,0.001000
1015.826923,-0.037280,0.001000,0.001000,0.001000,0.001000,0.001000
1015.846154,-0.038190,0.001000,0.001000,0.001000,0.001000,0.001000
1015.865385,-0.039071,0.001000,0.001000,0.001000,0.001000,0.001000
1015.884615,-0.039921,0.001000,0.001000,0.001000,0.001000,0.001000
1015.903846,-0.040741,0.001000,0.001000,0.001000,0.001000,0.001000
1015.923077,-0.041529,0.001000,0.001000,0.001000,0.001000,0.001000
1015.942308,-0.042286,0.001000,0.001000,0.001000,0.001000,0.001000
1015.961538,-0.043009,0.001000,0.001000,0.001000,0.001000,0.001000
1015.980769,-0.043700,0.001000,0.001000,0.001000,0.001000,0.001000
1016.000000,-0.044357,0.001000,0.001000,0.001000,0.001000,0.001000
1016.019231,-0.044980,0.001000,0.001000,0.001000,0.001000,0.001000
1016.038462,-0.045569,0.001000,0.001000,0.001000,0.001000,0.001000
1016.057692,-0.046122,0.001000,0.001000,0.001000,0.001000,0.001000
1016.076923,-0.046640,0.001000,0.001000,0.001000,0.001000,0.001000
1016.096154,-0.047122,0.001000,0.001000,0.001000,0.001000,0.001000
1016.115385,-0.047567,0.001000,0.001000,0.001000,0.001000,0.001000
1016.134615,-0.047977,0.001000,0.001000,0.001000,0.001000,0.001000
1016.153846,-0.048349,0.001000,0.001000,0.001000,0.001000,0.001000
1016.173077,-0.048684,0.001000,0.001000,0.001000,0.001000,0.001000
1016.192308,-0.048981,0.001000,0.001000,0.001000,0.001000,0.001000
1016.211538,-0.049241,0.001000,0.001000,0.001000,0.001000,0.001000
1016.230769,-0.049463,0.001000,0.001000,0.001000,0.001000,0.001000
1016.250000,-0.049646,0.001000,0.001000,0.001000,0.001000,0.001000
1016.269231,-0.049792,0.001000,0.001000,0.001000,0.001000,0.001000
1016.288462,-0.049899,0.001000,0.001000,0.001000,0.001000,0.001000
1016.307692,-0.049968,0.001000,0.001000,0.001000,0.001000,0.001000
1016.326923,-0.049998,0.001000,0.001000,0.001000,0.001000,0.001000
1016.346154,-0.049990,0.001000,0.001000,0.001000,0.001000,0.001000
1016.365385,-0.049944,0.001000,0.001000,0.001000,0.001000,0.001000
1016.384615,-0.049859,0.001000,0.001000,0.001000,0.001000,0.001000
1016.403846,-0.049735,0.001000,0.001000,0.001000,0.001000,0.001000
1016.423077,-0.049574,0.001000,0.001000,0.001000,0.001000,0.001000
1016.442308,-0.049374,0.001000,0.001000,0.001000,0.001000,0.001000
1016.461538,-0.049136,0.001000,0.001000,0.001000,0.001000,0.001000
1016.480769,-0.048860,0.001000,0.001000,0.001000,0.001000,0.001000
1016.500000,-0.048547,0.001000,0.001000,0.001000,0.001000,0.001000
1016.519231,-0.048197,0.001000,0.001000,0.001000,0.001000,0.001000
1016.538462,-0.047809,0.001000,0.001000,0.001000,0.001000,0.001000
1016.557692,-0.047384,0.001000,0.001000,0.001000,0.001000,0.001000
1016.576923,-0.046923,0.001000,0.001000,0.001000,0.001000,0.001000
1016.596154,-0.046426,0.001000,0.001000,0.001000,0.001000,0.001000
1016.615385,-0.045894,0.001000,0.001000,0.001000,0.001000,0.001000
1016.634615,-0.045325,0.001000,0.001000,0.001000,0.001000,0.001000
1016.653846,-0.044722,0.001000,0.001000,0.001000,0.001000,0.001000
1016.673077,-0.044085,0.001000,0.001000,0.001000,0.001000,0.001000
1016.692308,-0.043414,0.001000,0.001000,0.001000,0.001000,0.001000
1016.711538,-0.042709,0.001000,0.001000,0.001000,0.001000,0.001000
1016.730769,-0.041971,0.001000,0.001000,0.001000,0.001000,0.001000
1016.750000,-0.041201,0.001000,0.001000,0.001000,0.001000,0.001000
1016.769231,-0.040400,0.001000,0.001000,0.001000,0.001000,0.001000
1016.788462,-0.039567,0.001000,0.001000,0.001000,0.001000,0.001000
1016.807692,-0.038704,0.001000,0.001000,0.001000,0.001000,0.001000
1016.826923,-0.037811,0.001000,0.001000,0.001000,0.001000,0.001000
1016.846154,-0.036889,0.001000,0.001000,0.001000,0.001000,0.001000
1016.865385,-0.035938,0.001000,0.001000,0.001000,0.001000,0.001000
1016.884615,-0.034960,0.001000,0.001000,0.001000,0.001000,0.001000
1016.903846,-0.033955,0.001000,0.001000,0.001000,0.001000,0.001000
1016.923077,-0.032924,0.001000,0.001000,0.001000,0.001000,0.001000
1016.942308,-0.031867,0.001000,0.001000,0.001000,0.001000,0.001000
1016.961538,-0.030786,0.001000,0.001000,0.001000,0.001000,0.001000
1016.980769,-0.029682,0.001000,0.001000,0.001000,0.001000,0.001000
1017.000000,-0.028554,0.001000,0.001000,0.001000,0.001000,0.001000
1017.019231,-0.027405,0.001000,0.001000,0.001000,0.001000,0.001000
1017.038462,-0.026234,0.001000,0.001000,0.001000,0.001000,0.001000
1017.057692,-0.025043,0.001000,0.001000,0.001000,0.001000,0.001000
1017.076923,-0.023833,0.001000,0.001000,0.001000,0.001000,0.001000
1017.096154,-0.022604,0.001000,0.001000,0.001000,0.001000,0.001000
1017.115385,-0.021359,0.001000,0.001000,0.001000,0.001000,0.001000
1017.134615,-0.020096,0.001000,0.001000,0.001000,0.001000,0.001000
1017.153846,-0.018819,0.001000,0.001000,0.001000,0.001000,0.001000
1017.173077,-0.017526,0.001000,0.001000,0.001000,0.001000,0.001000
1017.192308,-0.016221,0.001000,0.001000,0.001000,0.001000,0.001000
1017.211538,-0.014902,0.001000,0.001000,0.001000,0.001000,0.001000
1017.230769,-0.013573,0.001000,0.001000,0.001000,0.001000,0.001000
1017.250000,-0.012233,0.001000,0.001000,0.001000,0.001000,0.001000
1017.269231,-0.010883,0.001000,0.001000,0.001000,0.001000,0.001000
1017.288462,-0.009525,0.001000,0.001000,0.001000,0.001000,0.001000
1017.307692,-0.008160,0.001000,0.001000,0.001000,0.001000,0.001000
1017.326923,-0.006788,0.001000,0.001000,0.001000,0.001000,0.001000
1017.346154,-0.005412,0.001000,0.001000,0.001000,0.001000,0.001000
1017.365385,-0.004031,0.001000,0.001000,0.001000,0.001000,0.001000
1017.384615,-0.002647,0.001000,0.001000,0.001000,0.001000,0.001000
1017.403846,-0.001261,0.001000,0.001000,0.001000,0.001000,0.001000
1017.423077,0.000126,0.001000,0.001000,0.001000,0.001000,0.001000
1017.442308,0.001513,0.001000,0.001000,0.001000,0.001000,0.001000
1017.461538,0.002899,0.001000,0.001000,0.001000,0.001000,0.001000
1017.480769,0.004283,0.001000,0.001000,0.001000,0.001000,0.001000
1017.500000,0.005663,0.001000,0.001000,0.001000,0.001000,0.001000
1017.519231,0.007039,0.001000,0.001000,0.001000,0.001000,0.001000
1017.538462,0.008409,0.001000,0.001000,0.001000,0.001000,0.001000
1017.557692,0.009773,0.001000,0.001000,0.001000,0.001000,0.001000
1017.576923,0.011130,0.001000,0.001000,0.001000,0.001000,0.001000
1017.596154,0.012477,0.001000,0.001000,0.001000,0.001000,0.001000
1017.615385,0.013816,0.001000,0.001000,0.001000,0.001000,0.001000
1017.634615,0.015143,0.001000,0.001000,0.001000,0.001000,0.001000
1017.653846,0.016459,0.001000,0.001000,0.001000,0.001000,0.001000
1017.673077,0.017763,0.001000,0.001000,0.001000,0.001000,0.001000
1017.692308,0.019052,0.001000,0.001000,0.001000,0.001000,0.001000
1017.711538,0.020327,0.001000,0.001000,0.001000,0.001000,0.001000
1017.730769,0.021587,0.001000,0.001000,0.001000,0.001000,0.001000
1017.750000,0.022830,0.001000,0.001000,0.001000,0.001000,0.001000
1017.769231,0.024055,0.001000,0.001000,0.001000,0.001000,0.001000
1017.788462,0.025261,0.001000,0.001000,0.001000,0.001000,0.001000
1017.807692,0.026449,0.001000,0.001000,0.001000,0.001000,0.001000
1017.826923,0.027615,0.001000,0.001000,0.001000,0.001000,0.001000
1017.846154,0.028761,0.001000,0.001000,0.001000,0.001000,0.001000
1017.865385,0.029885,0.001000,0.001000,0.001000,0.001000,0.001000
1017.884615,0.030985,0.001000,0.001000,0.001000,0.001000,0.001000
1017.903846,0.032062,0.001000,0.001000,0.001000,0.001000,0.001000
1017.923077,0.033114,0.001000,0.001000,0.001000,0.001000,0.001000
1017.942308,0.034140,0.001000,0.001000,0.001000,0.001000,0.001000
1017.961538,0.035140,0.001000,0.001000,0.001000,0.001000,0.001000
1017.980769,0.036113,0.001000,0.001000,0.001000,0.001000,0.001000
1018.000000,0.037059,0.001000,0.001000,0.001000,0.001000,0.001000
1018.019231,0.037976,0.001000,0.001000,0.001000,0.001000,0.001000
1018.038462,0.038863,0.001000,0.001000,0.001000,0.001000,0.001000
1018.057692,0.039721,0.001000,0.001000,0.001000,0.001000,0.001000
1018.076923,0.040548,0.001000,0.001000,0.001000,0.001000,0.001000
1018.096154,0.041344,0.001000,0.001000,0.001000,0.001000,0.001000
1018.115385,0.042108,0.001000,0.001000,0.001000,0.001000,0.001000
1018.134615,0.042840,0.001000,0.001000,0.001000,0.001000,0.001000
1018.153846,0.043538,0.001000,0.001000,0.001000,0.001000,0.001000
1018.173077,0.044204,0.001000,0.001000,0.001000,0.001000,0.001000
1018.192308,0.044835,0.001000,0.001000,0.001000,0.001000,0.001000
1018.211538,0.045432,0.001000,0.001000,0.001000,0.001000,0.001000
1018.230769,0.045993,0.001000,0.001000,0.001000,0.001000,0.001000
1018.250000,0.046520,0.001000,0.001000,0.001000,0.001000,0.001000
1018.269231,0.047010,0.001000,0.001000,0.001000,0.001000,0.001000
1018.288462,0.047464,0.001000,0.001000,0.001000,0.001000,0.001000
1018.307692,0.047882,0.001000,0.001000,0.001000,0.001000,0.001000
1018.326923,0.048263,0.001000,0.001000,0.001000,0.001000,0.001000
1018.346154,0.048607,0.001000,0.001000,0.001000,0.001000,0.001000
1018.365385,0.048913,0.001000,0.001000,0.001000,0.001000,0.001000
1018.384615,0.049182,0.001000,0.001000,0.001000,0.001000,0.001000
1018.403846,0.049413,0.001000,0.001000,0.001000,0.001000,0.001000
1018.423077,0.049606,0.001000,0.001000,0.001000,0.001000,0.001000
1018.442308,0.049761,0.001000,0.001000,0.001000,0.001000,0.001000
1018.461538,0.049877,0.001000,0.001000,0.001000,0.001000,0.001000
1018.480769,0.049955,0.001000,0.001000,0.001000,0.001000,0.001000
1018.500000,0.049995,0.001000,0.001000,0.001000,0.001000,0.001000
1018.519231,0.049996,0.001000,0.001000,0.001000,0.001000,0.001000
1018.538462,0.049958,0.001000,0.001000,0.001000,0.001000,0.001000
1018.557692,0.049882,0.001000,0.001000,0.001000,0.001000,0.001000
1018.576923,0.049768,0.001000,0.001000,0.001000,0.001000,0.001000
1018.596154,0.049616,0.001000,0.001000,0.001000,0.001000,0.001000
1018.615385,0.049425,0.001000,0.001000,0.001000,0.001000,0.001000
1018.634615,0.049196,0.001000,0.001000,0.001000,0.001000,0.001000
1018.653846,0.048930,0.001000,0.001000,0.001000,0.001000,0.001000
1018.673077,0.048625,0.001000,0.001000,0.001000,0.001000,0.001000
1018.692308,0.048284,0.001000,0.001000,0.001000,0.001000,0.001000
1018.711538,0.047905,0.001000,0.001000,0.001000,0.001000,0.001000
1018.730769,0.047489,0.001000,0.001000,0.001000,0.001000,0.001000
1018.750000,0.047037,0.001000,0.001000,0.001000,0.001000,0.001000
1018.769231,0.046548,0.001000,0.001000,0.001000,0.001000,0.001000
1018.788462,0.046024,0.001000,0.001000,0.001000,0.001000,0.001000
1018.807692,0.045464,0.001000,0.001000,0.001000,0.001000,0.001000
1018.826923,0.044870,0.001000,0.001000,0.001000,0.001000,0.001000
1018.846154,0.044240,0.001000,0.001000,0.001000,0.001000,0.001000
1018.865385,0.043577,0.001000,0.001000,0.001000,0.001000,0.001000
1018.884615,0.042880,0.001000,0.001000,0.001000,0.001000,0.001000
1018.903846,0.042150,0.001000,0.001000,0.001000,0.001000,0.001000
1018.923077,0.041388,0.001000,0.001000,0.001000,0.001000,0.001000
1018.942308,0.040594,0.001000,0.001000,0.001000,0.001000,0.001000
1018.961538,0.039768,0.001000,0.001000,0.001000,0.001000,0.001000
1018.980769,0.038912,0.001000,0.001000,0.001000,0.001000,0.001000
1019.000000,0.038027,0.001000,0.001000,0.001000,0.001000,0.001000
1019.019231,0.037111,0.001000,0.001000,0.001000,0.001000,0.001000
1019.038462,0.036168,0.001000,0.001000,0.001000,0.001000,0.001000
1019.057692,0.035196,0.001000,0.001000,0.001000,0.001000,0.001000
1019.076923,0.034197,0.001000,0.001000,0.001000,0.001000,0.001000
1019.096154,0.033172,0.001000,0.001000,0.001000,0.001000,0.001000
1019.115385,0.032122,0.001000,0.001000,0.001000,0.001000,0.001000
1019.134615,0.031047,0.001000,0.001000,0.001000,0.001000,0.001000
1019.153846,0.029947,0.001000,0.001000,0.001000,0.001000,0.001000
1019.173077,0.028825,0.001000,0.001000,0.001000,0.001000,0.001000
1019.192308,0.027681,0.001000,0.001000,0.001000,0.001000,0.001000
1019.211538,0.026515,0.001000,0.001000,0.001000,0.001000,0.001000
1019.230769,0.025329,0.001000,0.001000,0.001000,0.001000,0.001000
1019.250000,0.024123,0.001000,0.001000,0.001000,0.001000,0.001000
1019.269231,0.022899,0.001000,0.001000,0.001000,0.001000,0.001000
1019.288462,0.021657,0.001000,0.001000,0.001000,0.001000,0.001000
1019.307692,0.020399,0.001000,0.001000,0.001000,0.001000,0.001000
1019.326923,0.019125,0.001000,0.001000,0.001000,0.001000,0.001000
1019.346154,0.017836,0.001000,0.001000,0.001000,0.001000,0.001000
1019.365385,0.016533,0.001000,0.001000,0.001000,0.001000,0.001000
1019.384615,0.015218,0.001000,0.001000,0.001000,0.001000,0.001000
1019.403846,0.013891,0.001000,0.001000,0.001000,0.001000,0.001000
1019.423077,0.012553,0.001000,0.001000,0.001000,0.001000,0.001000
1019.442308,0.011206,0.001000,0.001000,0.001000,0.001000,0.001000
1019.461538,0.009850,0.001000,0.001000,0.001000,0.001000,0.001000
1019.480769,0.008486,0.001000,0.001000,0.001000,0.001000,0.001000
1019.500000,0.007116,0.001000,0.001000,0.001000,0.001000,0.001000
1019.519231,0.005741,0.001000,0.001000,0.001000,0.001000,0.001000
1019.538462,0.004361,0.001000,0.001000,0.001000,0.001000,0.001000
1019.557692,0.002977,0.001000,0.001000,0.001000,0.001000,0.001000
1019.576923,0.001592,0.001000,0.001000,0.001000,0.001000,0.001000
1019.596154,0.000205,0.001000,0.001000,0.001000,0.001000,0.001000
1019.615385,-0.001182,0.001000,0.001000,0.001000,0.001000,0.001000
1019.634615,-0.002568,0.001000,0.001000,0.001000,0.001000,0.001000
1019.653846,-0.003953,0.001000,0.001000,0.001000,0.001000,0.001000
1019.673077,-0.005334,0.001000,0.001000,0.001000,0.001000,0.001000
1019.692308,-0.006711,0.001000,0.001000,0.001000,0.001000,0.001000
1019.711538,-0.008083,0.001000,0.001000,0.001000,0.001000,0.001000
1019.730769,-0.009448,0.001000,0.001000,0.001000,0.001000,0.001000
1019.750000,-0.010807,0.001000,0.001000,0.001000,0.001000,0.001000
1019.769231,-0.012157,0.001000,0.001000,0.001000,0.001000,0.001000
1019.788462,-0.013497,0.001000,0.001000,0.001000,0.001000,0.001000
1019.807692,-0.014828,0.001000,0.001000,0.001000,0.001000,0.001000
1019.826923,-0.016146,0.001000,0.001000,0.001000,0.001000,0.001000
1019.846154,-0.017453,0.001000,0.001000,0.001000,0.001000,0.001000
1019.865385,-0.018746,0.001000,0.001000,0.001000,0.001000,0.001000
1019.884615,-0.020025,0.001000,0.001000,0.001000,0.001000,0.001000
1019.903846,-0.021288,0.001000,0.001000,0.001000,0.001000,0.001000
1019.923077,-0.022535,0.001000,0.001000,0.001000,0.001000,0.001000
1019.942308,-0.023764,0.001000,0.001000,0.001000,0.001000,0.001000
1019.961538,-0.024975,0.001000,0.001000,0.001000,0.001000,0.001000
1019.980769,-0.026167,0.001000,0.001000,0.001000,0.001000,0.001000
1020.000000,-0.027339,0.001000,0.001000,0.001000,0.001000,0.001000
1020.019231,-0.028490,0.001000,0.001000,0.001000,0.001000,0.001000
1020.038462,-0.029619,0.001000,0.001000,0.001000,0.001000,0.001000
1020.057692,-0.030725,0.001000,0.001000,0.001000,0.001000,0.001000
1020.076923,-0.031807,0.001000,0.001000,0.001000,0.001000,0.001000
1020.096154,-0.032865,0.001000,0.001000,0.001000,0.001000,0.001000
1020.115385,-0.033897,0.001000,0.001000,0.001000,0.001000,0.001000
1020.134615,-0.034904,0.001000,0.001000,0.001000,0.001000,0.001000
1020.153846,-0.035884,0.001000,0.001000,0.001000,0.001000,0.001000
1020.173077,-0.036836,0.001000,0.001000,0.001000,0.001000,0.001000
1020.192308,-0.037759,0.001000,0.001000,0.001000,0.001000,0.001000
1020.211538,-0.038654,0.001000,0.001000,0.001000,0.001000,0.001000
1020.230769,-0.039519,0.001000,0.001000,0.001000,0.001000,0.001000
1020.250000,-0.040353,0.001000,0.001000,0.001000,0.001000,0.001000
1020.269231,-0.041157,0.001000,0.001000,0.001000,0.001000,0.001000
1020.288462,-0.041929,0.001000,0.001000,0.001000,0.001000,0.001000
1020.307692,-0.042668,0.001000,0.001000,0.001000,0.001000,0.001000
1020.326923,-0.043375,0.001000,0.001000,0.001000,0.001000,0.001000
1020.346154,-0.044048,0.001000,0.001000,0.001000,0.001000,0.001000
1020.365385,-0.044687,0.001000,0.001000,0.001000,0.001000,0.001000
1020.384615,-0.045292,0.001000,0.001000,0.001000,0.001000,0.001000
1020.403846,-0.045862,0.001000,0.001000,0.001000,0.001000,0.001000
1020.423077,-0.046397,0.001000,0.001000,0.001000,0.001000,0.001000
1020.442308,-0.046896,0.001000,0.001000,0.001000,0.001000,0.001000
1020.461538,-0.047359,0.001000,0.001000,0.001000,0.001000,0.001000
1020.480769,-0.047786,0.001000,0.001000,0.001000,0.001000,0.001000
1020.500000,-0.048176,0.001000,0.001000,0.001000,0.001000,0.001000
1020.519231,-0.048528,0.001000,0.001000,0.001000,0.001000,0.001000
1020.538462,-0.048844,0.001000,0.001000,0.001000,0.001000,0.001000
1020.557692,-0.049121,0.001000,0.001000,0.001000,0.001000,0.001000
1020.576923,-0.049361,0.001000,0.001000,0.001000,0.001000,0.001000
1020.596154,-0.049563,0.001000,0.001000,0.001000,0.001000,0.001000
1020.615385,-0.049727,0.001000,0.001000,0.001000,0.001000,0.001000
1020.634615,-0.049853,0.001000,0.001000,0.001000,0.001000,0.001000
1020.653846,-0.049940,0.001000,0.001000,0.001000,0.001000,0.001000
1020.673077,-0.049989,0.001000,0.001000,0.001000,0.001000,0.001000
1020.692308,-0.049999,0.001000,0.001000,0.001000,0.001000,0.001000
1020.711538,-0.049971,0.001000,0.001000,0.001000,0.001000,0.001000
1020.730769,-0.049904,0.001000,0.001000,0.001000,0.001000,0.001000
1020.750000,-0.049799,0.001000,0.001000,0.001000,0.001000,0.001000
1020.769231,-0.049656,0.001000,0.001000,0.001000,0.001000,0.001000
1020.788462,-0.049474,0.001000,0.001000,0.001000,0.001000,0.001000
1020.807692,-0.049254,0.001000,0.001000,0.001000,0.001000,0.001000
1020.826923,-0.048997,0.001000,0.001000,0.001000,0.001000,0.001000
1020.846154,-0.048701,0.001000,0.001000,0.001000,0.001000,0.001000
1020.865385,-0.048369,0.001000,0.001000,0.001000,0.001000,0.001000
1020.884615,-0.047999,0.001000,0.001000,0.001000,0.001000,0.001000
1020.903846,-0.047592,0.001000,0.001000,0.001000,0.001000,0.001000
1020.923077,-0.047148,0.001000,0.001000,0.001000,0.001000,0.001000
1020.942308,-0.046668,0.001000,0.001000,0.001000,0.001000,0.001000
1020.961538,-0.046152,0.001000,0.001000,0.001000,0.001000,0.001000
1020.980769,-0.045601,0.001000,0.001000,0.001000,0.001000,0.001000
1021.000000,-0.045015,0.001000,0.001000,0.001000,0.001000,0.001000
1021.019231,-0.044394,0.001000,0.001000,0.001000,0.001000,0.001000
1021.038462,-0.043738,0.001000,0.001000,0.001000,0.001000,0.001000
1021.057692,-0.043049,0.001000,0.001000,0.001000,0.001000,0.001000
1021.076923,-0.042327,0.001000,0.001000,0.001000,0.001000,0.001000
1021.096154,-0.041573,0.001000,0.001000,0.001000,0.001000,0.001000
1021.115385,-0.040786,0.001000,0.001000,0.001000,0.001000,0.001000
1021.134615,-0.039968,0.001000,0.001000,0.001000,0.001000,0.001000
1021.153846,-0.039119,0.001000,0.001000,0.001000,0.001000,0.001000
1021.173077,-0.038241,0.001000,0.001000,0.001000,0.001000,0.001000
1021.192308,-0.037332,0.001000,0.001000,0.001000,0.001000,0.001000
1021.211538,-0.036395,0.001000,0.001000,0.001000,0.001000,0.001000
1021.230769,-0.035430,0.001000,0.001000,0.001000,0.001000,0.001000
1021.250000,-0.034438,0.001000,0.001000,0.001000,0.001000,0.001000
1021.269231,-0.033419,0.001000,0.001000,0.001000,0.001000,0.001000
1021.288462,-0.032375,0.001000,0.001000,0.001000,0.001000,0.001000
1021.307692,-0.031305,0.001000,0.001000,0.001000,0.001000,0.001000
1021.326923,-0.030212,0.001000,0.001000,0.001000,0.001000,0.001000
1021.346154,-0.029095,0.001000,0.001000,0.001000,0.001000,0.001000
1021.365385,-0.027956,0.001000,0.001000,0.001000,0.001000,0.001000
1021.384615,-0.026795,0.001000,0.001000,0.001000,0.001000,0.001000
1021.403846,-0.025614,0.001000,0.001000,0.001000,0.001000,0.001000
1021.423077,-0.024413,0.001000,0.001000,0.001000,0.001000,0.001000
1021.442308,-0.023193,0.001000,0.001000,0.001000,0.001000,0.001000
1021.461538,-0.021955,0.001000,0.001000,0.001000,0.001000,0.001000
1021.480769,-0.020701,0.001000,0.001000,0.001000,0.001000,0.001000
1021.500000,-0.019430,0.001000,0.001000,0.001000,0.001000,0.001000
1021.519231,-0.018145,0.001000,0.001000,0.001000,0.001000,0.001000
1021.538462,-0.016845,0.001000,0.001000,0.001000,0.001000,0.001000
1021.557692,-0.015533,0.001000,0.001000,0.001000,0.001000,0.001000
1021.576923,-0.014209,0.001000,0.001000,0.001000,0.001000,0.001000
1021.596154,-0.012873,0.001000,0.001000,0.001000,0.001000,0.001000
1021.615385,-0.011528,0.001000,0.001000,0.001000,0.001000,0.001000
1021.634615,-0.010174,0.001000,0.001000,0.001000,0.001000,0.001000
1021.653846,-0.008812,0.001000,0.001000,0.001000,0.001000,0.001000
1021.673077,-0.007444,0.001000,0.001000,0.001000,0.001000,0.001000
1021.692308,-0.006069,0.001000,0.001000,0.001000,0.001000,0.001000
1021.711538,-0.004690,0.001000,0.001000,0.001000,0.001000,0.001000
1021.730769,-0.003308,0.001000,0.001000,0.001000,0.001000,0.001000
1021.750000,-0.001922,0.001000,0.001000,0.001000,0.001000,0.001000
1021.769231,-0.000536,0.001000,0.001000,0.001000,0.001000,0.001000
1021.788462,0.000851,0.001000,0.001000,0.001000,0.001000,0.001000
1021.807692,0.002238,0.001000,0.001000,0.001000,0.001000,0.001000
1021.826923,0.003623,0.001000,0.001000,0.001000,0.001000,0.001000
1021.846154,0.005005,0.001000,0.001000,0.001000,0.001000,0.001000
1021.865385,0.006383,0.001000,0.001000,0.001000,0.001000,0.001000
1021.884615,0.007756,0.001000,0.001000,0.001000,0.001000,0.001000
1021.903846,0.009123,0.001000,0.001000,0.001000,0.001000,0.001000
1021.923077,0.010483,0.001000,0.001000,0.001000,0.001000,0.001000
1021.942308,0.011835,0.001000,0.001000,0.001000,0.001000,0.001000
1021.961538,0.013178,0.001000,0.001000,0.001000,0.001000,0.001000
1021.980769,0.014511,0.001000,0.001000,0.001000,0.001000,0.001000
1022.000000,0.015833,0.001000,0.001000,0.001000,0.001000,0.001000
1022.019231,0.017142,0.001000,0.001000,0.001000,0.001000,0.001000
1022.038462,0.018439,0.001000,0.001000,0.001000,0.001000,0.001000
1022.057692,0.019721,0.001000,0.001000,0.001000,0.001000,0.001000
1022.076923,0.020988,0.001000,0.001000,0.001000,0.001000,0.001000
1022.096154,0.022239,0.001000,0.001000,0.001000,0.001000,0.001000
1022.115385,0.023472,0.001000,0.001000,0.001000,0.001000,0.001000
1022.134615,0.024688,0.001000,0.001000,0.001000,0.001000,0.001000
1022.153846,0.025884,0.001000,0.001000,0.001000,0.001000,0.001000
1022.173077,0.027061,0.001000,0.001000,0.001000,0.001000,0.001000
1022.192308,0.028217,0.001000,0.001000,0.001000,0.001000,0.001000
1022.211538,0.029351,0.001000,0.001000,0.001000,0.001000,0.001000
1022.230769,0.030463,0.001000,0.001000,0.001000,0.001000,0.001000
1022.250000,0.031551,0.001000,0.001000,0.001000,0.001000,0.001000
1022.269231,0.032615,0.001000,0.001000,0.001000,0.001000,0.001000
1022.288462,0.033653,0.001000,0.001000,0.001000,0.001000,0.001000
1022.307692,0.034666,0.001000,0.001000,0.001000,0.001000,0.001000
1022.326923,0.035652,0.001000,0.001000,0.001000,0.001000,0.001000
1022.346154,0.036611,0.001000,0.001000,0.001000,0.001000,0.001000
1022.365385,0.037542,0.001000,0.001000,0.001000,0.001000,0.001000
1022.384615,0.038443,0.001000,0.001000,0.001000,0.001000,0.001000
1022.403846,0.039315,0.001000,0.001000,0.001000,0.001000,0.001000
1022.423077,0.040157,0.001000,0.001000,0.001000,0.001000,0.001000
1022.442308,0.040968,0.001000,0.001000,0.001000,0.001000,0.001000
1022.461538,0.041747,0.001000,0.001000,0.001000,0.001000,0.001000
1022.480769,0.042495,0.001000,0.001000,0.001000,0.001000,0.001000
1022.500000,0.043209,0.001000,0.001000,0.001000,0.001000,0.001000
1022.519231,0.043890,0.001000,0.001000,0.001000,0.001000,0.001000
1022.538462,0.044538,0.001000,0.001000,0.001000,0.001000,0.001000
1022.557692,0.045151,0.001000,0.001000,0.001000,0.001000,0.001000
1022.576923,0.045730,0.001000,0.001000,0.001000,0.001000,0.001000
1022.596154,0.046273,0.001000,0.001000,0.001000,0.001000,0.001000
1022.615385,0.046781,0.001000,0.001000,0.001000,0.001000,0.001000
1022.634615,0.047252,0.001000,0.001000,0.001000,0.001000,0.001000
1022.653846,0.047687,0.001000,0.001000,0.001000,0.001000,0.001000
1022.673077,0.048086,0.001000,0.001000,0.001000,0.001000,0.001000
1022.692308,0.048448,0.001000,0.001000,0.001000,0.001000,0.001000
1022.711538,0.048772,0.001000,0.001000,0.001000,0.001000,0.001000
1022.730769,0.049059,0.001000,0.001000,0.001000,0.001000,0.001000
1022.750000,0.049308,0.001000,0.001000,0.001000,0.001000,0.001000
1022.769231,0.049519,0.001000,0.001000,0.001000,0.001000,0.001000
1022.788462,0.049692,0.001000,0.001000,0.001000,0.001000,0.001000
1022.807692,0.049826,0.001000,0.001000,0.001000,0.001000,0.001000
1022.826923,0.049923,0.001000,0.001000,0.001000,0.001000,0.001000
1022.846154,0.049981,0.001000,0.001000,0.001000,0.001000,0.001000
1022.865385,0.050000,0.001000,0.001000,0.001000,0.001000,0.001000
1022.884615,0.049981,0.001000,0.001000,0.001000,0.001000,0.001000
1022.903846,0.049923,0.001000,0.001000,0.001000,0.001000,0.001000
1022.923077,0.049828,0.001000,0.001000,0.001000,0.001000,0.001000
1022.942308,0.049693,0.001000,0.001000,0.001000,0.001000,0.001000
1022.961538,0.049521,0.001000,0.001000,0.001000,0.001000,0.001000
1022.980769,0.049310,0.001000,0.001000,0.001000,0.001000,0.001000
1023.000000,0.049062,0.001000,0.001000,0.001000,0.001000,0.001000
1023.019231,0.048775,0.001000,0.001000,0.001000,0.001000,0.001000
1023.038462,0.048451,0.001000,0.001000,0.001000,0.001000,0.001000
1023.057692,0.048090,0.001000,0.001000,0.001000,0.001000,0.001000
1023.076923,0.047692,0.001000,0.001000,0.001000,0.001000,0.001000
1023.096154,0.047257,0.001000,0.001000,0.001000,0.001000,0.001000
1023.115385,0.046786,0.001000,0.001000,0.001000,0.001000,0.001000
1023.134615,0.046279,0.001000,0.001000,0.001000,0.001000,0.001000
1023.153846,0.045736,0.001000,0.001000,0.001000,0.001000,0.001000
1023.173077,0.045158,0.001000,0.001000,0.001000,0.001000,0.001000
1023.192308,0.044545,0.001000,0.001000,0.001000,0.001000,0.001000
1023.211538,0.043898,0.001000,0.001000,0.001000,0.001000,0.001000
1023.230769,0.043217,0.001000,0.001000,0.001000,0.001000,0.001000
1023.250000,0.042503,0.001000,0.001000,0.001000,0.001000,0.001000
1023.269231,0.041756,0.001000,0.001000,0.001000,0.001000,0.001000
1023.288462,0.040977,0.001000,0.001000,0.001000,0.001000,0.001000
1023.307692,0.040166,0.001000,0.001000,0.001000,0.001000,0.001000
1023.326923,0.039325,0.001000,0.001000,0.001000,0.001000,0.001000
1023.346154,0.038453,0.001000,0.001000,0.001000,0.001000,0.001000
1023.365385,0.037552,0.001000,0.001000,0.001000,0.001000,0.001000
1023.384615,0.036622,0.001000,0.001000,0.001000,0.001000,0.001000
1023.403846,0.035663,0.001000,0.001000,0.001000,0.001000,0.001000
1023.423077,0.034677,0.001000,0.001000,0.001000,0.001000,0.001000
1023.442308,0.033665,0.001000,0.001000,0.001000,0.001000,0.001000
1023.461538,0.032626,0.001000,0.001000,0.001000,0.001000,0.001000
1023.480769,0.031563,0.001000,0.001000,0.001000,0.001000,0.001000
1023.500000,0.030475,0.001000,0.001000,0.001000,0.001000,0.001000
1023.519231,0.029364,0.001000,0.001000,0.001000,0.001000,0.001000
1023.538462,0.028230,0.001000,0.001000,0.001000,0.001000,0.001000
1023.557692,0.027074,0.001000,0.001000,0.001000,0.001000,0.001000
1023.576923,0.025898,0.001000,0.001000,0.001000,0.001000,0.001000
1023.596154,0.024701,0.001000,0.001000,0.001000,0.001000,0.001000
1023.615385,0.023486,0.001000,0.001000,0.001000,0.001000,0.001000
1023.634615,0.022252,0.001000,0.001000,0.001000,0.001000,0.001000
1023.653846,0.021002,0.001000,0.001000,0.001000,0.001000,0.001000
1023.673077,0.019735,0.001000,0.001000,0.001000,0.001000,0.001000
1023.692308,0.018453,0.001000,0.001000,0.001000,0.001000,0.001000
1023.711538,0.017157,0.001000,0.001000,0.001000,0.001000,0.001000
1023.730769,0.015847,0.001000,0.001000,0.001000,0.001000,0.001000
1023.750000,0.014526,0.001000,0.001000,0.001000,0.001000,0.001000
1023.769231,0.013193,0.001000,0.001000,0.001000,0.001000,0.001000
1023.788462,0.011850,0.001000,0.001000,0.001000,0.001000,0.001000
1023.807692,0.010498,0.001000,0.001000,0.001000,0.001000,0.001000
1023.826923,0.009138,0.001000,0.001000,0.001000,0.001000,0.001000
1023.846154,0.007771,0.001000,0.001000,0.001000,0.001000,0.001000
1023.865385,0.006398,0.001000,0.001000,0.001000,0.001000,0.001000
1023.884615,0.005020,0.001000,0.001000,0.001000,0.001000,0.001000
1023.903846,0.003638,0.001000,0.001000,0.001000,0.001000,0.001000
1023.923077,0.002253,0.001000,0.001000,0.001000,0.001000,0.001000
1023.942308,0.000867,0.001000,0.001000,0.001000,0.001000,0.001000
1023.961538,-0.000520,0.001000,0.001000,0.001000,0.001000,0.001000
1023.980769,-0.001907,0.001000,0.001000,0.001000,0.001000,0.001000
1024.000000,-0.003292,0.001000,0.001000,0.001000,0.001000,0.001000
1024.019231,-0.004675,0.001000,0.001000,0.001000,0.001000,0.001000
1024.038462,-0.006054,0.001000,0.001000,0.001000,0.001000,0.001000
1024.057692,-0.007429,0.001000,0.001000,0.001000,0.001000,0.001000
1024.076923,-0.008797,0.001000,0.001000,0.001000,0.001000,0.001000
1024.096154,-0.010159,0.001000,0.001000,0.001000,0.001000,0.001000
1024.115385,-0.011513,0.001000,0.001000,0.001000,0.001000,0.001000
1024.134615,-0.012859,0.001000,0.001000,0.001000,0.001000,0.001000
1024.153846,-0.014194,0.001000,0.001000,0.001000,0.001000,0.001000
1024.173077,-0.015519,0.001000,0.001000,0.001000,0.001000,0.001000
1024.192308,-0.016831,0.001000,0.001000,0.001000,0.001000,0.001000
1024.211538,-0.018131,0.001000,0.001000,0.001000,0.001000,0.001000
1024.230769,-0.019416,0.001000,0.001000,0.001000,0.001000,0.001000
1024.250000,-0.020687,0.001000,0.001000,0.001000,0.001000,0.001000
1024.269231,-0.021942,0.001000,0.001000,0.001000,0.001000,0.001000
1024.288462,-0.023179,0.001000,0.001000,0.001000,0.001000,0.001000
1024.307692,-0.024399,0.001000,0.001000,0.001000,0.001000,0.001000
1024.326923,-0.025601,0.001000,0.001000,0.001000,0.001000,0.001000
1024.346154,-0.026782,0.001000,0.001000,0.001000,0.001000,0.001000
1024.365385,-0.027943,0.001000,0.001000,0.001000,0.001000,0.001000
1024.384615,-0.029083,0.001000,0.001000,0.001000,0.001000,0.001000
1024.403846,-0.030200,0.001000,0.001000,0.001000,0.001000,0.001000
1024.423077,-0.031293,0.001000,0.001000,0.001000,0.001000,0.001000
1024.442308,-0.032363,0.001000,0.001000,0.001000,0.001000,0.001000
1024.461538,-0.033408,0.001000,0.001000,0.001000,0.001000,0.001000
1024.480769,-0.034427,0.001000,0.001000,0.001000,0.001000,0.001000
1024.500000,-0.035420,0.001000,0.001000,0.001000,0.001000,0.001000
1024.519231,-0.036385,0.001000,0.001000,0.001000,0.001000,0.001000
1024.538462,-0.037322,0.001000,0.001000,0.001000,0.001000,0.001000
1024.557692,-0.038231,0.001000,0.001000,0.001000,0.001000,0.001000
1024.576923,-0.039110,0.001000,0.001000,0.001000,0.001000,0.001000
1024.596154,-0.039959,0.001000,0.001000,0.001000,0.001000,0.001000
1024.615385,-0.040777,0.001000,0.001000,0.001000,0.001000,0.001000
1024.634615,-0.041564,0.001000,0.001000,0.001000,0.001000,0.001000
1024.653846,-0.042319,0.001000,0.001000,0.001000,0.001000,0.001000
1024.673077,-0.043042,0.001000,0.001000,0.001000,0.001000,0.001000
1024.692308,-0.043731,0.001000,0.001000,0.001000,0.001000,0.001000
1024.711538,-0.044387,0.001000,0.001000,0.001000,0.001000,0.001000
1024.730769,-0.045008,0.001000,0.001000,0.001000,0.001000,0.001000
1024.750000,-0.045595,0.001000,0.001000,0.001000,0.001000,0.001000
1024.769231,-0.046146,0.001000,0.001000,0.001000,0.001000,0.001000
1024.788462,-0.046663,0.001000,0.001000,0.001000,0.001000,0.001000
1024.807692,-0.047143,0.001000,0.001000,0.001000,0.001000,0.001000
1024.826923,-0.047587,0.001000,0.001000,0.001000,0.001000,0.001000
1024.846154,-0.047994,0.001000,0.001000,0.001000,0.001000,0.001000
1024.865385,-0.048365,0.001000,0.001000,0.001000,0.001000,0.001000
1024.884615,-0.048698,0.001000,0.001000,0.001000,0.001000,0.001000
1024.903846,-0.048994,0.001000,0.001000,0.001000,0.001000,0.001000
1024.923077,-0.049252,0.001000,0.001000,0.001000,0.001000,0.001000
1024.942308,-0.049472,0.001000,0.001000,0.001000,0.001000,0.001000
1024.961538,-0.049654,0.001000,0.001000,0.001000,0.001000,0.001000
1024.980769,-0.049798,0.001000,0.001000,0.001000,0.001000,0.001000
1025.000000,-0.049903,0.001000,0.001000,0.001000,0.001000,0.001000
1025.019231,-0.049970,0.001000,0.001000,0.001000,0.001000,0.001000
1025.038462,-0.049999,0.001000,0.001000,0.001000,0.001000,0.001000
1025.057692,-0.049989,0.001000,0.001000,0.001000,0.001000,0.001000
1025.076923,-0.049941,0.001000,0.001000,0.001000,0.001000,0.001000
1025.096154,-0.049854,0.001000,0.001000,0.001000,0.001000,0.001000
1025.115385,-0.049729,0.001000,0.001000,0.001000,0.001000,0.001000
1025.134615,-0.049565,0.001000,0.001000,0.001000,0.001000,0.001000
1025.153846,-0.049364,0.001000,0.001000,0.001000,0.001000,0.001000
1025.173077,-0.049124,0.001000,0.001000,0.001000,0.001000,0.001000
1025.192308,-0.048847,0.001000,0.001000,0.001000,0.001000,0.001000
1025.211538,-0.048532,0.001000,0.001000,0.001000,0.001000,0.001000
1025.230769,-0.048180,0.001000,0.001000,0.001000,0.001000,0.001000
1025.250000,-0.047790,0.001000,0.001000,0.001000,0.001000,0.001000
1025.269231,-0.047364,0.001000,0.001000,0.001000,0.001000,0.001000
1025.288462,-0.046902,0.001000,0.001000,0.001000,0.001000,0.001000
1025.307692,-0.046403,0.001000,0.001000,0.001000,0.001000,0.001000
1025.326923,-0.045869,0.001000,0.001000,0.001000,0.001000,0.001000
1025.346154,-0.045299,0.001000,0.001000,0.001000,0.001000,0.001000
1025.365385,-0.044694,0.001000,0.001000,0.001000,0.001000,0.001000
1025.384615,-0.044055,0.001000,0.001000,0.001000,0.001000,0.001000
1025.403846,-0.043382,0.001000,0.001000,0.001000,0.001000,0.001000
1025.423077,-0.042676,0.001000,0.001000,0.001000,0.001000,0.001000
1025.442308,-0.041937,0.001000,0.001000,0.001000,0.001000,0.001000
1025.461538,-0.041166,0.001000,0.001000,0.001000,0.001000,0.001000
1025.480769,-0.040362,0.001000,0.001000,0.001000,0.001000,0.001000
1025.500000,-0.039528,0.001000,0.001000,0.001000,0.001000,0.001000
1025.519231,-0.038664,0.001000,0.001000,0.001000,0.001000,0.001000
1025.538462,-0.037769,0.001000,0.001000,0.001000,0.001000,0.001000
1025.557692,-0.036846,0.001000,0.001000,0.001000,0.001000,0.001000
1025.576923,-0.035894,0.001000,0.001000,0.001000,0.001000,0.001000
1025.596154,-0.034915,0.001000,0.001000,0.001000,0.001000,0.001000
1025.615385,-0.033909,0.001000,0.001000,0.001000,0.001000,0.001000
1025.634615,-0.032876,0.001000,0.001000,0.001000,0.001000,0.001000
1025.653846,-0.031819,0.001000,0.001000,0.001000,0.001000,0.001000
1025.673077,-0.030737,0.001000,0.001000,0.001000,0.001000,0.001000
1025.692308,-0.029631,0.001000,0.001000,0.001000,0.001000,0.001000
1025.711538,-0.028502,0.001000,0.001000,0.001000,0.001000,0.001000
1025.730769,-0.027352,0.001000,0.001000,0.001000,0.001000,0.001000
1025.750000,-0.026180,0.001000,0.001000,0.001000,0.001000,0.001000
1025.769231,-0.024988,0.001000,0.001000,0.001000,0.001000,0.001000
1025.788462,-0.023777,0.001000,0.001000,0.001000,0.001000,0.001000
1025.807692,-0.022548,0.001000,0.001000,0.001000,0.001000,0.001000
1025.826923,-0.021302,0.001000,0.001000,0.001000,0.001000,0.001000
1025.846154,-0.020039,0.001000,0.001000,0.001000,0.001000,0.001000
1025.865385,-0.018760,0.001000,0.001000,0.001000,0.001000,0.001000
1025.884615,-0.017467,0.001000,0.001000,0.001000,0.001000,0.001000
1025.903846,-0.016161,0.001000,0.001000,0.001000,0.001000,0.001000
1025.923077,-0.014842,0.001000,0.001000,0.001000,0.001000,0.001000
1025.942308,-0.013512,0.001000,0.001000,0.001000,0.001000,0.001000
1025.961538,-0.012171,0.001000,0.001000,0.001000,0.001000,0.001000
1025.980769,-0.010821,0.001000,0.001000,0.001000,0.001000,0.001000
1026.000000,-0.009463,0.001000,0.001000,0.001000,0.001000,0.001000
1026.019231,-0.008098,0.001000,0.001000,0.001000,0.001000,0.001000
1026.038462,-0.006726,0.001000,0.001000,0.001000,0.001000,0.001000
1026.057692,-0.005349,0.001000,0.001000,0.001000,0.001000,0.001000
1026.076923,-0.003968,0.001000,0.001000,0.001000,0.001000,0.001000
1026.096154,-0.002584,0.001000,0.001000,0.001000,0.001000,0.001000
1026.115385,-0.001198,0.001000,0.001000,0.001000,0.001000,0.001000
1026.134615,0.000189,0.001000,0.001000,0.001000,0.001000,0.001000
1026.153846,0.001576,0.001000,0.001000,0.001000,0.001000,0.001000
1026.173077,0.002962,0.001000,0.001000,0.001000,0.001000,0.001000
1026.192308,0.004345,0.001000,0.001000,0.001000,0.001000,0.001000
1026.211538,0.005725,0.001000,0.001000,0.001000,0.001000,0.001000
1026.230769,0.007101,0.001000,0.001000,0.001000,0.001000,0.001000
1026.250000,0.008471,0.001000,0.001000,0.001000,0.001000,0.001000
1026.269231,0.009835,0.001000,0.001000,0.001000,0.001000,0.001000
1026.288462,0.011191,0.001000,0.001000,0.001000,0.001000,0.001000
1026.307692,0.012539,0.001000,0.001000,0.001000,0.001000,0.001000
1026.326923,0.013876,0.001000,0.001000,0.001000,0.001000,0.001000
1026.346154,0.015204,0.001000,0.001000,0.001000,0.001000,0.001000
1026.365385,0.016519,0.001000,0.001000,0.001000,0.001000,0.001000
1026.384615,0.017822,0.001000,0.001000,0.001000,0.001000,0.001000
1026.403846,0.019111,0.001000,0.001000,0.001000,0.001000,0.001000
1026.423077,0.020385,0.001000,0.001000,0.001000,0.001000,0.001000
1026.442308,0.021644,0.001000,0.001000,0.001000,0.001000,0.001000
1026.461538,0.022886,0.001000,0.001000,0.001000,0.001000,0.001000
1026.480769,0.024110,0.001000,0.001000,0.001000,0.001000,0.001000
1026.500000,0.025316,0.001000,0.001000,0.001000,0.001000,0.001000
1026.519231,0.026502,0.001000,0.001000,0.001000,0.001000,0.001000
1026.538462,0.027668,0.001000,0.001000,0.001000,0.001000,0.001000
1026.557692,0.028813,0.001000,0.001000,0.001000,0.001000,0.001000
1026.576923,0.029935,0.001000,0.001000,0.001000,0.001000,0.001000
1026.596154,0.031035,0.001000,0.001000,0.001000,0.001000,0.001000
1026.615385,0.032110,0.001000,0.001000,0.001000,0.001000,0.001000
1026.634615,0.033161,0.001000,0.001000,0.001000,0.001000,0.001000
1026.653846,0.034186,0.001000,0.001000,0.001000,0.001000,0.001000
1026.673077,0.035185,0.001000,0.001000,0.001000,0.001000,0.001000
1026.692308,0.036157,0.001000,0.001000,0.001000,0.001000,0.001000
1026.711538,0.037101,0.001000,0.001000,0.001000,0.001000,0.001000
1026.730769,0.038017,0.001000,0.001000,0.001000,0.001000,0.001000
1026.750000,0.038903,0.001000,0.001000,0.001000,0.001000,0.001000
1026.769231,0.039759,0.001000,0.001000,0.001000,0.001000,0.001000
1026.788462,0.040585,0.001000,0.001000,0.001000,0.001000,0.001000
1026.807692,0.041379,0.001000,0.001000,0.001000,0.001000,0.001000
1026.826923,0.042142,0.001000,0.001000,0.001000,0.001000,0.001000
1026.846154,0.042872,0.001000,0.001000,0.001000,0.001000,0.001000
1026.865385,0.043569,0.001000,0.001000,0.001000,0.001000,0.001000
1026.884615,0.044233,0.001000,0.001000,0.001000,0.001000,0.001000
1026.903846,0.044863,0.001000,0.001000,0.001000,0.001000,0.001000
1026.923077,0.045458,0.001000,0.001000,0.001000,0.001000,0.001000
1026.942308,0.046018,0.001000,0.001000,0.001000,0.001000,0.001000
1026.961538,0.046543,0.001000,0.001000,0.001000,0.001000,0.001000
1026.980769,0.047032,0.001000,0.001000,0.001000,0.001000,0.001000
1027.000000,0.047484,0.001000,0.001000,0.001000,0.001000,0.001000
1027.019231,0.047900,0.001000,0.001000,0.001000,0.001000,0.001000
1027.038462,0.048280,0.001000,0.001000,0.001000,0.001000,0.001000
1027.057692,0.048622,0.001000,0.001000,0.001000,0.001000,0.001000
1027.076923,0.048926,0.001000,0.001000,0.001000,0.001000,0.001000
1027.096154,0.049194,0.001000,0.001000,0.001000,0.001000,0.001000
1027.115385,0.049423,0.001000,0.001000,0.001000,0.001000,0.001000
1027.134615,0.049614,0.001000,0.001000,0.001000,0.001000,0.001000
1027.153846,0.049767,0.001000,0.001000,0.001000,0.001000,0.001000
1027.173077,0.049881,0.001000,0.001000,0.001000,0.001000,0.001000
1027.192308,0.049958,0.001000,0.001000,0.001000,0.001000,0.001000
1027.211538,0.049996,0.001000,0.001000,0.001000,0.001000,0.001000
1027.230769,0.049995,0.001000,0.001000,0.001000,0.001000,0.001000
1027.250000,0.049956,0.001000,0.001000,0.001000,0.001000,0.001000
1027.269231,0.049878,0.001000,0.001000,0.001000,0.001000,0.001000
1027.288462,0.049762,0.001000,0.001000,0.001000,0.001000,0.001000
1027.307692,0.049608,0.001000,0.001000,0.001000,0.001000,0.001000
1027.326923,0.049415,0.001000,0.001000,0.001000,0.001000,0.001000
1027.346154,0.049185,0.001000,0.001000,0.001000,0.001000,0.001000
1027.365385,0.048917,0.001000,0.001000,0.001000,0.001000,0.001000
1027.384615,0.048611,0.001000,0.001000,0.001000,0.001000,0.001000
1027.403846,0.048267,0.001000,0.001000,0.001000,0.001000,0.001000
1027.423077,0.047887,0.001000,0.001000,0.001000,0.001000,0.001000
1027.442308,0.047469,0.001000,0.001000,0.001000,0.001000,0.001000
1027.461538,0.047015,0.001000,0.001000,0.001000,0.001000,0.001000
1027.480769,0.046525,0.001000,0.001000,0.001000,0.001000,0.001000
1027.500000,0.045999,0.001000,0.001000,0.001000,0.001000,0.001000
1027.519231,0.045438,0.001000,0.001000,0.001000,0.001000,0.001000
1027.538462,0.044842,0.001000,0.001000,0.001000,0.001000,0.001000
1027.557692,0.044211,0.001000,0.001000,0.001000,0.001000,0.001000
1027.576923,0.043546,0.001000,0.001000,0.001000,0.001000,0.001000
1027.596154,0.042848,0.001000,0.001000,0.001000,0.001000,0.001000
1027.615385,0.042116,0.001000,0.001000,0.001000,0.001000,0.001000
1027.634615,0.041353,0.001000,0.001000,0.001000,0.001000,0.001000
1027.653846,0.040557,0.001000,0.001000,0.001000,0.001000,0.001000
1027.673077,0.039730,0.001000,0.001000,0.001000,0.001000,0.001000
1027.692308,0.038873,0.001000,0.001000,0.001000,0.001000,0.001000
1027.711538,0.037986,0.001000,0.001000,0.001000,0.001000,0.001000
1027.730769,0.037069,0.001000,0.001000,0.001000,0.001000,0.001000
1027.750000,0.036124,0.001000,0.001000,0.001000,0.001000,0.001000
1027.769231,0.035151,0.001000,0.001000,0.001000,0.001000,0.001000
1027.788462,0.034151,0.001000,0.001000,0.001000,0.001000,0.001000
1027.807692,0.033125,0.001000,0.001000,0.001000,0.001000,0.001000
1027.826923,0.032073,0.001000,0.001000,0.001000,0.001000,0.001000
1027.846154,0.030997,0.001000,0.001000,0.001000,0.001000,0.001000
1027.865385,0.029897,0.001000,0.001000,0.001000,0.001000,0.001000
1027.884615,0.028774,0.001000,0.001000,0.001000,0.001000,0.001000
1027.903846,0.027628,0.001000,0.001000,0.001000,0.001000,0.001000
1027.923077,0.026462,0.001000,0.001000,0.001000,0.001000,0.001000
1027.942308,0.025275,0.001000,0.001000,0.001000,0.001000,0.001000
1027.961538,0.024068,0.001000,0.001000,0.001000,0.001000,0.001000
1027.980769,0.022843,0.001000,0.001000,0.001000,0.001000,0.001000
1028.000000,0.021601,0.001000,0.001000,0.001000,0.001000,0.001000
1028.019231,0.020341,0.001000,0.001000,0.001000,0.001000,0.001000
1028.038462,0.019067,0.001000,0.001000,0.001000,0.001000,0.001000
1028.057692,0.017777,0.001000,0.001000,0.001000,0.001000,0.001000
1028.076923,0.016474,0.001000,0.001000,0.001000,0.001000,0.001000
1028.096154,0.015158,0.001000,0.001000,0.001000,0.001000,0.001000
1028.115385,0.013830,0.001000,0.001000,0.001000,0.001000,0.001000
1028.134615,0.012492,0.001000,0.001000,0.001000,0.001000,0.001000
1028.153846,0.011144,0.001000,0.001000,0.001000,0.001000,0.001000
1028.173077,0.009788,0.001000,0.001000,0.001000,0.001000,0.001000
1028.192308,0.008424,0.001000,0.001000,0.001000,0.001000,0.001000
1028.211538,0.007054,0.001000,0.001000,0.001000,0.001000,0.001000
1028.230769,0.005678,0.001000,0.001000,0.001000,0.001000,0.001000
1028.250000,0.004298,0.001000,0.001000,0.001000,0.001000,0.001000
1028.269231,0.002914,0.001000,0.001000,0.001000,0.001000,0.001000
1028.288462,0.001528,0.001000,0.001000,0.001000,0.001000,0.001000
1028.307692,0.000142,0.001000,0.001000,0.001000,0.001000,0.001000
1028.326923,-0.001245,0.001000,0.001000,0.001000,0.001000,0.001000
1028.346154,-0.002632,0.001000,0.001000,0.001000,0.001000,0.001000
1028.365385,-0.004016,0.001000,0.001000,0.001000,0.001000,0.001000
1028.384615,-0.005397,0.001000,0.001000,0.001000,0.001000,0.001000
1028.403846,-0.006773,0.001000,0.001000,0.001000,0.001000,0.001000
1028.423077,-0.008145,0.001000,0.001000,0.001000,0.001000,0.001000
1028.442308,-0.009510,0.001000,0.001000,0.001000,0.001000,0.001000
1028.461538,-0.010868,0.001000,0.001000,0.001000,0.001000,0.001000
1028.480769,-0.012218,0.001000,0.001000,0.001000,0.001000,0.001000
1028.500000,-0.013558,0.001000,0.001000,0.001000,0.001000,0.001000
1028.519231,-0.014888,0.001000,0.001000,0.001000,0.001000,0.001000
1028.538462,-0.016206,0.001000,0.001000,0.001000,0.001000,0.001000
1028.557692,-0.017512,0.001000,0.001000,0.001000,0.001000,0.001000
1028.576923,-0.018804,0.001000,0.001000,0.001000,0.001000,0.001000
1028.596154,-0.020082,0.001000,0.001000,0.001000,0.001000,0.001000
1028.615385,-0.021345,0.001000,0.001000,0.001000,0.001000,0.001000
1028.634615,-0.022591,0.001000,0.001000,0.001000,0.001000,0.001000
1028.653846,-0.023820,0.001000,0.001000,0.001000,0.001000,0.001000
1028.673077,-0.025030,0.001000,0.001000,0.001000,0.001000,0.001000
1028.692308,-0.026221,0.001000,0.001000,0.001000,0.001000,0.001000
1028.711538,-0.027392,0.001000,0.001000,0.001000,0.001000,0.001000
1028.730769,-0.028542,0.001000,0.001000,0.001000,0.001000,0.001000
1028.750000,-0.029669,0.001000,0.001000,0.001000,0.001000,0.001000
1028.769231,-0.030774,0.001000,0.001000,0.001000,0.001000,0.001000
1028.788462,-0.031856,0.001000,0.001000,0.001000,0.001000,0.001000
1028.807692,-0.032912,0.001000,0.001000,0.001000,0.001000,0.001000
1028.826923,-0.033944,0.001000,0.001000,0.001000,0.001000,0.001000
1028.846154,-0.034949,0.001000,0.001000,0.001000,0.001000,0.001000
1028.865385,-0.035928,0.001000,0.001000,0.001000,0.001000,0.001000
1028.884615,-0.036878,0.001000,0.001000,0.001000,0.001000,0.001000
1028.903846,-0.037801,0.001000,0.001000,0.001000,0.001000,0.001000
1028.923077,-0.038694,0.001000,0.001000,0.001000,0.001000,0.001000
1028.942308,-0.039558,0.001000,0.001000,0.001000,0.001000,0.001000
1028.961538,-0.040391,0.001000,0.001000,0.001000,0.001000,0.001000
1028.980769,-0.041193,0.001000,0.001000,0.001000,0.001000,0.001000
1029.000000,-0.041963,0.001000,0.001000,0.001000,0.001000,0.001000
1029.019231,-0.042701,0.001000,0.001000,0.001000,0.001000,0.001000
1029.038462,-0.043406,0.001000,0.001000,0.001000,0.001000,0.001000
1029.057692,-0.044078,0.001000,0.001000,0.001000,0.001000,0.001000
1029.076923,-0.044716,0.001000,0.001000,0.001000,0.001000,0.001000
1029.096154,-0.045319,0.001000,0.001000,0.001000,0.001000,0.001000
1029.115385,-0.045888,0.001000,0.001000,0.001000,0.001000,0.001000
1029.134615,-0.046421,0.001000,0.001000,0.001000,0.001000,0.001000
1029.153846,-0.046918,0.001000,0.001000,0.001000,0.001000,0.001000
1029.173077,-0.047380,0.001000,0.001000,0.001000,0.001000,0.001000
1029.192308,-0.047804,0.001000,0.001000,0.001000,0.001000,0.001000
1029.211538,-0.048193,0.001000,0.001000,0.001000,0.001000,0.001000
1029.230769,-0.048544,0.001000,0.001000,0.001000,0.001000,0.001000
1029.250000,-0.048857,0.001000,0.001000,0.001000,0.001000,0.001000
1029.269231,-0.049133,0.001000,0.001000,0.001000,0.001000,0.001000
1029.288462,-0.049371,0.001000,0.001000,0.001000,0.001000,0.001000
1029.307692,-0.049572,0.001000,0.001000,0.001000,0.001000,0.001000
1029.326923,-0.049734,0.001000,0.001000,0.001000,0.001000,0.001000
1029.346154,-0.049858,0.001000,0.001000,0.001000,0.001000,0.001000
1029.365385,-0.049943,0.001000,0.001000,0.001000,0.001000,0.001000
1029.384615,-0.049990,0.001000,0.001000,0.001000,0.001000,0.001000
1029.403846,-0.049999,0.001000,0.001000,0.001000,0.001000,0.001000
1029.423077,-0.049969,0.001000,0.001000,0.001000,0.001000,0.001000
1029.442308,-0.049900,0.001000,0.001000,0.001000,0.001000,0.001000
1029.461538,-0.049793,0.001000,0.001000,0.001000,0.001000,0.001000
1029.480769,-0.049648,0.001000,0.001000,0.001000,0.001000,0.001000
1029.500000,-0.049465,0.001000,0.001000,0.001000,0.001000,0.001000
1029.519231,-0.049243,0.001000,0.001000,0.001000,0.001000,0.001000
1029.538462,-0.048984,0.001000,0.001000,0.001000,0.001000,0.001000
1029.557692,-0.048687,0.001000,0.001000,0.001000,0.001000,0.001000
1029.576923,-0.048353,0.001000,0.001000,0.001000,0.001000,0.001000
1029.596154,-0.047981,0.001000,0.001000,0.001000,0.001000,0.001000
1029.615385,-0.047572,0.001000,0.001000,0.001000,0.001000,0.001000
1029.634615,-0.047127,0.001000,0.001000,0.001000,0.001000,0.001000
1029.653846,-0.046645,0.001000,0.001000,0.001000,0.001000,0.001000
1029.673077,-0.046128,0.001000,0.001000,0.001000,0.001000,0.001000
1029.692308,-0.045575,0.001000,0.001000,0.001000,0.001000,0.001000
1029.711538,-0.044987,0.001000,0.001000,0.001000,0.001000,0.001000
1029.730769,-0.044364,0.001000,0.001000,0.001000,0.001000,0.001000
1029.750000,-0.043708,0.001000,0.001000,0.001000,0.001000,0.001000
1029.769231,-0.043017,0.001000,0.001000,0.001000,0.001000,0.001000
1029.788462,-0.042294,0.001000,0.001000,0.001000,0.001000,0.001000
1029.807692,-0.041538,0.001000,0.001000,0.001000,0.001000,0.001000
1029.826923,-0.040750,0.001000,0.001000,0.001000,0.001000,0.001000
1029.846154,-0.039930,0.001000,0.001000,0.001000,0.001000,0.001000
1029.865385,-0.039080,0.001000,0.001000,0.001000,0.001000,0.001000
1029.884615,-0.038200,0.001000,0.001000,0.001000,0.001000,0.001000
1029.903846,-0.037290,0.001000,0.001000,0.001000,0.001000,0.001000
1029.923077,-0.036352,0.001000,0.001000,0.001000,0.001000,0.001000
1029.942308,-0.035386,0.001000,0.001000,0.001000,0.001000,0.001000
1029.961538,-0.034392,0.001000,0.001000,0.001000,0.001000,0.001000
1029.980769,-0.033372,0.001000,0.001000,0.001000,0.001000,0.001000
1030.000000,0.000000,0.001000,0.001000,0.001000,0.001000,0.001000
1030.019231,0.001422,0.001000,0.001000,0.001000,0.001000,0.001000
1030.038462,0.002843,0.001000,0.001000,0.001000,0.001000,0.001000
1030.057692,0.004261,0.001000,0.001000,0.001000,0.001000,0.001000
1030.076923,0.005676,0.001000,0.001000,0.001000,0.001000,0.001000
1030.096154,0.007087,0.001000,0.001000,0.001000,0.001000,0.001000
1030.115385,0.008492,0.001000,0.001000,0.001000,0.001000,0.001000
1030.134615,0.009890,0.001000,0.001000,0.001000,0.001000,0.001000
1030.153846,0.011279,0.001000,0.001000,0.001000,0.001000,0.001000
1030.173077,0.012660,0.001000,0.001000,0.001000,0.001000,0.001000
1030.192308,0.014031,0.001000,0.001000,0.001000,0.001000,0.001000
1030.211538,0.015390,0.001000,0.001000,0.001000,0.001000,0.001000
1030.230769,0.016737,0.001000,0.001000,0.001000,0.001000,0.001000
1030.250000,0.018070,0.001000,0.001000,0.001000,0.001000,0.001000
1030.269231,0.019388,0.001000,0.001000,0.001000,0.001000,0.001000
1030.288462,0.020691,0.001000,0.001000,0.001000,0.001000,0.001000
1030.307692,0.021977,0.001000,0.001000,0.001000,0.001000,0.001000
1030.326923,0.023246,0.001000,0.001000,0.001000,0.001000,0.001000
1030.346154,0.024495,0.001000,0.001000,0.001000,0.001000,0.001000
1030.365385,0.025725,0.001000,0.001000,0.001000,0.001000,0.001000
1030.384615,0.026934,0.001000,0.001000,0.001000,0.001000,0.001000
1030.403846,0.028121,0.001000,0.001000,0.001000,0.001000,0.001000
1030.423077,0.029286,0.001000,0.001000,0.001000,0.001000,0.001000
1030.442308,0.030426,0.001000,0.001000,0.001000,0.001000,0.001000
1030.461538,0.031542,0.001000,0.001000,0.001000,0.001000,0.001000
1030.480769,0.032633,0.001000,0.001000,0.001000,0.001000,0.001000
1030.500000,0.033697,0.001000,0.001000,0.001000,0.001000,0.001000
1030.519231,0.034734,0.001000,0.001000,0.001000,0.001000,0.001000
1030.538462,0.035743,0.001000,0.001000,0.001000,0.001000,0.001000
1030.557692,0.036723,0.001000,0.001000,0.001000,0.001000,0.001000
1030.576923,0.037673,0.001000,0.001000,0.001000,0.001000,0.001000
1030.596154,0.038593,0.001000,0.001000,0.001000,0.001000,0.001000
1030.615385,0.039481,0.001000,0.001000,0.001000,0.001000,0.001000
1030.634615,0.040338,0.001000,0.001000,0.001000,0.001000,0.001000
1030.653846,0.041162,0.001000,0.001000,0.001000,0.001000,0.001000
1030.673077,0.041952,0.001000,0.001000,0.001000,0.001000,0.001000
1030.692308,0.042709,0.001000,0.001000,0.001000,0.001000,0.001000
1030.711538,0.043431,0.001000,0.001000,0.001000,0.001000,0.001000
1030.730769,0.044118,0.001000,0.001000,0.001000,0.001000,0.001000
1030.750000,0.044769,0.001000,0.001000,0.001000,0.001000,0.001000
1030.769231,0.045384,0.001000,0.001000,0.001000,0.001000,0.001000
1030.788462,0.045963,0.001000,0.001000,0.001000,0.001000,0.001000
1030.807692,0.046504,0.001000,0.001000,0.001000,0.001000,0.001000
1030.826923,0.047007,0.001000,0.001000,0.001000,0.001000,0.001000
1030.846154,0.047473,0.001000,0.001000,0.001000,0.001000,0.001000
1030.865385,0.047900,0.001000,0.001000,0.001000,0.001000,0.001000
1030.884615,0.048289,0.001000,0.001000,0.001000,0.001000,0.001000
1030.903846,0.048638,0.001000,0.001000,0.001000,0.001000,0.001000
1030.923077,0.048948,0.001000,0.001000,0.001000,0.001000,0.001000
1030.942308,0.049218,0.001000,0.001000,0.001000,0.001000,0.001000
1030.961538,0.049449,0.001000,0.001000,0.001000,0.001000,0.001000
1030.980769,0.049639,0.001000,0.001000,0.001000,0.001000,0.001000
1031.000000,0.049790,0.001000,0.001000,0.001000,0.001000,0.001000
1031.019231,0.049900,0.001000,0.001000,0.001000,0.001000,0.001000
1031.038462,0.049970,0.001000,0.001000,0.001000,0.001000,0.001000
1031.057692,0.049999,0.001000,0.001000,0.001000,0.001000,0.001000
1031.076923,0.049988,0.001000,0.001000,0.001000,0.001000,0.001000
1031.096154,0.049936,0.001000,0.001000,0.001000,0.001000,0.001000
1031.115385,0.049844,0.001000,0.001000,0.001000,0.001000,0.001000
1031.134615,0.049712,0.001000,0.001000,0.001000,0.001000,0.001000
1031.153846,0.049540,0.001000,0.001000,0.001000,0.001000,0.001000
1031.173077,0.049327,0.001000,0.001000,0.001000,0.001000,0.001000
1031.192308,0.049075,0.001000,0.001000,0.001000,0.001000,0.001000
1031.211538,0.048782,0.001000,0.001000,0.001000,0.001000,0.001000
1031.230769,0.048451,0.001000,0.001000,0.001000,0.001000,0.001000
1031.250000,0.048080,0.001000,0.001000,0.001000,0.001000,0.001000
1031.269231,0.047670,0.001000,0.001000,0.001000,0.001000,0.001000
1031.288462,0.047222,0.001000,0.001000,0.001000,0.001000,0.001000
1031.307692,0.046735,0.001000,0.001000,0.001000,0.001000,0.001000
1031.326923,0.046211,0.001000,0.001000,0.001000,0.001000,0.001000
1031.346154,0.045649,0.001000,0.001000,0.001000,0.001000,0.001000
1031.365385,0.045051,0.001000,0.001000,0.001000,0.001000,0.001000
1031.384615,0.044416,0.001000,0.001000,0.001000,0.001000,0.001000
1031.403846,0.043745,0.001000,0.001000,0.001000,0.001000,0.001000
1031.423077,0.043038,0.001000,0.001000,0.001000,0.001000,0.001000
1031.442308,0.042297,0.001000,0.001000,0.001000,0.001000,0.001000
1031.461538,0.041522,0.001000,0.001000,0.001000,0.001000,0.001000
1031.480769,0.040713,0.001000,0.001000,0.001000,0.001000,0.001000
1031.500000,0.039871,0.001000,0.001000,0.001000,0.001000,0.001000
1031.519231,0.038997,0.001000,0.001000,0.001000,0.001000,0.001000
1031.538462,0.038091,0.001000,0.001000,0.001000,0.001000,0.001000
1031.557692,0.037154,0.001000,0.001000,0.001000,0.001000,0.001000
1031.576923,0.036188,0.001000,0.001000,0.001000,0.001000,0.001000
1031.596154,0.035192,0.001000,0.001000,0.001000,0.001000,0.001000
1031.615385,0.034168,0.001000,0.001000,0.001000,0.001000,0.001000
1031.634615,0.033116,0.001000,0.001000,0.001000,0.001000,0.001000
1031.653846,0.032037,0.001000,0.001000,0.001000,0.001000,0.001000
1031.673077,0.030932,0.001000,0.001000,0.001000,0.001000,0.001000
1031.692308,0.029802,0.001000,0.001000,0.001000,0.001000,0.001000
1031.711538,0.028648,0.001000,0.001000,0.001000,0.001000,0.001000
1031.730769,0.027471,0.001000,0.001000,0.001000,0.001000,0.001000
1031.750000,0.026272,0.001000,0.001000,0.001000,0.001000,0.001000
1031.769231,0.025052,0.001000,0.001000,0.001000,0.001000,0.001000
1031.788462,0.023811,0.001000,0.001000,0.001000,0.001000,0.001000
1031.807692,0.022551,0.001000,0.001000,0.001000,0.001000,0.001000
1031.826923,0.021273,0.001000,0.001000,0.001000,0.001000,0.001000
1031.846154,0.019977,0.001000,0.001000,0.001000,0.001000,0.001000
1031.865385,0.018666,0.001000,0.001000,0.001000,0.001000,0.001000
1031.884615,0.017339,0.001000,0.001000,0.001000,0.001000,0.001000
1031.903846,0.015998,0.001000,0.001000,0.001000,0.001000,0.001000
1031.923077,0.014644,0.001000,0.001000,0.001000,0.001000,0.001000
1031.942308,0.013279,0.001000,0.001000,0.001000,0.001000,0.001000
1031.961538,0.011903,0.001000,0.001000,0.001000,0.001000,0.001000
1031.980769,0.010517,0.001000,0.001000,0.001000,0.001000,0.001000
1032.000000,0.009122,0.001000,0.001000,0.001000,0.001000,0.001000
1032.019231,0.007720,0.001000,0.001000,0.001000,0.001000,0.001000
1032.038462,0.006312,0.001000,0.001000,0.001000,0.001000,0.001000
1032.057692,0.004899,0.001000,0.001000,0.001000,0.001000,0.001000
1032.076923,0.003482,0.001000,0.001000,0.001000,0.001000,0.001000
1032.096154,0.002062,0.001000,0.001000,0.001000,0.001000,0.001000
1032.115385,0.000641,0.001000,0.001000,0.001000,0.001000,0.001000
1032.134615,-0.000782,0.001000,0.001000,0.001000,0.001000,0.001000
1032.153846,-0.002203,0.001000,0.001000,0.001000,0.001000,0.001000
1032.173077,-0.003623,0.001000,0.001000,0.001000,0.001000,0.001000
1032.192308,-0.005039,0.001000,0.001000,0.001000,0.001000,0.001000
1032.211538,-0.006452,0.001000,0.001000,0.001000,0.001000,0.001000
1032.230769,-0.007860,0.001000,0.001000,0.001000,0.001000,0.001000
1032.250000,-0.009261,0.001000,0.001000,0.001000,0.001000,0.001000
1032.269231,-0.010654,0.001000,0.001000,0.001000,0.001000,0.001000
1032.288462,-0.012039,0.001000,0.001000,0.001000,0.001000,0.001000
1032.307692,-0.013415,0.001000,0.001000,0.001000,0.001000,0.001000
1032.326923,-0.014779,0.001000,0.001000,0.001000,0.001000,0.001000
1032.346154,-0.016132,0.001000,0.001000,0.001000,0.001000,0.001000
1032.365385,-0.017471,0.001000,0.001000,0.001000,0.001000,0.001000
1032.384615,-0.018796,0.001000,0.001000,0.001000,0.001000,0.001000
1032.403846,-0.020106,0.001000,0.001000,0.001000,0.001000,0.001000
1032.423077,-0.021400,0.001000,0.001000,0.001000,0.001000,0.001000
1032.442308,-0.022677,0.001000,0.001000,0.001000,0.001000,0.001000
1032.461538,-0.023935,0.001000,0.001000,0.001000,0.001000,0.001000
1032.480769,-0.025174,0.001000,0.001000,0.001000,0.001000,0.001000
1032.500000,-0.026392,0.001000,0.001000,0.001000,0.001000,0.001000
1032.519231,-0.027589,0.001000,0.001000,0.001000,0.001000,0.001000
1032.538462,-0.028764,0.001000,0.001000,0.001000,0.001000,0.001000
1032.557692,-0.029915,0.001000,0.001000,0.001000,0.001000,0.001000
1032.576923,-0.031043,0.001000,0.001000,0.001000,0.001000,0.001000
1032.596154,-0.032145,0.001000,0.001000,0.001000,0.001000,0.001000
1032.615385,-0.033221,0.001000,0.001000,0.001000,0.001000,0.001000
1032.634615,-0.034270,0.001000,0.001000,0.001000,0.001000,0.001000
1032.653846,-0.035292,0.001000,0.001000,0.001000,0.001000,0.001000
1032.673077,-0.036285,0.001000,0.001000,0.001000,0.001000,0.001000
1032.692308,-0.037249,0.001000,0.001000,0.001000,0.001000,0.001000
1032.711538,-0.038182,0.001000,0.001000,0.001000,0.001000,0.001000
1032.730769,-0.039085,0.001000,0.001000,0.001000,0.001000,0.001000
1032.750000,-0.039956,0.001000,0.001000,0.001000,0.001000,0.001000
1032.769231,-0.040794,0.001000,0.001000,0.001000,0.001000,0.001000
1032.788462,-0.041600,0.001000,0.001000,0.001000,0.001000,0.001000
1032.807692,-0.042372,0.001000,0.001000,0.001000,0.001000,0.001000
1032.826923,-0.043110,0.001000,0.001000,0.001000,0.001000,0.001000
1032.846154,-0.043813,0.001000,0.001000,0.001000,0.001000,0.001000
1032.865385,-0.044480,0.001000,0.001000,0.001000,0.001000,0.001000
1032.884615,-0.045112,0.001000,0.001000,0.001000,0.001000,0.001000
1032.903846,-0.045707,0.001000,0.001000,0.001000,0.001000,0.001000
1032.923077,-0.046265,0.001000,0.001000,0.001000,0.001000,0.001000
1032.942308,-0.046785,0.001000,0.001000,0.001000,0.001000,0.001000
1032.961538,-0.047268,0.001000,0.001000,0.001000,0.001000,0.001000
1032.980769,-0.047713,0.001000,0.001000,0.001000,0.001000,0.001000
1033.000000,-0.048118,0.001000,0.001000,0.001000,0.001000,0.001000
1033.019231,-0.048485,0.001000,0.001000,0.001000,0.001000,0.001000
1033.038462,-0.048813,0.001000,0.001000,0.001000,0.001000,0.001000
1033.057692,-0.049101,0.001000,0.001000,0.001000,0.001000,0.001000
1033.076923,-0.049350,0.001000,0.001000,0.001000,0.001000,0.001000
1033.096154,-0.049558,0.001000,0.001000,0.001000,0.001000,0.001000
1033.115385,-0.049727,0.001000,0.001000,0.001000,0.001000,0.001000
1033.134615,-0.049855,0.001000,0.001000,0.001000,0.001000,0.001000
1033.153846,-0.049943,0.001000,0.001000,0.001000,0.001000,0.001000
1033.173077,-0.049991,0.001000,0.001000,0.001000,0.001000,0.001000
1033.192308,-0.049998,0.001000,0.001000,0.001000,0.001000,0.001000
1033.211538,-0.049965,0.001000,0.001000,0.001000,0.001000,0.001000
1033.230769,-0.049891,0.001000,0.001000,0.001000,0.001000,0.001000
1033.250000,-0.049777,0.001000,0.001000,0.001000,0.001000,0.001000
1033.269231,-0.049622,0.001000,0.001000,0.001000,0.001000,0.001000
1033.288462,-0.049428,0.001000,0.001000,0.001000,0.001000,0.001000
1033.307692,-0.049193,0.001000,0.001000,0.001000,0.001000,0.001000
1033.326923,-0.048919,0.001000,0.001000,0.001000,0.001000,0.001000
1033.346154,-0.048605,0.001000,0.001000,0.001000,0.001000,0.001000
1033.365385,-0.048252,0.001000,0.001000,0.001000,0.001000,0.001000
1033.384615,-0.047860,0.001000,0.001000,0.001000,0.001000,0.001000
1033.403846,-0.047429,0.001000,0.001000,0.001000,0.001000,0.001000
1033.423077,-0.046959,0.001000,0.001000,0.001000,0.001000,0.001000
1033.442308,-0.046452,0.001000,0.001000,0.001000,0.001000,0.001000
1033.461538,-0.045907,0.001000,0.001000,0.001000,0.001000,0.001000
1033.480769,-0.045325,0.001000,0.001000,0.001000,0.001000,0.001000
1033.500000,-0.044706,0.001000,0.001000,0.001000,0.001000,0.001000
1033.519231,-0.044051,0.001000,0.001000,0.001000,0.001000,0.001000
1033.538462,-0.043361,0.001000,0.001000,0.001000,0.001000,0.001000
1033.557692,-0.042635,0.001000,0.001000,0.001000,0.001000,0.001000
1033.576923,-0.041875,0.001000,0.001000,0.001000,0.001000,0.001000
1033.596154,-0.041081,0.001000,0.001000,0.001000,0.001000,0.001000
1033.615385,-0.040254,0.001000,0.001000,0.001000,0.001000,0.001000
1033.634615,-0.039394,0.001000,0.001000,0.001000,0.001000,0.001000
1033.653846,-0.038503,0.001000,0.001000,0.001000,0.001000,0.001000
1033.673077,-0.037580,0.001000,0.001000,0.001000,0.001000,0.001000
1033.692308,-0.036627,0.001000,0.001000,0.001000,0.001000,0.001000
1033.711538,-0.035644,0.001000,0.001000,0.001000,0.001000,0.001000
1033.730769,-0.034632,0.001000,0.001000,0.001000,0.001000,0.001000
1033.750000,-0.033593,0.001000,0.001000,0.001000,0.001000,0.001000
1033.769231,-0.032526,0.001000,0.001000,0.001000,0.001000,0.001000
1033.788462,-0.031433,0.001000,0.001000,0.001000,0.001000,0.001000
1033.807692,-0.030314,0.001000,0.001000,0.001000,0.001000,0.001000
1033.826923,-0.029171,0.001000,0.001000,0.001000,0.001000,0.001000
1033.846154,-0.028004,0.001000,0.001000,0.001000,0.001000,0.001000
1033.865385,-0.026815,0.001000,0.001000,0.001000,0.001000,0.001000
1033.884615,-0.025604,0.001000,0.001000,0.001000,0.001000,0.001000
1033.903846,-0.024372,0.001000,0.001000,0.001000,0.001000,0.001000
1033.923077,-0.023121,0.001000,0.001000,0.001000,0.001000,0.001000
1033.942308,-0.021851,0.001000,0.001000,0.001000,0.001000,0.001000
1033.961538,-0.020563,0.001000,0.001000,0.001000,0.001000,0.001000
1033.980769,-0.019258,0.001000,0.001000,0.001000,0.001000,0.001000
1034.000000,-0.017938,0.001000,0.001000,0.001000,0.001000,0.001000
1034.019231,-0.016604,0.001000,0.001000,0.001000,0.001000,0.001000
1034.038462,-0.015256,0.001000,0.001000,0.001000,0.001000,0.001000
1034.057692,-0.013895,0.001000,0.001000,0.001000,0.001000,0.001000
1034.076923,-0.012524,0.001000,0.001000,0.001000,0.001000,0.001000
1034.096154,-0.011142,0.001000,0.001000,0.001000,0.001000,0.001000
1034.115385,-0.009751,0.001000,0.001000,0.001000,0.001000,0.001000
1034.134615,-0.008353,0.001000,0.001000,0.001000,0.001000,0.001000
1034.153846,-0.006947,0.001000,0.001000,0.001000,0.001000,0.001000
1034.173077,-0.005536,0.001000,0.001000,0.001000,0.001000,0.001000
1034.192308,-0.004121,0.001000,0.001000,0.001000,0.001000,0.001000
1034.211538,-0.002702,0.001000,0.001000,0.001000,0.001000,0.001000
1034.230769,-0.001281,0.001000,0.001000,0.001000,0.001000,0.001000
1034.250000,0.000141,0.001000,0.001000,0.001000,0.001000,0.001000
1034.269231,0.001563,0.001000,0.001000,0.001000,0.001000,0.001000
1034.288462,0.002983,0.001000,0.001000,0.001000,0.001000,0.001000
1034.307692,0.004402,0.001000,0.001000,0.001000,0.001000,0.001000
1034.326923,0.005816,0.001000,0.001000,0.001000,0.001000,0.001000
1034.346154,0.007226,0.001000,0.001000,0.001000,0.001000,0.001000
1034.365385,0.008631,0.001000,0.001000,0.001000,0.001000,0.001000
1034.384615,0.010028,0.001000,0.001000,0.001000,0.001000,0.001000
1034.403846,0.011417,0.001000,0.001000,0.001000,0.001000,0.001000
1034.423077,0.012796,0.001000,0.001000,0.001000,0.001000,0.001000
1034.442308,0.014166,0.001000,0.001000,0.001000,0.001000,0.001000
1034.461538,0.015524,0.001000,0.001000,0.001000,0.001000,0.001000
1034.480769,0.016869,0.001000,0.001000,0.001000,0.001000,0.001000
1034.500000,0.018201,0.001000,0.001000,0.001000,0.001000,0.001000
1034.519231,0.019518,0.001000,0.001000,0.001000,0.001000,0.001000
1034.538462,0.020819,0.001000,0.001000,0.001000,0.001000,0.001000
1034.557692,0.022104,0.001000,0.001000,0.001000,0.001000,0.001000
1034.576923,0.023370,0.001000,0.001000,0.001000,0.001000,0.001000
1034.596154,0.024618,0.001000,0.001000,0.001000,0.001000,0.001000
1034.615385,0.025846,0.001000,0.001000,0.001000,0.001000,0.001000
1034.634615,0.027053,0.001000,0.001000,0.001000,0.001000,0.001000
1034.653846,0.028238,0.001000,0.001000,0.001000,0.001000,0.001000
1034.673077,0.029400,0.001000,0.001000,0.001000,0.001000,0.001000
