timestamp,ax,ay,az,gx,gy,gz
1000.000000,0.000000,0.001000,0.001000,0.001000,0.001000,0.001000
1000.019231,0.001459,0.001000,0.001000,0.001000,0.001000,0.001000
1000.038462,0.002918,0.001000,0.001000,0.001000,0.001000,0.001000
1000.057692,0.004374,0.001000,0.001000,0.001000,0.001000,0.001000
1000.076923,0.005826,0.001000,0.001000,0.001000,0.001000,0.001000
1000.096154,0.007273,0.001000,0.001000,0.001000,0.001000,0.001000
1000.115385,0.008713,0.001000,0.001000,0.001000,0.001000,0.001000
1000.134615,0.010147,0.001000,0.001000,0.001000,0.001000,0.001000
1000.153846,0.011572,0.001000,0.001000,0.001000,0.001000,0.001000
1000.173077,0.012987,0.001000,0.001000,0.001000,0.001000,0.001000
1000.192308,0.014391,0.001000,0.001000,0.001000,0.001000,0.001000
1000.211538,0.015782,0.001000,0.001000,0.001000,0.001000,0.001000
1000.230769,0.017160,0.001000,0.001000,0.001000,0.001000,0.001000
1000.250000,0.018524,0.001000,0.001000,0.001000,0.001000,0.001000
1000.269231,0.019872,0.001000,0.001000,0.001000,0.001000,0.001000
1000.288462,0.021202,0.001000,0.001000,0.001000,0.001000,0.001000
1000.307692,0.022515,0.001000,0.001000,0.001000,0.001000,0.001000
1000.326923,0.023809,0.001000,0.001000,0.001000,0.001000,0.001000
1000.346154,0.025082,0.001000,0.001000,0.001000,0.001000,0.001000
1000.365385,0.026334,0.001000,0.001000,0.001000,0.001000,0.001000
1000.384615,0.027563,0.001000,0.001000,0.001000,0.001000,0.001000
1000.403846,0.028769,0.001000,0.001000,0.001000,0.001000,0.001000
1000.423077,0.029951,0.001000,0.001000,0.001000,0.001000,0.001000
1000.442308,0.031107,0.001000,0.001000,0.001000,0.001000,0.001000
1000.461538,0.032236,0.001000,0.001000,0.001000,0.001000,0.001000
1000.480769,0.033338,0.001000,0.001000,0.001000,0.001000,0.001000
1000.500000,0.034411,0.001000,0.001000,0.001000,0.001000,0.001000
1000.519231,0.035456,0.001000,0.001000,0.001000,0.001000,0.001000
1000.538462,0.036470,0.001000,0.001000,0.001000,0.001000,0.001000
1000.557692,0.037452,0.001000,0.001000,0.001000,0.001000,0.001000
1000.576923,0.038403,0.001000,0.001000,0.001000,0.001000,0.001000
1000.596154,0.039322,0.001000,0.001000,0.001000,0.001000,0.001000
1000.615385,0.040206,0.001000,0.001000,0.001000,0.001000,0.001000
1000.634615,0.041057,0.001000,0.001000,0.001000,0.001000,0.001000
1000.653846,0.041872,0.001000,0.001000,0.001000,0.001000,0.001000
1000.673077,0.042652,0.001000,0.001000,0.001000,0.001000,0.001000
1000.692308,0.043396,0.001000,0.001000,0.001000,0.001000,0.001000
1000.711538,0.044102,0.001000,0.001000,0.001000,0.001000,0.001000
1000.730769,0.044771,0.001000,0.001000,0.001000,0.001000,0.001000
1000.750000,0.045402,0.001000,0.001000,0.001000,0.001000,0.001000
1000.769231,0.045994,0.001000,0.001000,0.001000,0.001000,0.001000
1000.788462,0.046547,0.001000,0.001000,0.001000,0.001000,0.001000
1000.807692,0.047060,0.001000,0.001000,0.001000,0.001000,0.001000
1000.826923,0.047533,0.001000,0.001000,0.001000,0.001000,0.001000
1000.846154,0.047965,0.001000,0.001000,0.001000,0.001000,0.001000
1000.865385,0.048357,0.001000,0.001000,0.001000,0.001000,0.001000
1000.884615,0.048707,0.001000,0.001000,0.001000,0.001000,0.001000
1000.903846,0.049016,0.001000,0.001000,0.001000,0.001000,0.001000
1000.923077,0.049284,0.001000,0.001000,0.001000,0.001000,0.001000
1000.942308,0.049509,0.001000,0.001000,0.001000,0.001000,0.001000
1000.961538,0.049692,0.001000,0.001000,0.001000,0.001000,0.001000
1000.980769,0.049832,0.001000,0.001000,0.001000,0.001000,0.001000
1001.000000,0.049931,0.001000,0.001000,0.001000,0.001000,0.001000
1001.019231,0.049986,0.001000,0.001000,0.001000,0.001000,0.001000
1001.038462,0.049999,0.001000,0.001000,0.001000,0.001000,0.001000
1001.057692,0.049970,0.001000,0.001000,0.001000,0.001000,0.001000
1001.076923,0.049897,0.001000,0.001000,0.001000,0.001000,0.001000
1001.096154,0.049783,0.001000,0.001000,0.001000,0.001000,0.001000
1001.115385,0.049626,0.001000,0.001000,0.001000,0.001000,0.001000
1001.134615,0.049426,0.001000,0.001000,0.001000,0.001000,0.001000
1001.153846,0.049185,0.001000,0.001000,0.001000,0.001000,0.001000
1001.173077,0.048901,0.001000,0.001000,0.001000,0.001000,0.001000
1001.192308,0.048576,0.001000,0.001000,0.001000,0.001000,0.001000
1001.211538,0.048209,0.001000,0.001000,0.001000,0.001000,0.001000
1001.230769,0.047802,0.001000,0.001000,0.001000,0.001000,0.001000
1001.250000,0.047353,0.001000,0.001000,0.001000,0.001000,0.001000
1001.269231,0.046865,0.001000,0.001000,0.001000,0.001000,0.001000
1001.288462,0.046336,0.001000,0.001000,0.001000,0.001000,0.001000
1001.307692,0.045768,0.001000,0.001000,0.001000,0.001000,0.001000
1001.326923,0.045161,0.001000,0.001000,0.001000,0.001000,0.001000
1001.346154,0.044515,0.001000,0.001000,0.001000,0.001000,0.001000
1001.365385,0.043832,0.001000,0.001000,0.001000,0.001000,0.001000
1001.384615,0.043111,0.001000,0.001000,0.001000,0.001000,0.001000
1001.403846,0.042353,0.001000,0.001000,0.001000,0.001000,0.001000
1001.423077,0.041559,0.001000,0.001000,0.001000,0.001000,0.001000
1001.442308,0.040730,0.001000,0.001000,0.001000,0.001000,0.001000
1001.461538,0.039866,0.001000,0.001000,0.001000,0.001000,0.001000
1001.480769,0.038968,0.001000,0.001000,0.001000,0.001000,0.001000
1001.500000,0.038037,0.001000,0.001000,0.001000,0.001000,0.001000
1001.519231,0.037074,0.001000,0.001000,0.001000,0.001000,0.001000
1001.538462,0.036079,0.001000,0.001000,0.001000,0.001000,0.001000
1001.557692,0.035053,0.001000,0.001000,0.001000,0.001000,0.001000
1001.576923,0.033997,0.001000,0.001000,0.001000,0.001000,0.001000
1001.596154,0.032912,0.001000,0.001000,0.001000,0.001000,0.001000
1001.615385,0.031800,0.001000,0.001000,0.001000,0.001000,0.001000
1001.634615,0.030660,0.001000,0.001000,0.001000,0.001000,0.001000
1001.653846,0.029494,0.001000,0.001000,0.001000,0.001000,0.001000
1001.673077,0.028303,0.001000,0.001000,0.001000,0.001000,0.001000
1001.692308,0.027088,0.001000,0.001000,0.001000,0.001000,0.001000
1001.711538,0.025849,0.001000,0.001000,0.001000,0.001000,0.001000
1001.730769,0.024589,0.001000,0.001000,0.001000,0.001000,0.001000
1001.750000,0.023308,0.001000,0.001000,0.001000,0.001000,0.001000
1001.769231,0.022006,0.001000,0.001000,0.001000,0.001000,0.001000
1001.788462,0.020687,0.001000,0.001000,0.001000,0.001000,0.001000
1001.807692,0.019349,0.001000,0.001000,0.001000,0.001000,0.001000
1001.826923,0.017995,0.001000,0.001000,0.001000,0.001000,0.001000
1001.846154,0.016626,0.001000,0.001000,0.001000,0.001000,0.001000
1001.865385,0.015242,0.001000,0.001000,0.001000,0.001000,0.001000
1001.884615,0.013846,0.001000,0.001000,0.001000,0.001000,0.001000
1001.903846,0.012437,0.001000,0.001000,0.001000,0.001000,0.001000
1001.923077,0.011018,0.001000,0.001000,0.001000,0.001000,0.001000
1001.942308,0.009590,0.001000,0.001000,0.001000,0.001000,0.001000
1001.961538,0.008154,0.001000,0.001000,0.001000,0.001000,0.001000
1001.980769,0.006710,0.001000,0.001000,0.001000,0.001000,0.001000
1002.000000,0.005261,0.001000,0.001000,0.001000,0.001000,0.001000
1002.019231,0.003807,0.001000,0.001000,0.001000,0.001000,0.001000
1002.038462,0.002350,0.001000,0.001000,0.001000,0.001000,0.001000
1002.057692,0.000892,0.001000,0.001000,0.001000,0.001000,0.001000
1002.076923,-0.000568,0.001000,0.001000,0.001000,0.001000,0.001000
1002.096154,-0.002027,0.001000,0.001000,0.001000,0.001000,0.001000
1002.115385,-0.003485,0.001000,0.001000,0.001000,0.001000,0.001000
1002.134615,-0.004939,0.001000,0.001000,0.001000,0.001000,0.001000
1002.153846,-0.006389,0.001000,0.001000,0.001000,0.001000,0.001000
1002.173077,-0.007834,0.001000,0.001000,0.001000,0.001000,0.001000
1002.192308,-0.009272,0.001000,0.001000,0.001000,0.001000,0.001000
1002.211538,-0.010703,0.001000,0.001000,0.001000,0.001000,0.001000
1002.230769,-0.012124,0.001000,0.001000,0.001000,0.001000,0.001000
1002.250000,-0.013534,0.001000,0.001000,0.001000,0.001000,0.001000
1002.269231,-0.014934,0.001000,0.001000,0.001000,0.001000,0.001000
1002.288462,-0.016320,0.001000,0.001000,0.001000,0.001000,0.001000
1002.307692,-0.017693,0.001000,0.001000,0.001000,0.001000,0.001000
1002.326923,-0.019050,0.001000,0.001000,0.001000,0.001000,0.001000
1002.346154,-0.020392,0.001000,0.001000,0.001000,0.001000,0.001000
1002.365385,-0.021715,0.001000,0.001000,0.001000,0.001000,0.001000
1002.384615,-0.023021,0.001000,0.001000,0.001000,0.001000,0.001000
1002.403846,-0.024307,0.001000,0.001000,0.001000,0.001000,0.001000
1002.423077,-0.025572,0.001000,0.001000,0.001000,0.001000,0.001000
1002.442308,-0.026815,0.001000,0.001000,0.001000,0.001000,0.001000
1002.461538,-0.028035,0.001000,0.001000,0.001000,0.001000,0.001000
1002.480769,-0.029232,0.001000,0.001000,0.001000,0.001000,0.001000
1002.500000,-0.030404,0.001000,0.001000,0.001000,0.001000,0.001000
1002.519231,-0.031549,0.001000,0.001000,0.001000,0.001000,0.001000
1002.538462,-0.032668,0.001000,0.001000,0.001000,0.001000,0.001000
1002.557692,-0.033759,0.001000,0.001000,0.001000,0.001000,0.001000
1002.576923,-0.034821,0.001000,0.001000,0.001000,0.001000,0.001000
1002.596154,-0.035854,0.001000,0.001000,0.001000,0.001000,0.001000
1002.615385,-0.036856,0.001000,0.001000,0.001000,0.001000,0.001000
1002.634615,-0.037826,0.001000,0.001000,0.001000,0.001000,0.001000
1002.653846,-0.038765,0.001000,0.001000,0.001000,0.001000,0.001000
1002.673077,-0.039670,0.001000,0.001000,0.001000,0.001000,0.001000
1002.692308,-0.040542,0.001000,0.001000,0.001000,0.001000,0.001000
1002.711538,-0.041378,0.001000,0.001000,0.001000,0.001000,0.001000
1002.730769,-0.042180,0.001000,0.001000,0.001000,0.001000,0.001000
1002.750000,-0.042946,0.001000,0.001000,0.001000,0.001000,0.001000
1002.769231,-0.043675,0.001000,0.001000,0.001000,0.001000,0.001000
1002.788462,-0.044367,0.001000,0.001000,0.001000,0.001000,0.001000
1002.807692,-0.045021,0.001000,0.001000,0.001000,0.001000,0.001000
1002.826923,-0.045637,0.001000,0.001000,0.001000,0.001000,0.001000
1002.846154,-0.046214,0.001000,0.001000,0.001000,0.001000,0.001000
1002.865385,-0.046751,0.001000,0.001000,0.001000,0.001000,0.001000
1002.884615,-0.047249,0.001000,0.001000,0.001000,0.001000,0.001000
1002.903846,-0.047706,0.001000,0.001000,0.001000,0.001000,0.001000
1002.923077,-0.048123,0.001000,0.001000,0.001000,0.001000,0.001000
1002.942308,-0.048498,0.001000,0.001000,0.001000,0.001000,0.001000
1002.961538,-0.048833,0.001000,0.001000,0.001000,0.001000,0.001000
1002.980769,-0.049125,0.001000,0.001000,0.001000,0.001000,0.001000
1003.000000,-0.049376,0.001000,0.001000,0.001000,0.001000,0.001000
1003.019231,-0.049585,0.001000,0.001000,0.001000,0.001000,0.001000
1003.038462,-0.049752,0.001000,0.001000,0.001000,0.001000,0.001000
1003.057692,-0.049876,0.001000,0.001000,0.001000,0.001000,0.001000
1003.076923,-0.049957,0.001000,0.001000,0.001000,0.001000,0.001000
1003.096154,-0.049996,0.001000,0.001000,0.001000,0.001000,0.001000
1003.115385,-0.049993,0.001000,0.001000,0.001000,0.001000,0.001000
1003.134615,-0.049947,0.001000,0.001000,0.001000,0.001000,0.001000
1003.153846,-0.049858,0.001000,0.001000,0.001000,0.001000,0.001000
1003.173077,-0.049727,0.001000,0.001000,0.001000,0.001000,0.001000
1003.192308,-0.049553,0.001000,0.001000,0.001000,0.001000,0.001000
1003.211538,-0.049337,0.001000,0.001000,0.001000,0.001000,0.001000
1003.230769,-0.049079,0.001000,0.001000,0.001000,0.001000,0.001000
1003.250000,-0.048780,0.001000,0.001000,0.001000,0.001000,0.001000
1003.269231,-0.048438,0.001000,0.001000,0.001000,0.001000,0.001000
1003.288462,-0.048056,0.001000,0.001000,0.001000,0.001000,0.001000
1003.307692,-0.047632,0.001000,0.001000,0.001000,0.001000,0.001000
1003.326923,-0.047168,0.001000,0.001000,0.001000,0.001000,0.001000
1003.346154,-0.046664,0.001000,0.001000,0.001000,0.001000,0.001000
1003.365385,-0.046120,0.001000,0.001000,0.001000,0.001000,0.001000
1003.384615,-0.045536,0.001000,0.001000,0.001000,0.001000,0.001000
1003.403846,-0.044914,0.001000,0.001000,0.001000,0.001000,0.001000
1003.423077,-0.044254,0.001000,0.001000,0.001000,0.001000,0.001000
1003.442308,-0.043555,0.001000,0.001000,0.001000,0.001000,0.001000
1003.461538,-0.042820,0.001000,0.001000,0.001000,0.001000,0.001000
1003.480769,-0.042048,0.001000,0.001000,0.001000,0.001000,0.001000
1003.500000,-0.041241,0.001000,0.001000,0.001000,0.001000,0.001000
1003.519231,-0.040398,0.001000,0.001000,0.001000,0.001000,0.001000
1003.538462,-0.039521,0.001000,0.001000,0.001000,0.001000,0.001000
1003.557692,-0.038610,0.001000,0.001000,0.001000,0.001000,0.001000
1003.576923,-0.037666,0.001000,0.001000,0.001000,0.001000,0.001000
1003.596154,-0.036690,0.001000,0.001000,0.001000,0.001000,0.001000
1003.615385,-0.035683,0.001000,0.001000,0.001000,0.001000,0.001000
1003.634615,-0.034645,0.001000,0.001000,0.001000,0.001000,0.001000
1003.653846,-0.033578,0.001000,0.001000,0.001000,0.001000,0.001000
1003.673077,-0.032483,0.001000,0.001000,0.001000,0.001000,0.001000
1003.692308,-0.031359,0.001000,0.001000,0.001000,0.001000,0.001000
1003.711538,-0.030209,0.001000,0.001000,0.001000,0.001000,0.001000
1003.730769,-0.029033,0.001000,0.001000,0.001000,0.001000,0.001000
1003.750000,-0.027833,0.001000,0.001000,0.001000,0.001000,0.001000
1003.769231,-0.026608,0.001000,0.001000,0.001000,0.001000,0.001000
1003.788462,-0.025361,0.001000,0.001000,0.001000,0.001000,0.001000
1003.807692,-0.024093,0.001000,0.001000,0.001000,0.001000,0.001000
1003.826923,-0.022804,0.001000,0.001000,0.001000,0.001000,0.001000
1003.846154,-0.021495,0.001000,0.001000,0.001000,0.001000,0.001000
1003.865385,-0.020168,0.001000,0.001000,0.001000,0.001000,0.001000
1003.884615,-0.018824,0.001000,0.001000,0.001000,0.001000,0.001000
1003.903846,-0.017464,0.001000,0.001000,0.001000,0.001000,0.001000
1003.923077,-0.016089,0.001000,0.001000,0.001000,0.001000,0.001000
1003.942308,-0.014700,0.001000,0.001000,0.001000,0.001000,0.001000
1003.961538,-0.013299,0.001000,0.001000,0.001000,0.001000,0.001000
1003.980769,-0.011886,0.001000,0.001000,0.001000,0.001000,0.001000
1004.000000,-0.010464,0.001000,0.001000,0.001000,0.001000,0.001000
1004.019231,-0.009032,0.001000,0.001000,0.001000,0.001000,0.001000
1004.038462,-0.007593,0.001000,0.001000,0.001000,0.001000,0.001000
1004.057692,-0.006147,0.001000,0.001000,0.001000,0.001000,0.001000
1004.076923,-0.004696,0.001000,0.001000,0.001000,0.001000,0.001000
1004.096154,-0.003241,0.001000,0.001000,0.001000,0.001000,0.001000
1004.115385,-0.001783,0.001000,0.001000,0.001000,0.001000,0.001000
1004.134615,-0.000324,0.001000,0.001000,0.001000,0.001000,0.001000
1004.153846,0.001136,0.001000,0.001000,0.001000,0.001000,0.001000
1004.173077,0.002595,0.001000,0.001000,0.001000,0.001000,0.001000
1004.192308,0.004051,0.001000,0.001000,0.001000,0.001000,0.001000
1004.211538,0.005504,0.001000,0.001000,0.001000,0.001000,0.001000
1004.230769,0.006952,0.001000,0.001000,0.001000,0.001000,0.001000
1004.250000,0.008395,0.001000,0.001000,0.001000,0.001000,0.001000
1004.269231,0.009830,0.001000,0.001000,0.001000,0.001000,0.001000
1004.288462,0.011257,0.001000,0.001000,0.001000,0.001000,0.001000
1004.307692,0.012674,0.001000,0.001000,0.001000,0.001000,0.001000
1004.326923,0.014080,0.001000,0.001000,0.001000,0.001000,0.001000
1004.346154,0.015475,0.001000,0.001000,0.001000,0.001000,0.001000
1004.365385,0.016856,0.001000,0.001000,0.001000,0.001000,0.001000
1004.384615,0.018223,0.001000,0.001000,0.001000,0.001000,0.001000
1004.403846,0.019574,0.001000,0.001000,0.001000,0.001000,0.001000
1004.423077,0.020909,0.001000,0.001000,0.001000,0.001000,0.001000
1004.442308,0.022226,0.001000,0.001000,0.001000,0.001000,0.001000
1004.461538,0.023524,0.001000,0.001000,0.001000,0.001000,0.001000
1004.480769,0.024802,0.001000,0.001000,0.001000,0.001000,0.001000
1004.500000,0.026058,0.001000,0.001000,0.001000,0.001000,0.001000
1004.519231,0.027293,0.001000,0.001000,0.001000,0.001000,0.001000
1004.538462,0.028504,0.001000,0.001000,0.001000,0.001000,0.001000
1004.557692,0.029691,0.001000,0.001000,0.001000,0.001000,0.001000
1004.576923,0.030853,0.001000,0.001000,0.001000,0.001000,0.001000
1004.596154,0.031988,0.001000,0.001000,0.001000,0.001000,0.001000
1004.615385,0.033096,0.001000,0.001000,0.001000,0.001000,0.001000
1004.634615,0.034176,0.001000,0.001000,0.001000,0.001000,0.001000
1004.653846,0.035227,0.001000,0.001000,0.001000,0.001000,0.001000
1004.673077,0.036248,0.001000,0.001000,0.001000,0.001000,0.001000
1004.692308,0.037237,0.001000,0.001000,0.001000,0.001000,0.001000
1004.711538,0.038195,0.001000,0.001000,0.001000,0.001000,0.001000
1004.730769,0.039121,0.001000,0.001000,0.001000,0.001000,0.001000
1004.750000,0.040013,0.001000,0.001000,0.001000,0.001000,0.001000
1004.769231,0.040871,0.001000,0.001000,0.001000,0.001000,0.001000
1004.788462,0.041695,0.001000,0.001000,0.001000,0.001000,0.001000
1004.807692,0.042482,0.001000,0.001000,0.001000,0.001000,0.001000
1004.826923,0.043234,0.001000,0.001000,0.001000,0.001000,0.001000
1004.846154,0.043949,0.001000,0.001000,0.001000,0.001000,0.001000
1004.865385,0.044626,0.001000,0.001000,0.001000,0.001000,0.001000
1004.884615,0.045265,0.001000,0.001000,0.001000,0.001000,0.001000
1004.903846,0.045866,0.001000,0.001000,0.001000,0.001000,0.001000
1004.923077,0.046427,0.001000,0.001000,0.001000,0.001000,0.001000
1004.942308,0.046949,0.001000,0.001000,0.001000,0.001000,0.001000
1004.961538,0.047431,0.001000,0.001000,0.001000,0.001000,0.001000
1004.980769,0.047873,0.001000,0.001000,0.001000,0.001000,0.001000
1005.000000,0.048274,0.001000,0.001000,0.001000,0.001000,0.001000
1005.019231,0.048633,0.001000,0.001000,0.001000,0.001000,0.001000
1005.038462,0.048952,0.001000,0.001000,0.001000,0.001000,0.001000
1005.057692,0.049228,0.001000,0.001000,0.001000,0.001000,0.001000
1005.076923,0.049463,0.001000,0.001000,0.001000,0.001000,0.001000
1005.096154,0.049655,0.001000,0.001000,0.001000,0.001000,0.001000
1005.115385,0.049805,0.001000,0.001000,0.001000,0.001000,0.001000
1005.134615,0.049912,0.001000,0.001000,0.001000,0.001000,0.001000
1005.153846,0.049978,0.001000,0.001000,0.001000,0.001000,0.001000
1005.173077,0.050000,0.001000,0.001000,0.001000,0.001000,0.001000
1005.192308,0.049980,0.001000,0.001000,0.001000,0.001000,0.001000
1005.211538,0.049917,0.001000,0.001000,0.001000,0.001000,0.001000
1005.230769,0.049812,0.001000,0.001000,0.001000,0.001000,0.001000
1005.250000,0.049664,0.001000,0.001000,0.001000,0.001000,0.001000
1005.269231,0.049474,0.001000,0.001000,0.001000,0.001000,0.001000
1005.288462,0.049242,0.001000,0.001000,0.001000,0.001000,0.001000
1005.307692,0.048968,0.001000,0.001000,0.001000,0.001000,0.001000
1005.326923,0.048652,0.001000,0.001000,0.001000,0.001000,0.001000
1005.346154,0.048294,0.001000,0.001000,0.001000,0.001000,0.001000
1005.365385,0.047896,0.001000,0.001000,0.001000,0.001000,0.001000
1005.384615,0.047456,0.001000,0.001000,0.001000,0.001000,0.001000
1005.403846,0.046977,0.001000,0.001000,0.001000,0.001000,0.001000
1005.423077,0.046457,0.001000,0.001000,0.001000,0.001000,0.001000
1005.442308,0.045897,0.001000,0.001000,0.001000,0.001000,0.001000
1005.461538,0.045299,0.001000,0.001000,0.001000,0.001000,0.001000
1005.480769,0.044662,0.001000,0.001000,0.001000,0.001000,0.001000
1005.500000,0.043986,0.001000,0.001000,0.001000,0.001000,0.001000
1005.519231,0.043274,0.001000,0.001000,0.001000,0.001000,0.001000
1005.538462,0.042524,0.001000,0.001000,0.001000,0.001000,0.001000
1005.557692,0.041738,0.001000,0.001000,0.001000,0.001000,0.001000
1005.576923,0.040917,0.001000,0.001000,0.001000,0.001000,0.001000
1005.596154,0.040061,0.001000,0.001000,0.001000,0.001000,0.001000
1005.615385,0.039170,0.001000,0.001000,0.001000,0.001000,0.001000
1005.634615,0.038246,0.001000,0.001000,0.001000,0.001000,0.001000
1005.653846,0.037290,0.001000,0.001000,0.001000,0.001000,0.001000
1005.673077,0.036302,0.001000,0.001000,0.001000,0.001000,0.001000
1005.692308,0.035283,0.001000,0.001000,0.001000,0.001000,0.001000
1005.711538,0.034234,0.001000,0.001000,0.001000,0.001000,0.001000
1005.730769,0.033155,0.001000,0.001000,0.001000,0.001000,0.001000
1005.750000,0.032049,0.001000,0.001000,0.001000,0.001000,0.001000
1005.769231,0.030915,0.001000,0.001000,0.001000,0.001000,0.001000
1005.788462,0.029754,0.001000,0.001000,0.001000,0.001000,0.001000
1005.807692,0.028569,0.001000,0.001000,0.001000,0.001000,0.001000
1005.826923,0.027359,0.001000,0.001000,0.001000,0.001000,0.001000
1005.846154,0.026126,0.001000,0.001000,0.001000,0.001000,0.001000
1005.865385,0.024870,0.001000,0.001000,0.001000,0.001000,0.001000
1005.884615,0.023593,0.001000,0.001000,0.001000,0.001000,0.001000
1005.903846,0.022297,0.001000,0.001000,0.001000,0.001000,0.001000
1005.923077,0.020981,0.001000,0.001000,0.001000,0.001000,0.001000
1005.942308,0.019647,0.001000,0.001000,0.001000,0.001000,0.001000
1005.961538,0.018296,0.001000,0.001000,0.001000,0.001000,0.001000
1005.980769,0.016930,0.001000,0.001000,0.001000,0.001000,0.001000
1006.000000,0.015550,0.001000,0.001000,0.001000,0.001000,0.001000
1006.019231,0.014156,0.001000,0.001000,0.001000,0.001000,0.001000
1006.038462,0.012750,0.001000,0.001000,0.001000,0.001000,0.001000
1006.057692,0.011334,0.001000,0.001000,0.001000,0.001000,0.001000
1006.076923,0.009907,0.001000,0.001000,0.001000,0.001000,0.001000
1006.096154,0.008473,0.001000,0.001000,0.001000,0.001000,0.001000
1006.115385,0.007031,0.001000,0.001000,0.001000,0.001000,0.001000
1006.134615,0.005583,0.001000,0.001000,0.001000,0.001000,0.001000
1006.153846,0.004130,0.001000,0.001000,0.001000,0.001000,0.001000
1006.173077,0.002674,0.001000,0.001000,0.001000,0.001000,0.001000
1006.192308,0.001215,0.001000,0.001000,0.001000,0.001000,0.001000
1006.211538,-0.000245,0.001000,0.001000,0.001000,0.001000,0.001000
1006.230769,-0.001704,0.001000,0.001000,0.001000,0.001000,0.001000
1006.250000,-0.003162,0.001000,0.001000,0.001000,0.001000,0.001000
1006.269231,-0.004617,0.001000,0.001000,0.001000,0.001000,0.001000
1006.288462,-0.006068,0.001000,0.001000,0.001000,0.001000,0.001000
1006.307692,-0.007514,0.001000,0.001000,0.001000,0.001000,0.001000
1006.326923,-0.008954,0.001000,0.001000,0.001000,0.001000,0.001000
1006.346154,-0.010386,0.001000,0.001000,0.001000,0.001000,0.001000
1006.365385,-0.011810,0.001000,0.001000,0.001000,0.001000,0.001000
1006.384615,-0.013223,0.001000,0.001000,0.001000,0.001000,0.001000
1006.403846,-0.014625,0.001000,0.001000,0.001000,0.001000,0.001000
1006.423077,-0.016014,0.001000,0.001000,0.001000,0.001000,0.001000
1006.442308,-0.017390,0.001000,0.001000,0.001000,0.001000,0.001000
1006.461538,-0.018751,0.001000,0.001000,0.001000,0.001000,0.001000
1006.480769,-0.020096,0.001000,0.001000,0.001000,0.001000,0.001000
1006.500000,-0.021424,0.001000,0.001000,0.001000,0.001000,0.001000
1006.519231,-0.022733,0.001000,0.001000,0.001000,0.001000,0.001000
1006.538462,-0.024023,0.001000,0.001000,0.001000,0.001000,0.001000
1006.557692,-0.025293,0.001000,0.001000,0.001000,0.001000,0.001000
1006.576923,-0.026541,0.001000,0.001000,0.001000,0.001000,0.001000
1006.596154,-0.027767,0.001000,0.001000,0.001000,0.001000,0.001000
1006.615385,-0.028969,0.001000,0.001000,0.001000,0.001000,0.001000
1006.634615,-0.030146,0.001000,0.001000,0.001000,0.001000,0.001000
1006.653846,-0.031298,0.001000,0.001000,0.001000,0.001000,0.001000
1006.673077,-0.032423,0.001000,0.001000,0.001000,0.001000,0.001000
1006.692308,-0.033520,0.001000,0.001000,0.001000,0.001000,0.001000
1006.711538,-0.034588,0.001000,0.001000,0.001000,0.001000,0.001000
1006.730769,-0.035628,0.001000,0.001000,0.001000,0.001000,0.001000
1006.750000,-0.036636,0.001000,0.001000,0.001000,0.001000,0.001000
1006.769231,-0.037614,0.001000,0.001000,0.001000,0.001000,0.001000
1006.788462,-0.038560,0.001000,0.001000,0.001000,0.001000,0.001000
1006.807692,-0.039472,0.001000,0.001000,0.001000,0.001000,0.001000
1006.826923,-0.040351,0.001000,0.001000,0.001000,0.001000,0.001000
1006.846154,-0.041196,0.001000,0.001000,0.001000,0.001000,0.001000
1006.865385,-0.042006,0.001000,0.001000,0.001000,0.001000,0.001000
1006.884615,-0.042779,0.001000,0.001000,0.001000,0.001000,0.001000
1006.903846,-0.043517,0.001000,0.001000,0.001000,0.001000,0.001000
1006.923077,-0.044217,0.001000,0.001000,0.001000,0.001000,0.001000
1006.942308,-0.044879,0.001000,0.001000,0.001000,0.001000,0.001000
1006.961538,-0.045504,0.001000,0.001000,0.001000,0.001000,0.001000
1006.980769,-0.046089,0.001000,0.001000,0.001000,0.001000,0.001000
1007.000000,-0.046635,0.001000,0.001000,0.001000,0.001000,0.001000
1007.019231,-0.047142,0.001000,0.001000,0.001000,0.001000,0.001000
1007.038462,-0.047608,0.001000,0.001000,0.001000,0.001000,0.001000
1007.057692,-0.048034,0.001000,0.001000,0.001000,0.001000,0.001000
1007.076923,-0.048419,0.001000,0.001000,0.001000,0.001000,0.001000
1007.096154,-0.048762,0.001000,0.001000,0.001000,0.001000,0.001000
1007.115385,-0.049064,0.001000,0.001000,0.001000,0.001000,0.001000
1007.134615,-0.049324,0.001000,0.001000,0.001000,0.001000,0.001000
1007.153846,-0.049542,0.001000,0.001000,0.001000,0.001000,0.001000
1007.173077,-0.049718,0.001000,0.001000,0.001000,0.001000,0.001000
1007.192308,-0.049852,0.001000,0.001000,0.001000,0.001000,0.001000
1007.211538,-0.049943,0.001000,0.001000,0.001000,0.001000,0.001000
1007.230769,-0.049991,0.001000,0.001000,0.001000,0.001000,0.001000
1007.250000,-0.049997,0.001000,0.001000,0.001000,0.001000,0.001000
1007.269231,-0.049960,0.001000,0.001000,0.001000,0.001000,0.001000
1007.288462,-0.049881,0.001000,0.001000,0.001000,0.001000,0.001000
1007.307692,-0.049759,0.001000,0.001000,0.001000,0.001000,0.001000
1007.326923,-0.049595,0.001000,0.001000,0.001000,0.001000,0.001000
1007.346154,-0.049389,0.001000,0.001000,0.001000,0.001000,0.001000
1007.365385,-0.049140,0.001000,0.001000,0.001000,0.001000,0.001000
1007.384615,-0.048850,0.001000,0.001000,0.001000,0.001000,0.001000
1007.403846,-0.048517,0.001000,0.001000,0.001000,0.001000,0.001000
1007.423077,-0.048144,0.001000,0.001000,0.001000,0.001000,0.001000
1007.442308,-0.047730,0.001000,0.001000,0.001000,0.001000,0.001000
1007.461538,-0.047274,0.001000,0.001000,0.001000,0.001000,0.001000
1007.480769,-0.046779,0.001000,0.001000,0.001000,0.001000,0.001000
1007.500000,-0.046244,0.001000,0.001000,0.001000,0.001000,0.001000
1007.519231,-0.045669,0.001000,0.001000,0.001000,0.001000,0.001000
1007.538462,-0.045055,0.001000,0.001000,0.001000,0.001000,0.001000
1007.557692,-0.044403,0.001000,0.001000,0.001000,0.001000,0.001000
1007.576923,-0.043713,0.001000,0.001000,0.001000,0.001000,0.001000
1007.596154,-0.042986,0.001000,0.001000,0.001000,0.001000,0.001000
1007.615385,-0.042223,0.001000,0.001000,0.001000,0.001000,0.001000
1007.634615,-0.041423,0.001000,0.001000,0.001000,0.001000,0.001000
1007.653846,-0.040588,0.001000,0.001000,0.001000,0.001000,0.001000
1007.673077,-0.039718,0.001000,0.001000,0.001000,0.001000,0.001000
1007.692308,-0.038815,0.001000,0.001000,0.001000,0.001000,0.001000
1007.711538,-0.037878,0.001000,0.001000,0.001000,0.001000,0.001000
1007.730769,-0.036909,0.001000,0.001000,0.001000,0.001000,0.001000
1007.750000,-0.035909,0.001000,0.001000,0.001000,0.001000,0.001000
1007.769231,-0.034878,0.001000,0.001000,0.001000,0.001000,0.001000
1007.788462,-0.033817,0.001000,0.001000,0.001000,0.001000,0.001000
1007.807692,-0.032728,0.001000,0.001000,0.001000,0.001000,0.001000
1007.826923,-0.031611,0.001000,0.001000,0.001000,0.001000,0.001000
1007.846154,-0.030466,0.001000,0.001000,0.001000,0.001000,0.001000
1007.865385,-0.029296,0.001000,0.001000,0.001000,0.001000,0.001000
1007.884615,-0.028101,0.001000,0.001000,0.001000,0.001000,0.001000
1007.903846,-0.026882,0.001000,0.001000,0.001000,0.001000,0.001000
1007.923077,-0.025640,0.001000,0.001000,0.001000,0.001000,0.001000
1007.942308,-0.024376,0.001000,0.001000,0.001000,0.001000,0.001000
1007.961538,-0.023091,0.001000,0.001000,0.001000,0.001000,0.001000
1007.980769,-0.021787,0.001000,0.001000,0.001000,0.001000,0.001000
1008.000000,-0.020464,0.001000,0.001000,0.001000,0.001000,0.001000
1008.019231,-0.019123,0.001000,0.001000,0.001000,0.001000,0.001000
1008.038462,-0.017767,0.001000,0.001000,0.001000,0.001000,0.001000
1008.057692,-0.016395,0.001000,0.001000,0.001000,0.001000,0.001000
1008.076923,-0.015009,0.001000,0.001000,0.001000,0.001000,0.001000
1008.096154,-0.013610,0.001000,0.001000,0.001000,0.001000,0.001000
1008.115385,-0.012200,0.001000,0.001000,0.001000,0.001000,0.001000
1008.134615,-0.010780,0.001000,0.001000,0.001000,0.001000,0.001000
1008.153846,-0.009350,0.001000,0.001000,0.001000,0.001000,0.001000
1008.173077,-0.007912,0.001000,0.001000,0.001000,0.001000,0.001000
1008.192308,-0.006468,0.001000,0.001000,0.001000,0.001000,0.001000
1008.211538,-0.005018,0.001000,0.001000,0.001000,0.001000,0.001000
1008.230769,-0.003563,0.001000,0.001000,0.001000,0.001000,0.001000
1008.250000,-0.002106,0.001000,0.001000,0.001000,0.001000,0.001000
1008.269231,-0.000647,0.001000,0.001000,0.001000,0.001000,0.001000
1008.288462,0.000813,0.001000,0.001000,0.001000,0.001000,0.001000
1008.307692,0.002272,0.001000,0.001000,0.001000,0.001000,0.001000
1008.326923,0.003729,0.001000,0.001000,0.001000,0.001000,0.001000
1008.346154,0.005182,0.001000,0.001000,0.001000,0.001000,0.001000
1008.365385,0.006632,0.001000,0.001000,0.001000,0.001000,0.001000
1008.384615,0.008076,0.001000,0.001000,0.001000,0.001000,0.001000
1008.403846,0.009513,0.001000,0.001000,0.001000,0.001000,0.001000
1008.423077,0.010941,0.001000,0.001000,0.001000,0.001000,0.001000
1008.442308,0.012361,0.001000,0.001000,0.001000,0.001000,0.001000
1008.461538,0.013770,0.001000,0.001000,0.001000,0.001000,0.001000
1008.480769,0.015167,0.001000,0.001000,0.001000,0.001000,0.001000
1008.500000,0.016551,0.001000,0.001000,0.001000,0.001000,0.001000
1008.519231,0.017921,0.001000,0.001000,0.001000,0.001000,0.001000
1008.538462,0.019276,0.001000,0.001000,0.001000,0.001000,0.001000
1008.557692,0.020615,0.001000,0.001000,0.001000,0.001000,0.001000
1008.576923,0.021936,0.001000,0.001000,0.001000,0.001000,0.001000
1008.596154,0.023238,0.001000,0.001000,0.001000,0.001000,0.001000
1008.615385,0.024520,0.001000,0.001000,0.001000,0.001000,0.001000
1008.634615,0.025782,0.001000,0.001000,0.001000,0.001000,0.001000
1008.653846,0.027021,0.001000,0.001000,0.001000,0.001000,0.001000
1008.673077,0.028238,0.001000,0.001000,0.001000,0.001000,0.001000
1008.692308,0.029430,0.001000,0.001000,0.001000,0.001000,0.001000
1008.711538,0.030597,0.001000,0.001000,0.001000,0.001000,0.001000
1008.730769,0.031739,0.001000,0.001000,0.001000,0.001000,0.001000
1008.750000,0.032853,0.001000,0.001000,0.001000,0.001000,0.001000
1008.769231,0.033939,0.001000,0.001000,0.001000,0.001000,0.001000
1008.788462,0.034996,0.001000,0.001000,0.001000,0.001000,0.001000
1008.807692,0.036024,0.001000,0.001000,0.001000,0.001000,0.001000
1008.826923,0.037021,0.001000,0.001000,0.001000,0.001000,0.001000
1008.846154,0.037986,0.001000,0.001000,0.001000,0.001000,0.001000
1008.865385,0.038919,0.001000,0.001000,0.001000,0.001000,0.001000
1008.884615,0.039818,0.001000,0.001000,0.001000,0.001000,0.001000
1008.903846,0.040684,0.001000,0.001000,0.001000,0.001000,0.001000
1008.923077,0.041515,0.001000,0.001000,0.001000,0.001000,0.001000
1008.942308,0.042311,0.001000,0.001000,0.001000,0.001000,0.001000
1008.961538,0.043071,0.001000,0.001000,0.001000,0.001000,0.001000
1008.980769,0.043794,0.001000,0.001000,0.001000,0.001000,0.001000
1009.000000,0.044479,0.001000,0.001000,0.001000,0.001000,0.001000
1009.019231,0.045127,0.001000,0.001000,0.001000,0.001000,0.001000
1009.038462,0.045736,0.001000,0.001000,0.001000,0.001000,0.001000
1009.057692,0.046306,0.001000,0.001000,0.001000,0.001000,0.001000
1009.076923,0.046837,0.001000,0.001000,0.001000,0.001000,0.001000
1009.096154,0.047328,0.001000,0.001000,0.001000,0.001000,0.001000
1009.115385,0.047779,0.001000,0.001000,0.001000,0.001000,0.001000
1009.134615,0.048188,0.001000,0.001000,0.001000,0.001000,0.001000
1009.153846,0.048557,0.001000,0.001000,0.001000,0.001000,0.001000
1009.173077,0.048885,0.001000,0.001000,0.001000,0.001000,0.001000
1009.192308,0.049170,0.001000,0.001000,0.001000,0.001000,0.001000
1009.211538,0.049414,0.001000,0.001000,0.001000,0.001000,0.001000
1009.230769,0.049616,0.001000,0.001000,0.001000,0.001000,0.001000
1009.250000,0.049775,0.001000,0.001000,0.001000,0.001000,0.001000
1009.269231,0.049892,0.001000,0.001000,0.001000,0.001000,0.001000
1009.288462,0.049967,0.001000,0.001000,0.001000,0.001000,0.001000
1009.307692,0.049999,0.001000,0.001000,0.001000,0.001000,0.001000
1009.326923,0.049988,0.001000,0.001000,0.001000,0.001000,0.001000
1009.346154,0.049935,0.001000,0.001000,0.001000,0.001000,0.001000
1009.365385,0.049839,0.001000,0.001000,0.001000,0.001000,0.001000
1009.384615,0.049700,0.001000,0.001000,0.001000,0.001000,0.001000
1009.403846,0.049520,0.001000,0.001000,0.001000,0.001000,0.001000
1009.423077,0.049297,0.001000,0.001000,0.001000,0.001000,0.001000
1009.442308,0.049032,0.001000,0.001000,0.001000,0.001000,0.001000
1009.461538,0.048725,0.001000,0.001000,0.001000,0.001000,0.001000
1009.480769,0.048377,0.001000,0.001000,0.001000,0.001000,0.001000
1009.500000,0.047988,0.001000,0.001000,0.001000,0.001000,0.001000
1009.519231,0.047557,0.001000,0.001000,0.001000,0.001000,0.001000
1009.538462,0.047086,0.001000,0.001000,0.001000,0.001000,0.001000
1009.557692,0.046575,0.001000,0.001000,0.001000,0.001000,0.001000
1009.576923,0.046025,0.001000,0.001000,0.001000,0.001000,0.001000
1009.596154,0.045435,0.001000,0.001000,0.001000,0.001000,0.001000
1009.615385,0.044806,0.001000,0.001000,0.001000,0.001000,0.001000
1009.634615,0.044139,0.001000,0.001000,0.001000,0.001000,0.001000
1009.653846,0.043435,0.001000,0.001000,0.001000,0.001000,0.001000
1009.673077,0.042693,0.001000,0.001000,0.001000,0.001000,0.001000
1009.692308,0.041916,0.001000,0.001000,0.001000,0.001000,0.001000
1009.711538,0.041102,0.001000,0.001000,0.001000,0.001000,0.001000
1009.730769,0.040253,0.001000,0.001000,0.001000,0.001000,0.001000
1009.750000,0.039370,0.001000,0.001000,0.001000,0.001000,0.001000
1009.769231,0.038454,0.001000,0.001000,0.001000,0.001000,0.001000
1009.788462,0.037505,0.001000,0.001000,0.001000,0.001000,0.001000
1009.807692,0.036524,0.001000,0.001000,0.001000,0.001000,0.001000
1009.826923,0.035511,0.001000,0.001000,0.001000,0.001000,0.001000
1009.846154,0.034469,0.001000,0.001000,0.001000,0.001000,0.001000
1009.865385,0.033397,0.001000,0.001000,0.001000,0.001000,0.001000
1009.884615,0.032296,0.001000,0.001000,0.001000,0.001000,0.001000
1009.903846,0.031168,0.001000,0.001000,0.001000,0.001000,0.001000
1009.923077,0.030014,0.001000,0.001000,0.001000,0.001000,0.001000
1009.942308,0.028834,0.001000,0.001000,0.001000,0.001000,0.001000
1009.961538,0.027629,0.001000,0.001000,0.001000,0.001000,0.001000
1009.980769,0.026401,0.001000,0.001000,0.001000,0.001000,0.001000
1010.000000,0.025150,0.001000,0.001000,0.001000,0.001000,0.001000
1010.019231,0.023878,0.001000,0.001000,0.001000,0.001000,0.001000
1010.038462,0.022586,0.001000,0.001000,0.001000,0.001000,0.001000
1010.057692,0.021274,0.001000,0.001000,0.001000,0.001000,0.001000
1010.076923,0.019944,0.001000,0.001000,0.001000,0.001000,0.001000
1010.096154,0.018597,0.001000,0.001000,0.001000,0.001000,0.001000
1010.115385,0.017234,0.001000,0.001000,0.001000,0.001000,0.001000
1010.134615,0.015857,0.001000,0.001000,0.001000,0.001000,0.001000
1010.153846,0.014466,0.001000,0.001000,0.001000,0.001000,0.001000
1010.173077,0.013063,0.001000,0.001000,0.001000,0.001000,0.001000
1010.192308,0.011649,0.001000,0.001000,0.001000,0.001000,0.001000
1010.211538,0.010224,0.001000,0.001000,0.001000,0.001000,0.001000
1010.230769,0.008791,0.001000,0.001000,0.001000,0.001000,0.001000
1010.250000,0.007351,0.001000,0.001000,0.001000,0.001000,0.001000
1010.269231,0.005904,0.001000,0.001000,0.001000,0.001000,0.001000
1010.288462,0.004452,0.001000,0.001000,0.001000,0.001000,0.001000
1010.307692,0.002997,0.001000,0.001000,0.001000,0.001000,0.001000
1010.326923,0.001538,0.001000,0.001000,0.001000,0.001000,0.001000
1010.346154,0.000079,0.001000,0.001000,0.001000,0.001000,0.001000
1010.365385,-0.001381,0.001000,0.001000,0.001000,0.001000,0.001000
1010.384615,-0.002839,0.001000,0.001000,0.001000,0.001000,0.001000
1010.403846,-0.004295,0.001000,0.001000,0.001000,0.001000,0.001000
1010.423077,-0.005747,0.001000,0.001000,0.001000,0.001000,0.001000
1010.442308,-0.007194,0.001000,0.001000,0.001000,0.001000,0.001000
1010.461538,-0.008636,0.001000,0.001000,0.001000,0.001000,0.001000
1010.480769,-0.010070,0.001000,0.001000,0.001000,0.001000,0.001000
1010.500000,-0.011495,0.001000,0.001000,0.001000,0.001000,0.001000
1010.519231,-0.012910,0.001000,0.001000,0.001000,0.001000,0.001000
1010.538462,-0.014315,0.001000,0.001000,0.001000,0.001000,0.001000
1010.557692,-0.015707,0.001000,0.001000,0.001000,0.001000,0.001000
1010.576923,-0.017086,0.001000,0.001000,0.001000,0.001000,0.001000
1010.596154,-0.018450,0.001000,0.001000,0.001000,0.001000,0.001000
1010.615385,-0.019799,0.001000,0.001000,0.001000,0.001000,0.001000
1010.634615,-0.021131,0.001000,0.001000,0.001000,0.001000,0.001000
1010.653846,-0.022445,0.001000,0.001000,0.001000,0.001000,0.001000
1010.673077,-0.023739,0.001000,0.001000,0.001000,0.001000,0.001000
1010.692308,-0.025014,0.001000,0.001000,0.001000,0.001000,0.001000
1010.711538,-0.026267,0.001000,0.001000,0.001000,0.001000,0.001000
1010.730769,-0.027497,0.001000,0.001000,0.001000,0.001000,0.001000
1010.750000,-0.028705,0.001000,0.001000,0.001000,0.001000,0.001000
1010.769231,-0.029887,0.001000,0.001000,0.001000,0.001000,0.001000
1010.788462,-0.031045,0.001000,0.001000,0.001000,0.001000,0.001000
1010.807692,-0.032176,0.001000,0.001000,0.001000,0.001000,0.001000
1010.826923,-0.033279,0.001000,0.001000,0.001000,0.001000,0.001000
1010.846154,-0.034354,0.001000,0.001000,0.001000,0.001000,0.001000
1010.865385,-0.035400,0.001000,0.001000,0.001000,0.001000,0.001000
1010.884615,-0.036416,0.001000,0.001000,0.001000,0.001000,0.001000
1010.903846,-0.037400,0.001000,0.001000,0.001000,0.001000,0.001000
1010.923077,-0.038353,0.001000,0.001000,0.001000,0.001000,0.001000
1010.942308,-0.039273,0.001000,0.001000,0.001000,0.001000,0.001000
1010.961538,-0.040159,0.001000,0.001000,0.001000,0.001000,0.001000
1010.980769,-0.041012,0.001000,0.001000,0.001000,0.001000,0.001000
1011.000000,-0.041829,0.001000,0.001000,0.001000,0.001000,0.001000
1011.019231,-0.042611,0.001000,0.001000,0.001000,0.001000,0.001000
1011.038462,-0.043356,0.001000,0.001000,0.001000,0.001000,0.001000
1011.057692,-0.044065,0.001000,0.001000,0.001000,0.001000,0.001000
1011.076923,-0.044736,0.001000,0.001000,0.001000,0.001000,0.001000
1011.096154,-0.045369,0.001000,0.001000,0.001000,0.001000,0.001000
1011.115385,-0.045963,0.001000,0.001000,0.001000,0.001000,0.001000
1011.134615,-0.046518,0.001000,0.001000,0.001000,0.001000,0.001000
1011.153846,-0.047033,0.001000,0.001000,0.001000,0.001000,0.001000
1011.173077,-0.047508,0.001000,0.001000,0.001000,0.001000,0.001000
1011.192308,-0.047943,0.001000,0.001000,0.001000,0.001000,0.001000
1011.211538,-0.048337,0.001000,0.001000,0.001000,0.001000,0.001000
1011.230769,-0.048690,0.001000,0.001000,0.001000,0.001000,0.001000
1011.250000,-0.049001,0.001000,0.001000,0.001000,0.001000,0.001000
1011.269231,-0.049270,0.001000,0.001000,0.001000,0.001000,0.001000
1011.288462,-0.049498,0.001000,0.001000,0.001000,0.001000,0.001000
1011.307692,-0.049683,0.001000,0.001000,0.001000,0.001000,0.001000
1011.326923,-0.049826,0.001000,0.001000,0.001000,0.001000,0.001000
1011.346154,-0.049926,0.001000,0.001000,0.001000,0.001000,0.001000
1011.365385,-0.049984,0.001000,0.001000,0.001000,0.001000,0.001000
1011.384615,-0.050000,0.001000,0.001000,0.001000,0.001000,0.001000
1011.403846,-0.049972,0.001000,0.001000,0.001000,0.001000,0.001000
1011.423077,-0.049902,0.001000,0.001000,0.001000,0.001000,0.001000
1011.442308,-0.049790,0.001000,0.001000,0.001000,0.001000,0.001000
1011.461538,-0.049635,0.001000,0.001000,0.001000,0.001000,0.001000
1011.480769,-0.049438,0.001000,0.001000,0.001000,0.001000,0.001000
1011.500000,-0.049199,0.001000,0.001000,0.001000,0.001000,0.001000
1011.519231,-0.048918,0.001000,0.001000,0.001000,0.001000,0.001000
1011.538462,-0.048595,0.001000,0.001000,0.001000,0.001000,0.001000
1011.557692,-0.048230,0.001000,0.001000,0.001000,0.001000,0.001000
1011.576923,-0.047825,0.001000,0.001000,0.001000,0.001000,0.001000
1011.596154,-0.047379,0.001000,0.001000,0.001000,0.001000,0.001000
1011.615385,-0.046892,0.001000,0.001000,0.001000,0.001000,0.001000
1011.634615,-0.046366,0.001000,0.001000,0.001000,0.001000,0.001000
1011.653846,-0.045800,0.001000,0.001000,0.001000,0.001000,0.001000
1011.673077,-0.045195,0.001000,0.001000,0.001000,0.001000,0.001000
1011.692308,-0.044551,0.001000,0.001000,0.001000,0.001000,0.001000
1011.711538,-0.043870,0.001000,0.001000,0.001000,0.001000,0.001000
1011.730769,-0.043151,0.001000,0.001000,0.001000,0.001000,0.001000
1011.750000,-0.042395,0.001000,0.001000,0.001000,0.001000,0.001000
1011.769231,-0.041603,0.001000,0.001000,0.001000,0.001000,0.001000
1011.788462,-0.040776,0.001000,0.001000,0.001000,0.001000,0.001000
1011.807692,-0.039914,0.001000,0.001000,0.001000,0.001000,0.001000
1011.826923,-0.039018,0.001000,0.001000,0.001000,0.001000,0.001000
1011.846154,-0.038088,0.001000,0.001000,0.001000,0.001000,0.001000
1011.865385,-0.037127,0.001000,0.001000,0.001000,0.001000,0.001000
1011.884615,-0.036133,0.001000,0.001000,0.001000,0.001000,0.001000
1011.903846,-0.035109,0.001000,0.001000,0.001000,0.001000,0.001000
1011.923077,-0.034055,0.001000,0.001000,0.001000,0.001000,0.001000
1011.942308,-0.032972,0.001000,0.001000,0.001000,0.001000,0.001000
1011.961538,-0.031861,0.001000,0.001000,0.001000,0.001000,0.001000
1011.980769,-0.030722,0.001000,0.001000,0.001000,0.001000,0.001000
1012.000000,-0.029558,0.001000,0.001000,0.001000,0.001000,0.001000
1012.019231,-0.028368,0.001000,0.001000,0.001000,0.001000,0.001000
1012.038462,-0.027154,0.001000,0.001000,0.001000,0.001000,0.001000
1012.057692,-0.025917,0.001000,0.001000,0.001000,0.001000,0.001000
1012.076923,-0.024658,0.001000,0.001000,0.001000,0.001000,0.001000
1012.096154,-0.023377,0.001000,0.001000,0.001000,0.001000,0.001000
1012.115385,-0.022077,0.001000,0.001000,0.001000,0.001000,0.001000
1012.134615,-0.020758,0.001000,0.001000,0.001000,0.001000,0.001000
1012.153846,-0.019422,0.001000,0.001000,0.001000,0.001000,0.001000
1012.173077,-0.018069,0.001000,0.001000,0.001000,0.001000,0.001000
1012.192308,-0.016700,0.001000,0.001000,0.001000,0.001000,0.001000
1012.211538,-0.015317,0.001000,0.001000,0.001000,0.001000,0.001000
1012.230769,-0.013921,0.001000,0.001000,0.001000,0.001000,0.001000
1012.250000,-0.012514,0.001000,0.001000,0.001000,0.001000,0.001000
1012.269231,-0.011095,0.001000,0.001000,0.001000,0.001000,0.001000
1012.288462,-0.009668,0.001000,0.001000,0.001000,0.001000,0.001000
1012.307692,-0.008231,0.001000,0.001000,0.001000,0.001000,0.001000
1012.326923,-0.006788,0.001000,0.001000,0.001000,0.001000,0.001000
1012.346154,-0.005339,0.001000,0.001000,0.001000,0.001000,0.001000
1012.365385,-0.003886,0.001000,0.001000,0.001000,0.001000,0.001000
1012.384615,-0.002429,0.001000,0.001000,0.001000,0.001000,0.001000
1012.403846,-0.000971,0.001000,0.001000,0.001000,0.001000,0.001000
1012.423077,0.000489,0.001000,0.001000,0.001000,0.001000,0.001000
1012.442308,0.001948,0.001000,0.001000,0.001000,0.001000,0.001000
1012.461538,0.003406,0.001000,0.001000,0.001000,0.001000,0.001000
1012.480769,0.004861,0.001000,0.001000,0.001000,0.001000,0.001000
1012.500000,0.006311,0.001000,0.001000,0.001000,0.001000,0.001000
1012.519231,0.007756,0.001000,0.001000,0.001000,0.001000,0.001000
1012.538462,0.009195,0.001000,0.001000,0.001000,0.001000,0.001000
1012.557692,0.010625,0.001000,0.001000,0.001000,0.001000,0.001000
1012.576923,0.012047,0.001000,0.001000,0.001000,0.001000,0.001000
1012.596154,0.013458,0.001000,0.001000,0.001000,0.001000,0.001000
1012.615385,0.014858,0.001000,0.001000,0.001000,0.001000,0.001000
1012.634615,0.016246,0.001000,0.001000,0.001000,0.001000,0.001000
1012.653846,0.017619,0.001000,0.001000,0.001000,0.001000,0.001000
1012.673077,0.018977,0.001000,0.001000,0.001000,0.001000,0.001000
1012.692308,0.020319,0.001000,0.001000,0.001000,0.001000,0.001000
1012.711538,0.021644,0.001000,0.001000,0.001000,0.001000,0.001000
1012.730769,0.022951,0.001000,0.001000,0.001000,0.001000,0.001000
1012.750000,0.024238,0.001000,0.001000,0.001000,0.001000,0.001000
1012.769231,0.025504,0.001000,0.001000,0.001000,0.001000,0.001000
1012.788462,0.026748,0.001000,0.001000,0.001000,0.001000,0.001000
1012.807692,0.027970,0.001000,0.001000,0.001000,0.001000,0.001000
1012.826923,0.029168,0.001000,0.001000,0.001000,0.001000,0.001000
1012.846154,0.030341,0.001000,0.001000,0.001000,0.001000,0.001000
1012.865385,0.031488,0.001000,0.001000,0.001000,0.001000,0.001000
1012.884615,0.032608,0.001000,0.001000,0.001000,0.001000,0.001000
1012.903846,0.033701,0.001000,0.001000,0.001000,0.001000,0.001000
1012.923077,0.034765,0.001000,0.001000,0.001000,0.001000,0.001000
1012.942308,0.035799,0.001000,0.001000,0.001000,0.001000,0.001000
1012.961538,0.036802,0.001000,0.001000,0.001000,0.001000,0.001000
1012.980769,0.037775,0.001000,0.001000,0.001000,0.001000,0.001000
1013.000000,0.038715,0.001000,0.001000,0.001000,0.001000,0.001000
1013.019231,0.039622,0.001000,0.001000,0.001000,0.001000,0.001000
1013.038462,0.040495,0.001000,0.001000,0.001000,0.001000,0.001000
1013.057692,0.041334,0.001000,0.001000,0.001000,0.001000,0.001000
1013.076923,0.042138,0.001000,0.001000,0.001000,0.001000,0.001000
1013.096154,0.042905,0.001000,0.001000,0.001000,0.001000,0.001000
1013.115385,0.043637,0.001000,0.001000,0.001000,0.001000,0.001000
1013.134615,0.044330,0.001000,0.001000,0.001000,0.001000,0.001000
1013.153846,0.044987,0.001000,0.001000,0.001000,0.001000,0.001000
1013.173077,0.045604,0.001000,0.001000,0.001000,0.001000,0.001000
1013.192308,0.046183,0.001000,0.001000,0.001000,0.001000,0.001000
1013.211538,0.046723,0.001000,0.001000,0.001000,0.001000,0.001000
1013.230769,0.047223,0.001000,0.001000,0.001000,0.001000,0.001000
1013.250000,0.047682,0.001000,0.001000,0.001000,0.001000,0.001000
1013.269231,0.048101,0.001000,0.001000,0.001000,0.001000,0.001000
1013.288462,0.048479,0.001000,0.001000,0.001000,0.001000,0.001000
1013.307692,0.048816,0.001000,0.001000,0.001000,0.001000,0.001000
1013.326923,0.049111,0.001000,0.001000,0.001000,0.001000,0.001000
1013.346154,0.049364,0.001000,0.001000,0.001000,0.001000,0.001000
1013.365385,0.049575,0.001000,0.001000,0.001000,0.001000,0.001000
1013.384615,0.049744,0.001000,0.001000,0.001000,0.001000,0.001000
1013.403846,0.049870,0.001000,0.001000,0.001000,0.001000,0.001000
1013.423077,0.049954,0.001000,0.001000,0.001000,0.001000,0.001000
1013.442308,0.049995,0.001000,0.001000,0.001000,0.001000,0.001000
1013.461538,0.049994,0.001000,0.001000,0.001000,0.001000,0.001000
1013.480769,0.049950,0.001000,0.001000,0.001000,0.001000,0.001000
1013.500000,0.049864,0.001000,0.001000,0.001000,0.001000,0.001000
1013.519231,0.049735,0.001000,0.001000,0.001000,0.001000,0.001000
1013.538462,0.049563,0.001000,0.001000,0.001000,0.001000,0.001000
1013.557692,0.049350,0.001000,0.001000,0.001000,0.001000,0.001000
1013.576923,0.049094,0.001000,0.001000,0.001000,0.001000,0.001000
1013.596154,0.048797,0.001000,0.001000,0.001000,0.001000,0.001000
1013.615385,0.048458,0.001000,0.001000,0.001000,0.001000,0.001000
1013.634615,0.048077,0.001000,0.001000,0.001000,0.001000,0.001000
1013.653846,0.047656,0.001000,0.001000,0.001000,0.001000,0.001000
1013.673077,0.047194,0.001000,0.001000,0.001000,0.001000,0.001000
1013.692308,0.046692,0.001000,0.001000,0.001000,0.001000,0.001000
1013.711538,0.046150,0.001000,0.001000,0.001000,0.001000,0.001000
1013.730769,0.045569,0.001000,0.001000,0.001000,0.001000,0.001000
1013.750000,0.044949,0.001000,0.001000,0.001000,0.001000,0.001000
1013.769231,0.044290,0.001000,0.001000,0.001000,0.001000,0.001000
1013.788462,0.043594,0.001000,0.001000,0.001000,0.001000,0.001000
1013.807692,0.042861,0.001000,0.001000,0.001000,0.001000,0.001000
1013.826923,0.042091,0.001000,0.001000,0.001000,0.001000,0.001000
1013.846154,0.041285,0.001000,0.001000,0.001000,0.001000,0.001000
1013.865385,0.040444,0.001000,0.001000,0.001000,0.001000,0.001000
1013.884615,0.039569,0.001000,0.001000,0.001000,0.001000,0.001000
1013.903846,0.038660,0.001000,0.001000,0.001000,0.001000,0.001000
1013.923077,0.037718,0.001000,0.001000,0.001000,0.001000,0.001000
1013.942308,0.036744,0.001000,0.001000,0.001000,0.001000,0.001000
1013.961538,0.035738,0.001000,0.001000,0.001000,0.001000,0.001000
1013.980769,0.034702,0.001000,0.001000,0.001000,0.001000,0.001000
1014.000000,0.033637,0.001000,0.001000,0.001000,0.001000,0.001000
1014.019231,0.032543,0.001000,0.001000,0.001000,0.001000,0.001000
1014.038462,0.031421,0.001000,0.001000,0.001000,0.001000,0.001000
1014.057692,0.030272,0.001000,0.001000,0.001000,0.001000,0.001000
1014.076923,0.029097,0.001000,0.001000,0.001000,0.001000,0.001000
1014.096154,0.027898,0.001000,0.001000,0.001000,0.001000,0.001000
1014.115385,0.026675,0.001000,0.001000,0.001000,0.001000,0.001000
1014.134615,0.025429,0.001000,0.001000,0.001000,0.001000,0.001000
1014.153846,0.024162,0.001000,0.001000,0.001000,0.001000,0.001000
1014.173077,0.022874,0.001000,0.001000,0.001000,0.001000,0.001000
1014.192308,0.021566,0.001000,0.001000,0.001000,0.001000,0.001000
1014.211538,0.020240,0.001000,0.001000,0.001000,0.001000,0.001000
1014.230769,0.018897,0.001000,0.001000,0.001000,0.001000,0.001000
1014.250000,0.017538,0.001000,0.001000,0.001000,0.001000,0.001000
1014.269231,0.016164,0.001000,0.001000,0.001000,0.001000,0.001000
1014.288462,0.014776,0.001000,0.001000,0.001000,0.001000,0.001000
1014.307692,0.013375,0.001000,0.001000,0.001000,0.001000,0.001000
1014.326923,0.011963,0.001000,0.001000,0.001000,0.001000,0.001000
1014.346154,0.010541,0.001000,0.001000,0.001000,0.001000,0.001000
1014.365385,0.009110,0.001000,0.001000,0.001000,0.001000,0.001000
1014.384615,0.007671,0.001000,0.001000,0.001000,0.001000,0.001000
1014.403846,0.006225,0.001000,0.001000,0.001000,0.001000,0.001000
1014.423077,0.004774,0.001000,0.001000,0.001000,0.001000,0.001000
1014.442308,0.003319,0.001000,0.001000,0.001000,0.001000,0.001000
1014.461538,0.001862,0.001000,0.001000,0.001000,0.001000,0.001000
1014.480769,0.000402,0.001000,0.001000,0.001000,0.001000,0.001000
1014.500000,-0.001057,0.001000,0.001000,0.001000,0.001000,0.001000
1014.519231,-0.002516,0.001000,0.001000,0.001000,0.001000,0.001000
1014.538462,-0.003972,0.001000,0.001000,0.001000,0.001000,0.001000
1014.557692,-0.005426,0.001000,0.001000,0.001000,0.001000,0.001000
1014.576923,-0.006874,0.001000,0.001000,0.001000,0.001000,0.001000
1014.596154,-0.008317,0.001000,0.001000,0.001000,0.001000,0.001000
1014.615385,-0.009752,0.001000,0.001000,0.001000,0.001000,0.001000
1014.634615,-0.011180,0.001000,0.001000,0.001000,0.001000,0.001000
1014.653846,-0.012598,0.001000,0.001000,0.001000,0.001000,0.001000
1014.673077,-0.014005,0.001000,0.001000,0.001000,0.001000,0.001000
1014.692308,-0.015400,0.001000,0.001000,0.001000,0.001000,0.001000
1014.711538,-0.016782,0.001000,0.001000,0.001000,0.001000,0.001000
1014.730769,-0.018149,0.001000,0.001000,0.001000,0.001000,0.001000
1014.750000,-0.019502,0.001000,0.001000,0.001000,0.001000,0.001000
1014.769231,-0.020837,0.001000,0.001000,0.001000,0.001000,0.001000
1014.788462,-0.022155,0.001000,0.001000,0.001000,0.001000,0.001000
1014.807692,-0.023454,0.001000,0.001000,0.001000,0.001000,0.001000
1014.826923,-0.024733,0.001000,0.001000,0.001000,0.001000,0.001000
1014.846154,-0.025991,0.001000,0.001000,0.001000,0.001000,0.001000
1014.865385,-0.027227,0.001000,0.001000,0.001000,0.001000,0.001000
1014.884615,-0.028439,0.001000,0.001000,0.001000,0.001000,0.001000
1014.903846,-0.029627,0.001000,0.001000,0.001000,0.001000,0.001000
1014.923077,-0.030790,0.001000,0.001000,0.001000,0.001000,0.001000
1014.942308,-0.031927,0.001000,0.001000,0.001000,0.001000,0.001000
1014.961538,-0.033037,0.001000,0.001000,0.001000,0.001000,0.001000
1014.980769,-0.034118,0.001000,0.001000,0.001000,0.001000,0.001000
1015.000000,-0.035171,0.001000,0.001000,0.001000,0.001000,0.001000
1015.019231,-0.036193,0.001000,0.001000,0.001000,0.001000,0.001000
1015.038462,-0.037185,0.001000,0.001000,0.001000,0.001000,0.001000
1015.057692,-0.038144,0.001000,0.001000,0.001000,0.001000,0.001000
1015.076923,-0.039072,0.001000,0.001000,0.001000,0.001000,0.001000
1015.096154,-0.039966,0.001000,0.001000,0.001000,0.001000,0.001000
1015.115385,-0.040826,0.001000,0.001000,0.001000,0.001000,0.001000
1015.134615,-0.041651,0.001000,0.001000,0.001000,0.001000,0.001000
1015.153846,-0.042441,0.001000,0.001000,0.001000,0.001000,0.001000
1015.173077,-0.043194,0.001000,0.001000,0.001000,0.001000,0.001000
1015.192308,-0.043911,0.001000,0.001000,0.001000,0.001000,0.001000
1015.211538,-0.044590,0.001000,0.001000,0.001000,0.001000,0.001000
1015.230769,-0.045232,0.001000,0.001000,0.001000,0.001000,0.001000
1015.250000,-0.045834,0.001000,0.001000,0.001000,0.001000,0.001000
1015.269231,-0.046398,0.001000,0.001000,0.001000,0.001000,0.001000
1015.288462,-0.046922,0.001000,0.001000,0.001000,0.001000,0.001000
1015.307692,-0.047406,0.001000,0.001000,0.001000,0.001000,0.001000
1015.326923,-0.047850,0.001000,0.001000,0.001000,0.001000,0.001000
1015.346154,-0.048253,0.001000,0.001000,0.001000,0.001000,0.001000
1015.365385,-0.048615,0.001000,0.001000,0.001000,0.001000,0.001000
1015.384615,-0.048935,0.001000,0.001000,0.001000,0.001000,0.001000
1015.403846,-0.049214,0.001000,0.001000,0.001000,0.001000,0.001000
1015.423077,-0.049451,0.001000,0.001000,0.001000,0.001000,0.001000
1015.442308,-0.049646,0.001000,0.001000,0.001000,0.001000,0.001000
1015.461538,-0.049798,0.001000,0.001000,0.001000,0.001000,0.001000
1015.480769,-0.049908,0.001000,0.001000,0.001000,0.001000,0.001000
1015.500000,-0.049975,0.001000,0.001000,0.001000,0.001000,0.001000
1015.519231,-0.050000,0.001000,0.001000,0.001000,0.001000,0.001000
1015.538462,-0.049982,0.001000,0.001000,0.001000,0.001000,0.001000
1015.557692,-0.049922,0.001000,0.001000,0.001000,0.001000,0.001000
1015.576923,-0.049819,0.001000,0.001000,0.001000,0.001000,0.001000
1015.596154,-0.049673,0.001000,0.001000,0.001000,0.001000,0.001000
1015.615385,-0.049485,0.001000,0.001000,0.001000,0.001000,0.001000
1015.634615,-0.049255,0.001000,0.001000,0.001000,0.001000,0.001000
1015.653846,-0.048983,0.001000,0.001000,0.001000,0.001000,0.001000
1015.673077,-0.048670,0.001000,0.001000,0.001000,0.001000,0.001000
1015.692308,-0.048315,0.001000,0.001000,0.001000,0.001000,0.001000
1015.711538,-0.047918,0.001000,0.001000,0.001000,0.001000,0.001000
1015.730769,-0.047481,0.001000,0.001000,0.001000,0.001000,0.001000
1015.750000,-0.047004,0.001000,0.001000,0.001000,0.001000,0.001000
1015.769231,-0.046486,0.001000,0.001000,0.001000,0.001000,0.001000
1015.788462,-0.045929,0.001000,0.001000,0.001000,0.001000,0.001000
1015.807692,-0.045332,0.001000,0.001000,0.001000,0.001000,0.001000
1015.826923,-0.044697,0.001000,0.001000,0.001000,0.001000,0.001000
1015.846154,-0.044024,0.001000,0.001000,0.001000,0.001000,0.001000
1015.865385,-0.043313,0.001000,0.001000,0.001000,0.001000,0.001000
1015.884615,-0.042566,0.001000,0.001000,0.001000,0.001000,0.001000
1015.903846,-0.041782,0.001000,0.001000,0.001000,0.001000,0.001000
1015.923077,-0.040962,0.001000,0.001000,0.001000,0.001000,0.001000
1015.942308,-0.040108,0.001000,0.001000,0.001000,0.001000,0.001000
1015.961538,-0.039219,0.001000,0.001000,0.001000,0.001000,0.001000
1015.980769,-0.038297,0.001000,0.001000,0.001000,0.001000,0.001000
1016.000000,-0.037343,0.001000,0.001000,0.001000,0.001000,0.001000
1016.019231,-0.036356,0.001000,0.001000,0.001000,0.001000,0.001000
1016.038462,-0.035339,0.001000,0.001000,0.001000,0.001000,0.001000
1016.057692,-0.034291,0.001000,0.001000,0.001000,0.001000,0.001000
1016.076923,-0.033214,0.001000,0.001000,0.001000,0.001000,0.001000
1016.096154,-0.032109,0.001000,0.001000,0.001000,0.001000,0.001000
1016.115385,-0.030977,0.001000,0.001000,0.001000,0.001000,0.001000
1016.134615,-0.029818,0.001000,0.001000,0.001000,0.001000,0.001000
1016.153846,-0.028634,0.001000,0.001000,0.001000,0.001000,0.001000
1016.173077,-0.027425,0.001000,0.001000,0.001000,0.001000,0.001000
1016.192308,-0.026193,0.001000,0.001000,0.001000,0.001000,0.001000
1016.211538,-0.024939,0.001000,0.001000,0.001000,0.001000,0.001000
1016.230769,-0.023663,0.001000,0.001000,0.001000,0.001000,0.001000
1016.250000,-0.022367,0.001000,0.001000,0.001000,0.001000,0.001000
1016.269231,-0.021052,0.001000,0.001000,0.001000,0.001000,0.001000
1016.288462,-0.019720,0.001000,0.001000,0.001000,0.001000,0.001000
1016.307692,-0.018370,0.001000,0.001000,0.001000,0.001000,0.001000
1016.326923,-0.017005,0.001000,0.001000,0.001000,0.001000,0.001000
1016.346154,-0.015625,0.001000,0.001000,0.001000,0.001000,0.001000
1016.365385,-0.014232,0.001000,0.001000,0.001000,0.001000,0.001000
1016.384615,-0.012827,0.001000,0.001000,0.001000,0.001000,0.001000
1016.403846,-0.011411,0.001000,0.001000,0.001000,0.001000,0.001000
1016.423077,-0.009985,0.001000,0.001000,0.001000,0.001000,0.001000
1016.442308,-0.008550,0.001000,0.001000,0.001000,0.001000,0.001000
1016.461538,-0.007109,0.001000,0.001000,0.001000,0.001000,0.001000
1016.480769,-0.005661,0.001000,0.001000,0.001000,0.001000,0.001000
1016.500000,-0.004209,0.001000,0.001000,0.001000,0.001000,0.001000
1016.519231,-0.002752,0.001000,0.001000,0.001000,0.001000,0.001000
1016.538462,-0.001294,0.001000,0.001000,0.001000,0.001000,0.001000
1016.557692,0.000166,0.001000,0.001000,0.001000,0.001000,0.001000
1016.576923,0.001625,0.001000,0.001000,0.001000,0.001000,0.001000
1016.596154,0.003083,0.001000,0.001000,0.001000,0.001000,0.001000
1016.615385,0.004538,0.001000,0.001000,0.001000,0.001000,0.001000
1016.634615,0.005990,0.001000,0.001000,0.001000,0.001000,0.001000
1016.653846,0.007436,0.001000,0.001000,0.001000,0.001000,0.001000
1016.673077,0.008877,0.001000,0.001000,0.001000,0.001000,0.001000
1016.692308,0.010309,0.001000,0.001000,0.001000,0.001000,0.001000
1016.711538,0.011733,0.001000,0.001000,0.001000,0.001000,0.001000
1016.730769,0.013147,0.001000,0.001000,0.001000,0.001000,0.001000
1016.750000,0.014549,0.001000,0.001000,0.001000,0.001000,0.001000
1016.769231,0.015939,0.001000,0.001000,0.001000,0.001000,0.001000
1016.788462,0.017316,0.001000,0.001000,0.001000,0.001000,0.001000
1016.807692,0.018678,0.001000,0.001000,0.001000,0.001000,0.001000
1016.826923,0.020023,0.001000,0.001000,0.001000,0.001000,0.001000
1016.846154,0.021352,0.001000,0.001000,0.001000,0.001000,0.001000
1016.865385,0.022663,0.001000,0.001000,0.001000,0.001000,0.001000
1016.884615,0.023954,0.001000,0.001000,0.001000,0.001000,0.001000
1016.903846,0.025225,0.001000,0.001000,0.001000,0.001000,0.001000
1016.923077,0.026474,0.001000,0.001000,0.001000,0.001000,0.001000
1016.942308,0.027701,0.001000,0.001000,0.001000,0.001000,0.001000
1016.961538,0.028905,0.001000,0.001000,0.001000,0.001000,0.001000
1016.980769,0.030083,0.001000,0.001000,0.001000,0.001000,0.001000
1017.000000,0.031236,0.001000,0.001000,0.001000,0.001000,0.001000
1017.019231,0.032362,0.001000,0.001000,0.001000,0.001000,0.001000
1017.038462,0.033461,0.001000,0.001000,0.001000,0.001000,0.001000
1017.057692,0.034531,0.001000,0.001000,0.001000,0.001000,0.001000
1017.076923,0.035572,0.001000,0.001000,0.001000,0.001000,0.001000
1017.096154,0.036583,0.001000,0.001000,0.001000,0.001000,0.001000
1017.115385,0.037562,0.001000,0.001000,0.001000,0.001000,0.001000
1017.134615,0.038509,0.001000,0.001000,0.001000,0.001000,0.001000
1017.153846,0.039424,0.001000,0.001000,0.001000,0.001000,0.001000
1017.173077,0.040305,0.001000,0.001000,0.001000,0.001000,0.001000
1017.192308,0.041151,0.001000,0.001000,0.001000,0.001000,0.001000
1017.211538,0.041963,0.001000,0.001000,0.001000,0.001000,0.001000
1017.230769,0.042738,0.001000,0.001000,0.001000,0.001000,0.001000
1017.250000,0.043478,0.001000,0.001000,0.001000,0.001000,0.001000
1017.269231,0.044180,0.001000,0.001000,0.001000,0.001000,0.001000
1017.288462,0.044844,0.001000,0.001000,0.001000,0.001000,0.001000
1017.307692,0.045471,0.001000,0.001000,0.001000,0.001000,0.001000
1017.326923,0.046058,0.001000,0.001000,0.001000,0.001000,0.001000
1017.346154,0.046607,0.001000,0.001000,0.001000,0.001000,0.001000
1017.365385,0.047115,0.001000,0.001000,0.001000,0.001000,0.001000
1017.384615,0.047584,0.001000,0.001000,0.001000,0.001000,0.001000
1017.403846,0.048012,0.001000,0.001000,0.001000,0.001000,0.001000
1017.423077,0.048399,0.001000,0.001000,0.001000,0.001000,0.001000
1017.442308,0.048745,0.001000,0.001000,0.001000,0.001000,0.001000
1017.461538,0.049049,0.001000,0.001000,0.001000,0.001000,0.001000
1017.480769,0.049311,0.001000,0.001000,0.001000,0.001000,0.001000
1017.500000,0.049532,0.001000,0.001000,0.001000,0.001000,0.001000
1017.519231,0.049710,0.001000,0.001000,0.001000,0.001000,0.001000
1017.538462,0.049846,0.001000,0.001000,0.001000,0.001000,0.001000
1017.557692,0.049939,0.001000,0.001000,0.001000,0.001000,0.001000
1017.576923,0.049990,0.001000,0.001000,0.001000,0.001000,0.001000
1017.596154,0.049998,0.001000,0.001000,0.001000,0.001000,0.001000
1017.615385,0.049964,0.001000,0.001000,0.001000,0.001000,0.001000
1017.634615,0.049887,0.001000,0.001000,0.001000,0.001000,0.001000
1017.653846,0.049767,0.001000,0.001000,0.001000,0.001000,0.001000
1017.673077,0.049605,0.001000,0.001000,0.001000,0.001000,0.001000
1017.692308,0.049401,0.001000,0.001000,0.001000,0.001000,0.001000
1017.711538,0.049155,0.001000,0.001000,0.001000,0.001000,0.001000
1017.730769,0.048866,0.001000,0.001000,0.001000,0.001000,0.001000
1017.750000,0.048536,0.001000,0.001000,0.001000,0.001000,0.001000
1017.769231,0.048165,0.001000,0.001000,0.001000,0.001000,0.001000
1017.788462,0.047753,0.001000,0.001000,0.001000,0.001000,0.001000
1017.807692,0.047300,0.001000,0.001000,0.001000,0.001000,0.001000
1017.826923,0.046807,0.001000,0.001000,0.001000,0.001000,0.001000
1017.846154,0.046274,0.001000,0.001000,0.001000,0.001000,0.001000
1017.865385,0.045701,0.001000,0.001000,0.001000,0.001000,0.001000
1017.884615,0.045089,0.001000,0.001000,0.001000,0.001000,0.001000
1017.903846,0.044440,0.001000,0.001000,0.001000,0.001000,0.001000
1017.923077,0.043752,0.001000,0.001000,0.001000,0.001000,0.001000
1017.942308,0.043027,0.001000,0.001000,0.001000,0.001000,0.001000
1017.961538,0.042265,0.001000,0.001000,0.001000,0.001000,0.001000
1017.980769,0.041467,0.001000,0.001000,0.001000,0.001000,0.001000
1018.000000,0.040634,0.001000,0.001000,0.001000,0.001000,0.001000
1018.019231,0.039766,0.001000,0.001000,0.001000,0.001000,0.001000
1018.038462,0.038864,0.001000,0.001000,0.001000,0.001000,0.001000
1018.057692,0.037930,0.001000,0.001000,0.001000,0.001000,0.001000
1018.076923,0.036962,0.001000,0.001000,0.001000,0.001000,0.001000
1018.096154,0.035964,0.001000,0.001000,0.001000,0.001000,0.001000
1018.115385,0.034935,0.001000,0.001000,0.001000,0.001000,0.001000
1018.134615,0.033875,0.001000,0.001000,0.001000,0.001000,0.001000
1018.153846,0.032788,0.001000,0.001000,0.001000,0.001000,0.001000
1018.173077,0.031672,0.001000,0.001000,0.001000,0.001000,0.001000
1018.192308,0.030529,0.001000,0.001000,0.001000,0.001000,0.001000
1018.211538,0.029360,0.001000,0.001000,0.001000,0.001000,0.001000
1018.230769,0.028166,0.001000,0.001000,0.001000,0.001000,0.001000
1018.250000,0.026948,0.001000,0.001000,0.001000,0.001000,0.001000
1018.269231,0.025707,0.001000,0.001000,0.001000,0.001000,0.001000
1018.288462,0.024445,0.001000,0.001000,0.001000,0.001000,0.001000
1018.307692,0.023161,0.001000,0.001000,0.001000,0.001000,0.001000
1018.326923,0.021858,0.001000,0.001000,0.001000,0.001000,0.001000
1018.346154,0.020536,0.001000,0.001000,0.001000,0.001000,0.001000
1018.365385,0.019196,0.001000,0.001000,0.001000,0.001000,0.001000
1018.384615,0.017840,0.001000,0.001000,0.001000,0.001000,0.001000
1018.403846,0.016469,0.001000,0.001000,0.001000,0.001000,0.001000
1018.423077,0.015084,0.001000,0.001000,0.001000,0.001000,0.001000
1018.442308,0.013686,0.001000,0.001000,0.001000,0.001000,0.001000
1018.461538,0.012277,0.001000,0.001000,0.001000,0.001000,0.001000
1018.480769,0.010857,0.001000,0.001000,0.001000,0.001000,0.001000
1018.500000,0.009427,0.001000,0.001000,0.001000,0.001000,0.001000
1018.519231,0.007990,0.001000,0.001000,0.001000,0.001000,0.001000
1018.538462,0.006546,0.001000,0.001000,0.001000,0.001000,0.001000
1018.557692,0.005096,0.001000,0.001000,0.001000,0.001000,0.001000
1018.576923,0.003642,0.001000,0.001000,0.001000,0.001000,0.001000
1018.596154,0.002185,0.001000,0.001000,0.001000,0.001000,0.001000
1018.615385,0.000726,0.001000,0.001000,0.001000,0.001000,0.001000
1018.634615,-0.000734,0.001000,0.001000,0.001000,0.001000,0.001000
1018.653846,-0.002193,0.001000,0.001000,0.001000,0.001000,0.001000
1018.673077,-0.003650,0.001000,0.001000,0.001000,0.001000,0.001000
1018.692308,-0.005104,0.001000,0.001000,0.001000,0.001000,0.001000
1018.711538,-0.006554,0.001000,0.001000,0.001000,0.001000,0.001000
1018.730769,-0.007998,0.001000,0.001000,0.001000,0.001000,0.001000
1018.750000,-0.009435,0.001000,0.001000,0.001000,0.001000,0.001000
1018.769231,-0.010864,0.001000,0.001000,0.001000,0.001000,0.001000
1018.788462,-0.012284,0.001000,0.001000,0.001000,0.001000,0.001000
1018.807692,-0.013694,0.001000,0.001000,0.001000,0.001000,0.001000
1018.826923,-0.015092,0.001000,0.001000,0.001000,0.001000,0.001000
1018.846154,-0.016477,0.001000,0.001000,0.001000,0.001000,0.001000
1018.865385,-0.017848,0.001000,0.001000,0.001000,0.001000,0.001000
1018.884615,-0.019203,0.001000,0.001000,0.001000,0.001000,0.001000
1018.903846,-0.020543,0.001000,0.001000,0.001000,0.001000,0.001000
1018.923077,-0.021865,0.001000,0.001000,0.001000,0.001000,0.001000
1018.942308,-0.023168,0.001000,0.001000,0.001000,0.001000,0.001000
1018.961538,-0.024451,0.001000,0.001000,0.001000,0.001000,0.001000
1018.980769,-0.025714,0.001000,0.001000,0.001000,0.001000,0.001000
1019.000000,-0.026955,0.001000,0.001000,0.001000,0.001000,0.001000
1019.019231,-0.028172,0.001000,0.001000,0.001000,0.001000,0.001000
1019.038462,-0.029366,0.001000,0.001000,0.001000,0.001000,0.001000
1019.057692,-0.030535,0.001000,0.001000,0.001000,0.001000,0.001000
1019.076923,-0.031678,0.001000,0.001000,0.001000,0.001000,0.001000
1019.096154,-0.032793,0.001000,0.001000,0.001000,0.001000,0.001000
1019.115385,-0.033881,0.001000,0.001000,0.001000,0.001000,0.001000
1019.134615,-0.034940,0.001000,0.001000,0.001000,0.001000,0.001000
1019.153846,-0.035969,0.001000,0.001000,0.001000,0.001000,0.001000
1019.173077,-0.036968,0.001000,0.001000,0.001000,0.001000,0.001000
1019.192308,-0.037935,0.001000,0.001000,0.001000,0.001000,0.001000
1019.211538,-0.038869,0.001000,0.001000,0.001000,0.001000,0.001000
1019.230769,-0.039771,0.001000,0.001000,0.001000,0.001000,0.001000
1019.250000,-0.040638,0.001000,0.001000,0.001000,0.001000,0.001000
1019.269231,-0.041471,0.001000,0.001000,0.001000,0.001000,0.001000
1019.288462,-0.042269,0.001000,0.001000,0.001000,0.001000,0.001000
1019.307692,-0.043030,0.001000,0.001000,0.001000,0.001000,0.001000
1019.326923,-0.043755,0.001000,0.001000,0.001000,0.001000,0.001000
1019.346154,-0.044443,0.001000,0.001000,0.001000,0.001000,0.001000
1019.365385,-0.045093,0.001000,0.001000,0.001000,0.001000,0.001000
1019.384615,-0.045704,0.001000,0.001000,0.001000,0.001000,0.001000
1019.403846,-0.046277,0.001000,0.001000,0.001000,0.001000,0.001000
1019.423077,-0.046809,0.001000,0.001000,0.001000,0.001000,0.001000
1019.442308,-0.047303,0.001000,0.001000,0.001000,0.001000,0.001000
1019.461538,-0.047755,0.001000,0.001000,0.001000,0.001000,0.001000
1019.480769,-0.048167,0.001000,0.001000,0.001000,0.001000,0.001000
1019.500000,-0.048538,0.001000,0.001000,0.001000,0.001000,0.001000
1019.519231,-0.048868,0.001000,0.001000,0.001000,0.001000,0.001000
1019.538462,-0.049156,0.001000,0.001000,0.001000,0.001000,0.001000
1019.557692,-0.049402,0.001000,0.001000,0.001000,0.001000,0.001000
1019.576923,-0.049606,0.001000,0.001000,0.001000,0.001000,0.001000
1019.596154,-0.049768,0.001000,0.001000,0.001000,0.001000,0.001000
1019.615385,-0.049887,0.001000,0.001000,0.001000,0.001000,0.001000
1019.634615,-0.049964,0.001000,0.001000,0.001000,0.001000,0.001000
1019.653846,-0.049998,0.001000,0.001000,0.001000,0.001000,0.001000
1019.673077,-0.049990,0.001000,0.001000,0.001000,0.001000,0.001000
1019.692308,-0.049939,0.001000,0.001000,0.001000,0.001000,0.001000
1019.711538,-0.049845,0.001000,0.001000,0.001000,0.001000,0.001000
1019.730769,-0.049709,0.001000,0.001000,0.001000,0.001000,0.001000
1019.750000,-0.049531,0.001000,0.001000,0.001000,0.001000,0.001000
1019.769231,-0.049310,0.001000,0.001000,0.001000,0.001000,0.001000
1019.788462,-0.049047,0.001000,0.001000,0.001000,0.001000,0.001000
1019.807692,-0.048743,0.001000,0.001000,0.001000,0.001000,0.001000
1019.826923,-0.048397,0.001000,0.001000,0.001000,0.001000,0.001000
1019.846154,-0.048010,0.001000,0.001000,0.001000,0.001000,0.001000
1019.865385,-0.047582,0.001000,0.001000,0.001000,0.001000,0.001000
1019.884615,-0.047113,0.001000,0.001000,0.001000,0.001000,0.001000
1019.903846,-0.046604,0.001000,0.001000,0.001000,0.001000,0.001000
1019.923077,-0.046055,0.001000,0.001000,0.001000,0.001000,0.001000
1019.942308,-0.045468,0.001000,0.001000,0.001000,0.001000,0.001000
1019.961538,-0.044841,0.001000,0.001000,0.001000,0.001000,0.001000
1019.980769,-0.044176,0.001000,0.001000,0.001000,0.001000,0.001000
1020.000000,-0.043474,0.001000,0.001000,0.001000,0.001000,0.001000
1020.019231,-0.042734,0.001000,0.001000,0.001000,0.001000,0.001000
1020.038462,-0.041958,0.001000,0.001000,0.001000,0.001000,0.001000
1020.057692,-0.041147,0.001000,0.001000,0.001000,0.001000,0.001000
1020.076923,-0.040300,0.001000,0.001000,0.001000,0.001000,0.001000
1020.096154,-0.039419,0.001000,0.001000,0.001000,0.001000,0.001000
1020.115385,-0.038504,0.001000,0.001000,0.001000,0.001000,0.001000
1020.134615,-0.037557,0.001000,0.001000,0.001000,0.001000,0.001000
1020.153846,-0.036577,0.001000,0.001000,0.001000,0.001000,0.001000
1020.173077,-0.035567,0.001000,0.001000,0.001000,0.001000,0.001000
1020.192308,-0.034526,0.001000,0.001000,0.001000,0.001000,0.001000
1020.211538,-0.033455,0.001000,0.001000,0.001000,0.001000,0.001000
1020.230769,-0.032357,0.001000,0.001000,0.001000,0.001000,0.001000
1020.250000,-0.031230,0.001000,0.001000,0.001000,0.001000,0.001000
1020.269231,-0.030077,0.001000,0.001000,0.001000,0.001000,0.001000
1020.288462,-0.028898,0.001000,0.001000,0.001000,0.001000,0.001000
1020.307692,-0.027695,0.001000,0.001000,0.001000,0.001000,0.001000
1020.326923,-0.026468,0.001000,0.001000,0.001000,0.001000,0.001000
1020.346154,-0.025218,0.001000,0.001000,0.001000,0.001000,0.001000
1020.365385,-0.023947,0.001000,0.001000,0.001000,0.001000,0.001000
1020.384615,-0.022656,0.001000,0.001000,0.001000,0.001000,0.001000
1020.403846,-0.021345,0.001000,0.001000,0.001000,0.001000,0.001000
1020.423077,-0.020016,0.001000,0.001000,0.001000,0.001000,0.001000
1020.442308,-0.018670,0.001000,0.001000,0.001000,0.001000,0.001000
1020.461538,-0.017309,0.001000,0.001000,0.001000,0.001000,0.001000
1020.480769,-0.015932,0.001000,0.001000,0.001000,0.001000,0.001000
1020.500000,-0.014542,0.001000,0.001000,0.001000,0.001000,0.001000
1020.519231,-0.013139,0.001000,0.001000,0.001000,0.001000,0.001000
1020.538462,-0.011725,0.001000,0.001000,0.001000,0.001000,0.001000
1020.557692,-0.010302,0.001000,0.001000,0.001000,0.001000,0.001000
1020.576923,-0.008869,0.001000,0.001000,0.001000,0.001000,0.001000
1020.596154,-0.007429,0.001000,0.001000,0.001000,0.001000,0.001000
1020.615385,-0.005982,0.001000,0.001000,0.001000,0.001000,0.001000
1020.634615,-0.004531,0.001000,0.001000,0.001000,0.001000,0.001000
1020.653846,-0.003075,0.001000,0.001000,0.001000,0.001000,0.001000
1020.673077,-0.001617,0.001000,0.001000,0.001000,0.001000,0.001000
1020.692308,-0.000158,0.001000,0.001000,0.001000,0.001000,0.001000
1020.711538,0.001302,0.001000,0.001000,0.001000,0.001000,0.001000
1020.730769,0.002760,0.001000,0.001000,0.001000,0.001000,0.001000
1020.750000,0.004216,0.001000,0.001000,0.001000,0.001000,0.001000
1020.769231,0.005669,0.001000,0.001000,0.001000,0.001000,0.001000
1020.788462,0.007116,0.001000,0.001000,0.001000,0.001000,0.001000
1020.807692,0.008558,0.001000,0.001000,0.001000,0.001000,0.001000
1020.826923,0.009992,0.001000,0.001000,0.001000,0.001000,0.001000
1020.846154,0.011418,0.001000,0.001000,0.001000,0.001000,0.001000
1020.865385,0.012834,0.001000,0.001000,0.001000,0.001000,0.001000
1020.884615,0.014239,0.001000,0.001000,0.001000,0.001000,0.001000
1020.903846,0.015632,0.001000,0.001000,0.001000,0.001000,0.001000
1020.923077,0.017012,0.001000,0.001000,0.001000,0.001000,0.001000
1020.942308,0.018377,0.001000,0.001000,0.001000,0.001000,0.001000
1020.961538,0.019727,0.001000,0.001000,0.001000,0.001000,0.001000
1020.980769,0.021059,0.001000,0.001000,0.001000,0.001000,0.001000
1021.000000,0.022374,0.001000,0.001000,0.001000,0.001000,0.001000
1021.019231,0.023670,0.001000,0.001000,0.001000,0.001000,0.001000
1021.038462,0.024945,0.001000,0.001000,0.001000,0.001000,0.001000
1021.057692,0.026199,0.001000,0.001000,0.001000,0.001000,0.001000
1021.076923,0.027431,0.001000,0.001000,0.001000,0.001000,0.001000
1021.096154,0.028640,0.001000,0.001000,0.001000,0.001000,0.001000
1021.115385,0.029824,0.001000,0.001000,0.001000,0.001000,0.001000
1021.134615,0.030983,0.001000,0.001000,0.001000,0.001000,0.001000
1021.153846,0.032115,0.001000,0.001000,0.001000,0.001000,0.001000
1021.173077,0.033220,0.001000,0.001000,0.001000,0.001000,0.001000
1021.192308,0.034297,0.001000,0.001000,0.001000,0.001000,0.001000
1021.211538,0.035344,0.001000,0.001000,0.001000,0.001000,0.001000
1021.230769,0.036361,0.001000,0.001000,0.001000,0.001000,0.001000
1021.250000,0.037348,0.001000,0.001000,0.001000,0.001000,0.001000
1021.269231,0.038302,0.001000,0.001000,0.001000,0.001000,0.001000
1021.288462,0.039224,0.001000,0.001000,0.001000,0.001000,0.001000
1021.307692,0.040112,0.001000,0.001000,0.001000,0.001000,0.001000
1021.326923,0.040967,0.001000,0.001000,0.001000,0.001000,0.001000
1021.346154,0.041786,0.001000,0.001000,0.001000,0.001000,0.001000
1021.365385,0.042570,0.001000,0.001000,0.001000,0.001000,0.001000
1021.384615,0.043317,0.001000,0.001000,0.001000,0.001000,0.001000
1021.403846,0.044027,0.001000,0.001000,0.001000,0.001000,0.001000
1021.423077,0.044700,0.001000,0.001000,0.001000,0.001000,0.001000
1021.442308,0.045335,0.001000,0.001000,0.001000,0.001000,0.001000
1021.461538,0.045932,0.001000,0.001000,0.001000,0.001000,0.001000
1021.480769,0.046489,0.001000,0.001000,0.001000,0.001000,0.001000
1021.500000,0.047006,0.001000,0.001000,0.001000,0.001000,0.001000
1021.519231,0.047484,0.001000,0.001000,0.001000,0.001000,0.001000
1021.538462,0.047921,0.001000,0.001000,0.001000,0.001000,0.001000
1021.557692,0.048317,0.001000,0.001000,0.001000,0.001000,0.001000
1021.576923,0.048672,0.001000,0.001000,0.001000,0.001000,0.001000
1021.596154,0.048985,0.001000,0.001000,0.001000,0.001000,0.001000
1021.615385,0.049257,0.001000,0.001000,0.001000,0.001000,0.001000
1021.634615,0.049486,0.001000,0.001000,0.001000,0.001000,0.001000
1021.653846,0.049674,0.001000,0.001000,0.001000,0.001000,0.001000
1021.673077,0.049819,0.001000,0.001000,0.001000,0.001000,0.001000
1021.692308,0.049922,0.001000,0.001000,0.001000,0.001000,0.001000
1021.711538,0.049982,0.001000,0.001000,0.001000,0.001000,0.001000
1021.730769,0.050000,0.001000,0.001000,0.001000,0.001000,0.001000
1021.750000,0.049975,0.001000,0.001000,0.001000,0.001000,0.001000
1021.769231,0.049907,0.001000,0.001000,0.001000,0.001000,0.001000
1021.788462,0.049797,0.001000,0.001000,0.001000,0.001000,0.001000
1021.807692,0.049645,0.001000,0.001000,0.001000,0.001000,0.001000
1021.826923,0.049450,0.001000,0.001000,0.001000,0.001000,0.001000
1021.846154,0.049213,0.001000,0.001000,0.001000,0.001000,0.001000
1021.865385,0.048934,0.001000,0.001000,0.001000,0.001000,0.001000
1021.884615,0.048613,0.001000,0.001000,0.001000,0.001000,0.001000
1021.903846,0.048251,0.001000,0.001000,0.001000,0.001000,0.001000
1021.923077,0.047848,0.001000,0.001000,0.001000,0.001000,0.001000
1021.942308,0.047404,0.001000,0.001000,0.001000,0.001000,0.001000
1021.961538,0.046920,0.001000,0.001000,0.001000,0.001000,0.001000
1021.980769,0.046395,0.001000,0.001000,0.001000,0.001000,0.001000
1022.000000,0.045831,0.001000,0.001000,0.001000,0.001000,0.001000
1022.019231,0.045228,0.001000,0.001000,0.001000,0.001000,0.001000
1022.038462,0.044587,0.001000,0.001000,0.001000,0.001000,0.001000
1022.057692,0.043907,0.001000,0.001000,0.001000,0.001000,0.001000
1022.076923,0.043190,0.001000,0.001000,0.001000,0.001000,0.001000
1022.096154,0.042437,0.001000,0.001000,0.001000,0.001000,0.001000
1022.115385,0.041647,0.001000,0.001000,0.001000,0.001000,0.001000
1022.134615,0.040821,0.001000,0.001000,0.001000,0.001000,0.001000
1022.153846,0.039961,0.001000,0.001000,0.001000,0.001000,0.001000
1022.173077,0.039067,0.001000,0.001000,0.001000,0.001000,0.001000
1022.192308,0.038140,0.001000,0.001000,0.001000,0.001000,0.001000
1022.211538,0.037179,0.001000,0.001000,0.001000,0.001000,0.001000
1022.230769,0.036188,0.001000,0.001000,0.001000,0.001000,0.001000
1022.250000,0.035165,0.001000,0.001000,0.001000,0.001000,0.001000
1022.269231,0.034113,0.001000,0.001000,0.001000,0.001000,0.001000
1022.288462,0.033031,0.001000,0.001000,0.001000,0.001000,0.001000
1022.307692,0.031921,0.001000,0.001000,0.001000,0.001000,0.001000
1022.326923,0.030784,0.001000,0.001000,0.001000,0.001000,0.001000
1022.346154,0.029621,0.001000,0.001000,0.001000,0.001000,0.001000
1022.365385,0.028433,0.001000,0.001000,0.001000,0.001000,0.001000
1022.384615,0.027220,0.001000,0.001000,0.001000,0.001000,0.001000
1022.403846,0.025984,0.001000,0.001000,0.001000,0.001000,0.001000
1022.423077,0.024726,0.001000,0.001000,0.001000,0.001000,0.001000
1022.442308,0.023447,0.001000,0.001000,0.001000,0.001000,0.001000
1022.461538,0.022148,0.001000,0.001000,0.001000,0.001000,0.001000
1022.480769,0.020830,0.001000,0.001000,0.001000,0.001000,0.001000
1022.500000,0.019495,0.001000,0.001000,0.001000,0.001000,0.001000
1022.519231,0.018142,0.001000,0.001000,0.001000,0.001000,0.001000
1022.538462,0.016774,0.001000,0.001000,0.001000,0.001000,0.001000
1022.557692,0.015392,0.001000,0.001000,0.001000,0.001000,0.001000
1022.576923,0.013997,0.001000,0.001000,0.001000,0.001000,0.001000
1022.596154,0.012590,0.001000,0.001000,0.001000,0.001000,0.001000
1022.615385,0.011172,0.001000,0.001000,0.001000,0.001000,0.001000
1022.634615,0.009745,0.001000,0.001000,0.001000,0.001000,0.001000
1022.653846,0.008309,0.001000,0.001000,0.001000,0.001000,0.001000
1022.673077,0.006867,0.001000,0.001000,0.001000,0.001000,0.001000
1022.692308,0.005418,0.001000,0.001000,0.001000,0.001000,0.001000
1022.711538,0.003965,0.001000,0.001000,0.001000,0.001000,0.001000
1022.730769,0.002508,0.001000,0.001000,0.001000,0.001000,0.001000
1022.750000,0.001049,0.001000,0.001000,0.001000,0.001000,0.001000
1022.769231,-0.000410,0.001000,0.001000,0.001000,0.001000,0.001000
1022.788462,-0.001869,0.001000,0.001000,0.001000,0.001000,0.001000
1022.807692,-0.003327,0.001000,0.001000,0.001000,0.001000,0.001000
1022.826923,-0.004782,0.001000,0.001000,0.001000,0.001000,0.001000
1022.846154,-0.006233,0.001000,0.001000,0.001000,0.001000,0.001000
1022.865385,-0.007678,0.001000,0.001000,0.001000,0.001000,0.001000
1022.884615,-0.009117,0.001000,0.001000,0.001000,0.001000,0.001000
1022.903846,-0.010548,0.001000,0.001000,0.001000,0.001000,0.001000
1022.923077,-0.011970,0.001000,0.001000,0.001000,0.001000,0.001000
1022.942308,-0.013382,0.001000,0.001000,0.001000,0.001000,0.001000
1022.961538,-0.014783,0.001000,0.001000,0.001000,0.001000,0.001000
1022.980769,-0.016171,0.001000,0.001000,0.001000,0.001000,0.001000
1023.000000,-0.017545,0.001000,0.001000,0.001000,0.001000,0.001000
1023.019231,-0.018904,0.001000,0.001000,0.001000,0.001000,0.001000
1023.038462,-0.020247,0.001000,0.001000,0.001000,0.001000,0.001000
1023.057692,-0.021573,0.001000,0.001000,0.001000,0.001000,0.001000
1023.076923,-0.022881,0.001000,0.001000,0.001000,0.001000,0.001000
1023.096154,-0.024169,0.001000,0.001000,0.001000,0.001000,0.001000
1023.115385,-0.025436,0.001000,0.001000,0.001000,0.001000,0.001000
1023.134615,-0.026682,0.001000,0.001000,0.001000,0.001000,0.001000
1023.153846,-0.027905,0.001000,0.001000,0.001000,0.001000,0.001000
1023.173077,-0.029104,0.001000,0.001000,0.001000,0.001000,0.001000
1023.192308,-0.030278,0.001000,0.001000,0.001000,0.001000,0.001000
1023.211538,-0.031427,0.001000,0.001000,0.001000,0.001000,0.001000
1023.230769,-0.032548,0.001000,0.001000,0.001000,0.001000,0.001000
1023.250000,-0.033642,0.001000,0.001000,0.001000,0.001000,0.001000
1023.269231,-0.034708,0.001000,0.001000,0.001000,0.001000,0.001000
1023.288462,-0.035744,0.001000,0.001000,0.001000,0.001000,0.001000
1023.307692,-0.036749,0.001000,0.001000,0.001000,0.001000,0.001000
1023.326923,-0.037723,0.001000,0.001000,0.001000,0.001000,0.001000
1023.346154,-0.038665,0.001000,0.001000,0.001000,0.001000,0.001000
1023.365385,-0.039574,0.001000,0.001000,0.001000,0.001000,0.001000
1023.384615,-0.040449,0.001000,0.001000,0.001000,0.001000,0.001000
1023.403846,-0.041290,0.001000,0.001000,0.001000,0.001000,0.001000
1023.423077,-0.042095,0.001000,0.001000,0.001000,0.001000,0.001000
1023.442308,-0.042865,0.001000,0.001000,0.001000,0.001000,0.001000
1023.461538,-0.043598,0.001000,0.001000,0.001000,0.001000,0.001000
1023.480769,-0.044294,0.001000,0.001000,0.001000,0.001000,0.001000
1023.500000,-0.044952,0.001000,0.001000,0.001000,0.001000,0.001000
1023.519231,-0.045572,0.001000,0.001000,0.001000,0.001000,0.001000
1023.538462,-0.046153,0.001000,0.001000,0.001000,0.001000,0.001000
1023.557692,-0.046695,0.001000,0.001000,0.001000,0.001000,0.001000
1023.576923,-0.047197,0.001000,0.001000,0.001000,0.001000,0.001000
1023.596154,-0.047658,0.001000,0.001000,0.001000,0.001000,0.001000
1023.615385,-0.048080,0.001000,0.001000,0.001000,0.001000,0.001000
1023.634615,-0.048460,0.001000,0.001000,0.001000,0.001000,0.001000
1023.653846,-0.048798,0.001000,0.001000,0.001000,0.001000,0.001000
1023.673077,-0.049096,0.001000,0.001000,0.001000,0.001000,0.001000
1023.692308,-0.049351,0.001000,0.001000,0.001000,0.001000,0.001000
1023.711538,-0.049564,0.001000,0.001000,0.001000,0.001000,0.001000
1023.730769,-0.049736,0.001000,0.001000,0.001000,0.001000,0.001000
1023.750000,-0.049864,0.001000,0.001000,0.001000,0.001000,0.001000
1023.769231,-0.049950,0.001000,0.001000,0.001000,0.001000,0.001000
1023.788462,-0.049994,0.001000,0.001000,0.001000,0.001000,0.001000
1023.807692,-0.049995,0.001000,0.001000,0.001000,0.001000,0.001000
1023.826923,-0.049954,0.001000,0.001000,0.001000,0.001000,0.001000
1023.846154,-0.049869,0.001000,0.001000,0.001000,0.001000,0.001000
1023.865385,-0.049743,0.001000,0.001000,0.001000,0.001000,0.001000
1023.884615,-0.049574,0.001000,0.001000,0.001000,0.001000,0.001000
1023.903846,-0.049363,0.001000,0.001000,0.001000,0.001000,0.001000
1023.923077,-0.049109,0.001000,0.001000,0.001000,0.001000,0.001000
1023.942308,-0.048814,0.001000,0.001000,0.001000,0.001000,0.001000
1023.961538,-0.048477,0.001000,0.001000,0.001000,0.001000,0.001000
1023.980769,-0.048099,0.001000,0.001000,0.001000,0.001000,0.001000
1024.000000,-0.047680,0.001000,0.001000,0.001000,0.001000,0.001000
1024.019231,-0.047220,0.001000,0.001000,0.001000,0.001000,0.001000
1024.038462,-0.046720,0.001000,0.001000,0.001000,0.001000,0.001000
1024.057692,-0.046180,0.001000,0.001000,0.001000,0.001000,0.001000
1024.076923,-0.045601,0.001000,0.001000,0.001000,0.001000,0.001000
1024.096154,-0.044983,0.001000,0.001000,0.001000,0.001000,0.001000
1024.115385,-0.044327,0.001000,0.001000,0.001000,0.001000,0.001000
1024.134615,-0.043633,0.001000,0.001000,0.001000,0.001000,0.001000
1024.153846,-0.042901,0.001000,0.001000,0.001000,0.001000,0.001000
1024.173077,-0.042134,0.001000,0.001000,0.001000,0.001000,0.001000
1024.192308,-0.041330,0.001000,0.001000,0.001000,0.001000,0.001000
1024.211538,-0.040491,0.001000,0.001000,0.001000,0.001000,0.001000
1024.230769,-0.039617,0.001000,0.001000,0.001000,0.001000,0.001000
1024.250000,-0.038710,0.001000,0.001000,0.001000,0.001000,0.001000
1024.269231,-0.037770,0.001000,0.001000,0.001000,0.001000,0.001000
1024.288462,-0.036797,0.001000,0.001000,0.001000,0.001000,0.001000
1024.307692,-0.035793,0.001000,0.001000,0.001000,0.001000,0.001000
1024.326923,-0.034759,0.001000,0.001000,0.001000,0.001000,0.001000
1024.346154,-0.033695,0.001000,0.001000,0.001000,0.001000,0.001000
1024.365385,-0.032603,0.001000,0.001000,0.001000,0.001000,0.001000
1024.384615,-0.031482,0.001000,0.001000,0.001000,0.001000,0.001000
1024.403846,-0.030335,0.001000,0.001000,0.001000,0.001000,0.001000
1024.423077,-0.029162,0.001000,0.001000,0.001000,0.001000,0.001000
1024.442308,-0.027964,0.001000,0.001000,0.001000,0.001000,0.001000
1024.461538,-0.026742,0.001000,0.001000,0.001000,0.001000,0.001000
1024.480769,-0.025497,0.001000,0.001000,0.001000,0.001000,0.001000
1024.500000,-0.024231,0.001000,0.001000,0.001000,0.001000,0.001000
1024.519231,-0.022944,0.001000,0.001000,0.001000,0.001000,0.001000
1024.538462,-0.021637,0.001000,0.001000,0.001000,0.001000,0.001000
1024.557692,-0.020312,0.001000,0.001000,0.001000,0.001000,0.001000
1024.576923,-0.018970,0.001000,0.001000,0.001000,0.001000,0.001000
1024.596154,-0.017612,0.001000,0.001000,0.001000,0.001000,0.001000
1024.615385,-0.016238,0.001000,0.001000,0.001000,0.001000,0.001000
1024.634615,-0.014851,0.001000,0.001000,0.001000,0.001000,0.001000
1024.653846,-0.013451,0.001000,0.001000,0.001000,0.001000,0.001000
1024.673077,-0.012040,0.001000,0.001000,0.001000,0.001000,0.001000
1024.692308,-0.010618,0.001000,0.001000,0.001000,0.001000,0.001000
1024.711538,-0.009187,0.001000,0.001000,0.001000,0.001000,0.001000
1024.730769,-0.007749,0.001000,0.001000,0.001000,0.001000,0.001000
1024.750000,-0.006303,0.001000,0.001000,0.001000,0.001000,0.001000
1024.769231,-0.004853,0.001000,0.001000,0.001000,0.001000,0.001000
1024.788462,-0.003398,0.001000,0.001000,0.001000,0.001000,0.001000
1024.807692,-0.001941,0.001000,0.001000,0.001000,0.001000,0.001000
1024.826923,-0.000481,0.001000,0.001000,0.001000,0.001000,0.001000
1024.846154,0.000978,0.001000,0.001000,0.001000,0.001000,0.001000
1024.865385,0.002437,0.001000,0.001000,0.001000,0.001000,0.001000
1024.884615,0.003894,0.001000,0.001000,0.001000,0.001000,0.001000
1024.903846,0.005347,0.001000,0.001000,0.001000,0.001000,0.001000
1024.923077,0.006796,0.001000,0.001000,0.001000,0.001000,0.001000
1024.942308,0.008239,0.001000,0.001000,0.001000,0.001000,0.001000
1024.961538,0.009675,0.001000,0.001000,0.001000,0.001000,0.001000
1024.980769,0.011103,0.001000,0.001000,0.001000,0.001000,0.001000
1025.000000,0.012521,0.001000,0.001000,0.001000,0.001000,0.001000
1025.019231,0.013929,0.001000,0.001000,0.001000,0.001000,0.001000
1025.038462,0.015325,0.001000,0.001000,0.001000,0.001000,0.001000
1025.057692,0.016707,0.001000,0.001000,0.001000,0.001000,0.001000
1025.076923,0.018076,0.001000,0.001000,0.001000,0.001000,0.001000
1025.096154,0.019429,0.001000,0.001000,0.001000,0.001000,0.001000
1025.115385,0.020765,0.001000,0.001000,0.001000,0.001000,0.001000
1025.134615,0.022084,0.001000,0.001000,0.001000,0.001000,0.001000
1025.153846,0.023384,0.001000,0.001000,0.001000,0.001000,0.001000
1025.173077,0.024664,0.001000,0.001000,0.001000,0.001000,0.001000
1025.192308,0.025923,0.001000,0.001000,0.001000,0.001000,0.001000
1025.211538,0.027160,0.001000,0.001000,0.001000,0.001000,0.001000
1025.230769,0.028374,0.001000,0.001000,0.001000,0.001000,0.001000
1025.250000,0.029564,0.001000,0.001000,0.001000,0.001000,0.001000
1025.269231,0.030728,0.001000,0.001000,0.001000,0.001000,0.001000
1025.288462,0.031866,0.001000,0.001000,0.001000,0.001000,0.001000
1025.307692,0.032978,0.001000,0.001000,0.001000,0.001000,0.001000
1025.326923,0.034061,0.001000,0.001000,0.001000,0.001000,0.001000
1025.346154,0.035115,0.001000,0.001000,0.001000,0.001000,0.001000
1025.365385,0.036139,0.001000,0.001000,0.001000,0.001000,0.001000
1025.384615,0.037132,0.001000,0.001000,0.001000,0.001000,0.001000
1025.403846,0.038093,0.001000,0.001000,0.001000,0.001000,0.001000
1025.423077,0.039023,0.001000,0.001000,0.001000,0.001000,0.001000
1025.442308,0.039918,0.001000,0.001000,0.001000,0.001000,0.001000
1025.461538,0.040780,0.001000,0.001000,0.001000,0.001000,0.001000
1025.480769,0.041607,0.001000,0.001000,0.001000,0.001000,0.001000
1025.500000,0.042399,0.001000,0.001000,0.001000,0.001000,0.001000
1025.519231,0.043154,0.001000,0.001000,0.001000,0.001000,0.001000
1025.538462,0.043873,0.001000,0.001000,0.001000,0.001000,0.001000
1025.557692,0.044555,0.001000,0.001000,0.001000,0.001000,0.001000
1025.576923,0.045198,0.001000,0.001000,0.001000,0.001000,0.001000
1025.596154,0.045803,0.001000,0.001000,0.001000,0.001000,0.001000
1025.615385,0.046369,0.001000,0.001000,0.001000,0.001000,0.001000
1025.634615,0.046895,0.001000,0.001000,0.001000,0.001000,0.001000
1025.653846,0.047381,0.001000,0.001000,0.001000,0.001000,0.001000
1025.673077,0.047827,0.001000,0.001000,0.001000,0.001000,0.001000
1025.692308,0.048232,0.001000,0.001000,0.001000,0.001000,0.001000
1025.711538,0.048596,0.001000,0.001000,0.001000,0.001000,0.001000
1025.730769,0.048919,0.001000,0.001000,0.001000,0.001000,0.001000
1025.750000,0.049200,0.001000,0.001000,0.001000,0.001000,0.001000
1025.769231,0.049439,0.001000,0.001000,0.001000,0.001000,0.001000
1025.788462,0.049636,0.001000,0.001000,0.001000,0.001000,0.001000
1025.807692,0.049791,0.001000,0.001000,0.001000,0.001000,0.001000
1025.826923,0.049903,0.001000,0.001000,0.001000,0.001000,0.001000
1025.846154,0.049973,0.001000,0.001000,0.001000,0.001000,0.001000
1025.865385,0.050000,0.001000,0.001000,0.001000,0.001000,0.001000
1025.884615,0.049984,0.001000,0.001000,0.001000,0.001000,0.001000
1025.903846,0.049926,0.001000,0.001000,0.001000,0.001000,0.001000
1025.923077,0.049825,0.001000,0.001000,0.001000,0.001000,0.001000
1025.942308,0.049682,0.001000,0.001000,0.001000,0.001000,0.001000
1025.961538,0.049497,0.001000,0.001000,0.001000,0.001000,0.001000
1025.980769,0.049269,0.001000,0.001000,0.001000,0.001000,0.001000
1026.000000,0.048999,0.001000,0.001000,0.001000,0.001000,0.001000
1026.019231,0.048688,0.001000,0.001000,0.001000,0.001000,0.001000
1026.038462,0.048335,0.001000,0.001000,0.001000,0.001000,0.001000
1026.057692,0.047941,0.001000,0.001000,0.001000,0.001000,0.001000
1026.076923,0.047506,0.001000,0.001000,0.001000,0.001000,0.001000
1026.096154,0.047030,0.001000,0.001000,0.001000,0.001000,0.001000
1026.115385,0.046515,0.001000,0.001000,0.001000,0.001000,0.001000
1026.134615,0.045960,0.001000,0.001000,0.001000,0.001000,0.001000
1026.153846,0.045365,0.001000,0.001000,0.001000,0.001000,0.001000
1026.173077,0.044732,0.001000,0.001000,0.001000,0.001000,0.001000
1026.192308,0.044061,0.001000,0.001000,0.001000,0.001000,0.001000
1026.211538,0.043353,0.001000,0.001000,0.001000,0.001000,0.001000
1026.230769,0.042607,0.001000,0.001000,0.001000,0.001000,0.001000
1026.250000,0.041825,0.001000,0.001000,0.001000,0.001000,0.001000
1026.269231,0.041007,0.001000,0.001000,0.001000,0.001000,0.001000
1026.288462,0.040155,0.001000,0.001000,0.001000,0.001000,0.001000
1026.307692,0.039268,0.001000,0.001000,0.001000,0.001000,0.001000
1026.326923,0.038348,0.001000,0.001000,0.001000,0.001000,0.001000
1026.346154,0.037395,0.001000,0.001000,0.001000,0.001000,0.001000
1026.365385,0.036410,0.001000,0.001000,0.001000,0.001000,0.001000
1026.384615,0.035394,0.001000,0.001000,0.001000,0.001000,0.001000
1026.403846,0.034349,0.001000,0.001000,0.001000,0.001000,0.001000
1026.423077,0.033273,0.001000,0.001000,0.001000,0.001000,0.001000
1026.442308,0.032170,0.001000,0.001000,0.001000,0.001000,0.001000
1026.461538,0.031039,0.001000,0.001000,0.001000,0.001000,0.001000
1026.480769,0.029881,0.001000,0.001000,0.001000,0.001000,0.001000
1026.500000,0.028698,0.001000,0.001000,0.001000,0.001000,0.001000
1026.519231,0.027491,0.001000,0.001000,0.001000,0.001000,0.001000
1026.538462,0.026260,0.001000,0.001000,0.001000,0.001000,0.001000
1026.557692,0.025007,0.001000,0.001000,0.001000,0.001000,0.001000
1026.576923,0.023732,0.001000,0.001000,0.001000,0.001000,0.001000
1026.596154,0.022438,0.001000,0.001000,0.001000,0.001000,0.001000
1026.615385,0.021124,0.001000,0.001000,0.001000,0.001000,0.001000
1026.634615,0.019792,0.001000,0.001000,0.001000,0.001000,0.001000
1026.653846,0.018443,0.001000,0.001000,0.001000,0.001000,0.001000
1026.673077,0.017079,0.001000,0.001000,0.001000,0.001000,0.001000
1026.692308,0.015700,0.001000,0.001000,0.001000,0.001000,0.001000
1026.711538,0.014308,0.001000,0.001000,0.001000,0.001000,0.001000
1026.730769,0.012903,0.001000,0.001000,0.001000,0.001000,0.001000
1026.750000,0.011487,0.001000,0.001000,0.001000,0.001000,0.001000
1026.769231,0.010062,0.001000,0.001000,0.001000,0.001000,0.001000
1026.788462,0.008628,0.001000,0.001000,0.001000,0.001000,0.001000
1026.807692,0.007187,0.001000,0.001000,0.001000,0.001000,0.001000
1026.826923,0.005739,0.001000,0.001000,0.001000,0.001000,0.001000
1026.846154,0.004287,0.001000,0.001000,0.001000,0.001000,0.001000
1026.865385,0.002831,0.001000,0.001000,0.001000,0.001000,0.001000
1026.884615,0.001373,0.001000,0.001000,0.001000,0.001000,0.001000
1026.903846,-0.000087,0.001000,0.001000,0.001000,0.001000,0.001000
1026.923077,-0.001546,0.001000,0.001000,0.001000,0.001000,0.001000
1026.942308,-0.003004,0.001000,0.001000,0.001000,0.001000,0.001000
1026.961538,-0.004460,0.001000,0.001000,0.001000,0.001000,0.001000
1026.980769,-0.005912,0.001000,0.001000,0.001000,0.001000,0.001000
1027.000000,-0.007358,0.001000,0.001000,0.001000,0.001000,0.001000
1027.019231,-0.008799,0.001000,0.001000,0.001000,0.001000,0.001000
1027.038462,-0.010232,0.001000,0.001000,0.001000,0.001000,0.001000
1027.057692,-0.011656,0.001000,0.001000,0.001000,0.001000,0.001000
1027.076923,-0.013070,0.001000,0.001000,0.001000,0.001000,0.001000
1027.096154,-0.014473,0.001000,0.001000,0.001000,0.001000,0.001000
1027.115385,-0.015864,0.001000,0.001000,0.001000,0.001000,0.001000
1027.134615,-0.017242,0.001000,0.001000,0.001000,0.001000,0.001000
1027.153846,-0.018604,0.001000,0.001000,0.001000,0.001000,0.001000
1027.173077,-0.019951,0.001000,0.001000,0.001000,0.001000,0.001000
1027.192308,-0.021281,0.001000,0.001000,0.001000,0.001000,0.001000
1027.211538,-0.022592,0.001000,0.001000,0.001000,0.001000,0.001000
1027.230769,-0.023885,0.001000,0.001000,0.001000,0.001000,0.001000
1027.250000,-0.025157,0.001000,0.001000,0.001000,0.001000,0.001000
1027.269231,-0.026407,0.001000,0.001000,0.001000,0.001000,0.001000
1027.288462,-0.027636,0.001000,0.001000,0.001000,0.001000,0.001000
1027.307692,-0.028840,0.001000,0.001000,0.001000,0.001000,0.001000
1027.326923,-0.030020,0.001000,0.001000,0.001000,0.001000,0.001000
1027.346154,-0.031174,0.001000,0.001000,0.001000,0.001000,0.001000
1027.365385,-0.032302,0.001000,0.001000,0.001000,0.001000,0.001000
1027.384615,-0.033402,0.001000,0.001000,0.001000,0.001000,0.001000
1027.403846,-0.034474,0.001000,0.001000,0.001000,0.001000,0.001000
1027.423077,-0.035517,0.001000,0.001000,0.001000,0.001000,0.001000
1027.442308,-0.036529,0.001000,0.001000,0.001000,0.001000,0.001000
1027.461538,-0.037510,0.001000,0.001000,0.001000,0.001000,0.001000
1027.480769,-0.038459,0.001000,0.001000,0.001000,0.001000,0.001000
1027.500000,-0.039375,0.001000,0.001000,0.001000,0.001000,0.001000
1027.519231,-0.040258,0.001000,0.001000,0.001000,0.001000,0.001000
1027.538462,-0.041106,0.001000,0.001000,0.001000,0.001000,0.001000
1027.557692,-0.041920,0.001000,0.001000,0.001000,0.001000,0.001000
1027.576923,-0.042697,0.001000,0.001000,0.001000,0.001000,0.001000
1027.596154,-0.043439,0.001000,0.001000,0.001000,0.001000,0.001000
1027.615385,-0.044143,0.001000,0.001000,0.001000,0.001000,0.001000
1027.634615,-0.044809,0.001000,0.001000,0.001000,0.001000,0.001000
1027.653846,-0.045438,0.001000,0.001000,0.001000,0.001000,0.001000
1027.673077,-0.046028,0.001000,0.001000,0.001000,0.001000,0.001000
1027.692308,-0.046578,0.001000,0.001000,0.001000,0.001000,0.001000
1027.711538,-0.047089,0.001000,0.001000,0.001000,0.001000,0.001000
1027.730769,-0.047560,0.001000,0.001000,0.001000,0.001000,0.001000
1027.750000,-0.047990,0.001000,0.001000,0.001000,0.001000,0.001000
1027.769231,-0.048379,0.001000,0.001000,0.001000,0.001000,0.001000
1027.788462,-0.048727,0.001000,0.001000,0.001000,0.001000,0.001000
1027.807692,-0.049033,0.001000,0.001000,0.001000,0.001000,0.001000
1027.826923,-0.049298,0.001000,0.001000,0.001000,0.001000,0.001000
1027.846154,-0.049521,0.001000,0.001000,0.001000,0.001000,0.001000
1027.865385,-0.049701,0.001000,0.001000,0.001000,0.001000,0.001000
1027.884615,-0.049839,0.001000,0.001000,0.001000,0.001000,0.001000
1027.903846,-0.049935,0.001000,0.001000,0.001000,0.001000,0.001000
1027.923077,-0.049988,0.001000,0.001000,0.001000,0.001000,0.001000
1027.942308,-0.049999,0.001000,0.001000,0.001000,0.001000,0.001000
1027.961538,-0.049967,0.001000,0.001000,0.001000,0.001000,0.001000
1027.980769,-0.049892,0.001000,0.001000,0.001000,0.001000,0.001000
1028.000000,-0.049775,0.001000,0.001000,0.001000,0.001000,0.001000
1028.019231,-0.049615,0.001000,0.001000,0.001000,0.001000,0.001000
1028.038462,-0.049413,0.001000,0.001000,0.001000,0.001000,0.001000
1028.057692,-0.049169,0.001000,0.001000,0.001000,0.001000,0.001000
1028.076923,-0.048883,0.001000,0.001000,0.001000,0.001000,0.001000
1028.096154,-0.048555,0.001000,0.001000,0.001000,0.001000,0.001000
1028.115385,-0.048186,0.001000,0.001000,0.001000,0.001000,0.001000
1028.134615,-0.047776,0.001000,0.001000,0.001000,0.001000,0.001000
1028.153846,-0.047326,0.001000,0.001000,0.001000,0.001000,0.001000
1028.173077,-0.046834,0.001000,0.001000,0.001000,0.001000,0.001000
1028.192308,-0.046303,0.001000,0.001000,0.001000,0.001000,0.001000
1028.211538,-0.045733,0.001000,0.001000,0.001000,0.001000,0.001000
1028.230769,-0.045124,0.001000,0.001000,0.001000,0.001000,0.001000
1028.250000,-0.044476,0.001000,0.001000,0.001000,0.001000,0.001000
1028.269231,-0.043790,0.001000,0.001000,0.001000,0.001000,0.001000
1028.288462,-0.043067,0.001000,0.001000,0.001000,0.001000,0.001000
1028.307692,-0.042307,0.001000,0.001000,0.001000,0.001000,0.001000
1028.326923,-0.041511,0.001000,0.001000,0.001000,0.001000,0.001000
1028.346154,-0.040680,0.001000,0.001000,0.001000,0.001000,0.001000
1028.365385,-0.039814,0.001000,0.001000,0.001000,0.001000,0.001000
1028.384615,-0.038914,0.001000,0.001000,0.001000,0.001000,0.001000
1028.403846,-0.037981,0.001000,0.001000,0.001000,0.001000,0.001000
1028.423077,-0.037016,0.001000,0.001000,0.001000,0.001000,0.001000
1028.442308,-0.036019,0.001000,0.001000,0.001000,0.001000,0.001000
1028.461538,-0.034991,0.001000,0.001000,0.001000,0.001000,0.001000
1028.480769,-0.033933,0.001000,0.001000,0.001000,0.001000,0.001000
1028.500000,-0.032847,0.001000,0.001000,0.001000,0.001000,0.001000
1028.519231,-0.031733,0.001000,0.001000,0.001000,0.001000,0.001000
1028.538462,-0.030591,0.001000,0.001000,0.001000,0.001000,0.001000
1028.557692,-0.029424,0.001000,0.001000,0.001000,0.001000,0.001000
1028.576923,-0.028231,0.001000,0.001000,0.001000,0.001000,0.001000
1028.596154,-0.027015,0.001000,0.001000,0.001000,0.001000,0.001000
1028.615385,-0.025775,0.001000,0.001000,0.001000,0.001000,0.001000
1028.634615,-0.024513,0.001000,0.001000,0.001000,0.001000,0.001000
1028.653846,-0.023231,0.001000,0.001000,0.001000,0.001000,0.001000
1028.673077,-0.021929,0.001000,0.001000,0.001000,0.001000,0.001000
1028.692308,-0.020608,0.001000,0.001000,0.001000,0.001000,0.001000
1028.711538,-0.019269,0.001000,0.001000,0.001000,0.001000,0.001000
1028.730769,-0.017914,0.001000,0.001000,0.001000,0.001000,0.001000
1028.750000,-0.016544,0.001000,0.001000,0.001000,0.001000,0.001000
1028.769231,-0.015160,0.001000,0.001000,0.001000,0.001000,0.001000
1028.788462,-0.013762,0.001000,0.001000,0.001000,0.001000,0.001000
1028.807692,-0.012353,0.001000,0.001000,0.001000,0.001000,0.001000
1028.826923,-0.010934,0.001000,0.001000,0.001000,0.001000,0.001000
1028.846154,-0.009505,0.001000,0.001000,0.001000,0.001000,0.001000
1028.865385,-0.008068,0.001000,0.001000,0.001000,0.001000,0.001000
1028.884615,-0.006624,0.001000,0.001000,0.001000,0.001000,0.001000
1028.903846,-0.005175,0.001000,0.001000,0.001000,0.001000,0.001000
1028.923077,-0.003721,0.001000,0.001000,0.001000,0.001000,0.001000
1028.942308,-0.002264,0.001000,0.001000,0.001000,0.001000,0.001000
1028.961538,-0.000805,0.001000,0.001000,0.001000,0.001000,0.001000
1028.980769,0.000655,0.001000,0.001000,0.001000,0.001000,0.001000
1029.000000,0.002114,0.001000,0.001000,0.001000,0.001000,0.001000
1029.019231,0.003571,0.001000,0.001000,0.001000,0.001000,0.001000
1029.038462,0.005025,0.001000,0.001000,0.001000,0.001000,0.001000
1029.057692,0.006475,0.001000,0.001000,0.001000,0.001000,0.001000
1029.076923,0.007920,0.001000,0.001000,0.001000,0.001000,0.001000
1029.096154,0.009357,0.001000,0.001000,0.001000,0.001000,0.001000
1029.115385,0.010787,0.001000,0.001000,0.001000,0.001000,0.001000
1029.134615,0.012208,0.001000,0.001000,0.001000,0.001000,0.001000
1029.153846,0.013618,0.001000,0.001000,0.001000,0.001000,0.001000
1029.173077,0.015016,0.001000,0.001000,0.001000,0.001000,0.001000
1029.192308,0.016402,0.001000,0.001000,0.001000,0.001000,0.001000
1029.211538,0.017774,0.001000,0.001000,0.001000,0.001000,0.001000
1029.230769,0.019130,0.001000,0.001000,0.001000,0.001000,0.001000
1029.250000,0.020471,0.001000,0.001000,0.001000,0.001000,0.001000
1029.269231,0.021794,0.001000,0.001000,0.001000,0.001000,0.001000
1029.288462,0.023098,0.001000,0.001000,0.001000,0.001000,0.001000
1029.307692,0.024382,0.001000,0.001000,0.001000,0.001000,0.001000
1029.326923,0.025646,0.001000,0.001000,0.001000,0.001000,0.001000
1029.346154,0.026888,0.001000,0.001000,0.001000,0.001000,0.001000
1029.365385,0.028107,0.001000,0.001000,0.001000,0.001000,0.001000
1029.384615,0.029302,0.001000,0.001000,0.001000,0.001000,0.001000
1029.403846,0.030472,0.001000,0.001000,0.001000,0.001000,0.001000
1029.423077,0.031616,0.001000,0.001000,0.001000,0.001000,0.001000
1029.442308,0.032734,0.001000,0.001000,0.001000,0.001000,0.001000
1029.461538,0.033823,0.001000,0.001000,0.001000,0.001000,0.001000
1029.480769,0.034883,0.001000,0.001000,0.001000,0.001000,0.001000
1029.500000,0.035914,0.001000,0.001000,0.001000,0.001000,0.001000
1029.519231,0.036914,0.001000,0.001000,0.001000,0.001000,0.001000
1029.538462,0.037883,0.001000,0.001000,0.001000,0.001000,0.001000
1029.557692,0.038819,0.001000,0.001000,0.001000,0.001000,0.001000
1029.576923,0.039723,0.001000,0.001000,0.001000,0.001000,0.001000
1029.596154,0.040592,0.001000,0.001000,0.001000,0.001000,0.001000
1029.615385,0.041427,0.001000,0.001000,0.001000,0.001000,0.001000
1029.634615,0.042227,0.001000,0.001000,0.001000,0.001000,0.001000
1029.653846,0.042990,0.001000,0.001000,0.001000,0.001000,0.001000
1029.673077,0.043717,0.001000,0.001000,0.001000,0.001000,0.001000
1029.692308,0.044407,0.001000,0.001000,0.001000,0.001000,0.001000
1029.711538,0.045059,0.001000,0.001000,0.001000,0.001000,0.001000
1029.730769,0.045672,0.001000,0.001000,0.001000,0.001000,0.001000
1029.750000,0.046247,0.001000,0.001000,0.001000,0.001000,0.001000
1029.769231,0.046782,0.001000,0.001000,0.001000,0.001000,0.001000
1029.788462,0.047277,0.001000,0.001000,0.001000,0.001000,0.001000
1029.807692,0.047732,0.001000,0.001000,0.001000,0.001000,0.001000
1029.826923,0.048146,0.001000,0.001000,0.001000,0.001000,0.001000
1029.846154,0.048519,0.001000,0.001000,0.001000,0.001000,0.001000
1029.865385,0.048851,0.001000,0.001000,0.001000,0.001000,0.001000
1029.884615,0.049141,0.001000,0.001000,0.001000,0.001000,0.001000
1029.903846,0.049390,0.001000,0.001000,0.001000,0.001000,0.001000
1029.923077,0.049596,0.001000,0.001000,0.001000,0.001000,0.001000
1029.942308,0.049760,0.001000,0.001000,0.001000,0.001000,0.001000
1029.961538,0.049882,0.001000,0.001000,0.001000,0.001000,0.001000
1029.980769,0.049961,0.001000,0.001000,0.001000,0.001000,0.001000
1030.000000,0.000000,0.001000,0.001000,0.001000,0.001000,0.001000
1030.019231,0.001379,0.001000,0.001000,0.001000,0.001000,0.001000
1030.038462,0.002756,0.001000,0.001000,0.001000,0.001000,0.001000
1030.057692,0.004131,0.001000,0.001000,0.001000,0.001000,0.001000
1030.076923,0.005504,0.001000,0.001000,0.001000,0.001000,0.001000
1030.096154,0.006872,0.001000,0.001000,0.001000,0.001000,0.001000
1030.115385,0.008235,0.001000,0.001000,0.001000,0.001000,0.001000
1030.134615,0.009591,0.001000,0.001000,0.001000,0.001000,0.001000
1030.153846,0.010940,0.001000,0.001000,0.001000,0.001000,0.001000
1030.173077,0.012281,0.001000,0.001000,0.001000,0.001000,0.001000
1030.192308,0.013613,0.001000,0.001000,0.001000,0.001000,0.001000
1030.211538,0.014934,0.001000,0.001000,0.001000,0.001000,0.001000
1030.230769,0.016244,0.001000,0.001000,0.001000,0.001000,0.001000
1030.250000,0.017542,0.001000,0.001000,0.001000,0.001000,0.001000
1030.269231,0.018826,0.001000,0.001000,0.001000,0.001000,0.001000
1030.288462,0.020096,0.001000,0.001000,0.001000,0.001000,0.001000
1030.307692,0.021351,0.001000,0.001000,0.001000,0.001000,0.001000
1030.326923,0.022589,0.001000,0.001000,0.001000,0.001000,0.001000
1030.346154,0.023810,0.001000,0.001000,0.001000,0.001000,0.001000
1030.365385,0.025013,0.001000,0.001000,0.001000,0.001000,0.001000
1030.384615,0.026197,0.001000,0.001000,0.001000,0.001000,0.001000
1030.403846,0.027362,0.001000,0.001000,0.001000,0.001000,0.001000
1030.423077,0.028505,0.001000,0.001000,0.001000,0.001000,0.001000
1030.442308,0.029627,0.001000,0.001000,0.001000,0.001000,0.001000
1030.461538,0.030726,0.001000,0.001000,0.001000,0.001000,0.001000
1030.480769,0.031802,0.001000,0.001000,0.001000,0.001000,0.001000
1030.500000,0.032854,0.001000,0.001000,0.001000,0.001000,0.001000
1030.519231,0.033880,0.001000,0.001000,0.001000,0.001000,0.001000
1030.538462,0.034881,0.001000,0.001000,0.001000,0.001000,0.001000
1030.557692,0.035856,0.001000,0.001000,0.001000,0.001000,0.001000
1030.576923,0.036803,0.001000,0.001000,0.001000,0.001000,0.001000
1030.596154,0.037722,0.001000,0.001000,0.001000,0.001000,0.001000
1030.615385,0.038612,0.001000,0.001000,0.001000,0.001000,0.001000
1030.634615,0.039473,0.001000,0.001000,0.001000,0.001000,0.001000
1030.653846,0.040305,0.001000,0.001000,0.001000,0.001000,0.001000
1030.673077,0.041105,0.001000,0.001000,0.001000,0.001000,0.001000
1030.692308,0.041874,0.001000,0.001000,0.001000,0.001000,0.001000
1030.711538,0.042612,0.001000,0.001000,0.001000,0.001000,0.001000
1030.730769,0.043317,0.001000,0.001000,0.001000,0.001000,0.001000
1030.750000,0.043989,0.001000,0.001000,0.001000,0.001000,0.001000
1030.769231,0.044627,0.001000,0.001000,0.001000,0.001000,0.001000
1030.788462,0.045232,0.001000,0.001000,0.001000,0.001000,0.001000
1030.807692,0.045802,0.001000,0.001000,0.001000,0.001000,0.001000
1030.826923,0.046338,0.001000,0.001000,0.001000,0.001000,0.001000
1030.846154,0.046838,0.001000,0.001000,0.001000,0.001000,0.001000
1030.865385,0.047303,0.001000,0.001000,0.001000,0.001000,0.001000
1030.884615,0.047731,0.001000,0.001000,0.001000,0.001000,0.001000
1030.903846,0.048124,0.001000,0.001000,0.001000,0.001000,0.001000
1030.923077,0.048480,0.001000,0.001000,0.001000,0.001000,0.001000
1030.942308,0.048798,0.001000,0.001000,0.001000,0.001000,0.001000
1030.961538,0.049080,0.001000,0.001000,0.001000,0.001000,0.001000
1030.980769,0.049325,0.001000,0.001000,0.001000,0.001000,0.001000
1031.000000,0.049532,0.001000,0.001000,0.001000,0.001000,0.001000
1031.019231,0.049701,0.001000,0.001000,0.001000,0.001000,0.001000
1031.038462,0.049833,0.001000,0.001000,0.001000,0.001000,0.001000
1031.057692,0.049927,0.001000,0.001000,0.001000,0.001000,0.001000
1031.076923,0.049982,0.001000,0.001000,0.001000,0.001000,0.001000
1031.096154,0.050000,0.001000,0.001000,0.001000,0.001000,0.001000
1031.115385,0.049980,0.001000,0.001000,0.001000,0.001000,0.001000
1031.134615,0.049921,0.001000,0.001000,0.001000,0.001000,0.001000
1031.153846,0.049825,0.001000,0.001000,0.001000,0.001000,0.001000
1031.173077,0.049691,0.001000,0.001000,0.001000,0.001000,0.001000
1031.192308,0.049519,0.001000,0.001000,0.001000,0.001000,0.001000
1031.211538,0.049310,0.001000,0.001000,0.001000,0.001000,0.001000
1031.230769,0.049063,0.001000,0.001000,0.001000,0.001000,0.001000
1031.250000,0.048778,0.001000,0.001000,0.001000,0.001000,0.001000
1031.269231,0.048457,0.001000,0.001000,0.001000,0.001000,0.001000
1031.288462,0.048099,0.001000,0.001000,0.001000,0.001000,0.001000
1031.307692,0.047704,0.001000,0.001000,0.001000,0.001000,0.001000
1031.326923,0.047273,0.001000,0.001000,0.001000,0.001000,0.001000
1031.346154,0.046806,0.001000,0.001000,0.001000,0.001000,0.001000
1031.365385,0.046303,0.001000,0.001000,0.001000,0.001000,0.001000
1031.384615,0.045765,0.001000,0.001000,0.001000,0.001000,0.001000
1031.403846,0.045193,0.001000,0.001000,0.001000,0.001000,0.001000
1031.423077,0.044586,0.001000,0.001000,0.001000,0.001000,0.001000
1031.442308,0.043945,0.001000,0.001000,0.001000,0.001000,0.001000
1031.461538,0.043270,0.001000,0.001000,0.001000,0.001000,0.001000
1031.480769,0.042563,0.001000,0.001000,0.001000,0.001000,0.001000
1031.500000,0.041824,0.001000,0.001000,0.001000,0.001000,0.001000
1031.519231,0.041052,0.001000,0.001000,0.001000,0.001000,0.001000
1031.538462,0.040250,0.001000,0.001000,0.001000,0.001000,0.001000
1031.557692,0.039417,0.001000,0.001000,0.001000,0.001000,0.001000
1031.576923,0.038554,0.001000,0.001000,0.001000,0.001000,0.001000
1031.596154,0.037661,0.001000,0.001000,0.001000,0.001000,0.001000
1031.615385,0.036740,0.001000,0.001000,0.001000,0.001000,0.001000
1031.634615,0.035791,0.001000,0.001000,0.001000,0.001000,0.001000
1031.653846,0.034815,0.001000,0.001000,0.001000,0.001000,0.001000
1031.673077,0.033812,0.001000,0.001000,0.001000,0.001000,0.001000
1031.692308,0.032784,0.001000,0.001000,0.001000,0.001000,0.001000
1031.711538,0.031730,0.001000,0.001000,0.001000,0.001000,0.001000
1031.730769,0.030653,0.001000,0.001000,0.001000,0.001000,0.001000
1031.750000,0.029552,0.001000,0.001000,0.001000,0.001000,0.001000
1031.769231,0.028429,0.001000,0.001000,0.001000,0.001000,0.001000
1031.788462,0.027284,0.001000,0.001000,0.001000,0.001000,0.001000
1031.807692,0.026119,0.001000,0.001000,0.001000,0.001000,0.001000
1031.826923,0.024933,0.001000,0.001000,0.001000,0.001000,0.001000
1031.846154,0.023729,0.001000,0.001000,0.001000,0.001000,0.001000
1031.865385,0.022506,0.001000,0.001000,0.001000,0.001000,0.001000
1031.884615,0.021267,0.001000,0.001000,0.001000,0.001000,0.001000
1031.903846,0.020011,0.001000,0.001000,0.001000,0.001000,0.001000
1031.923077,0.018740,0.001000,0.001000,0.001000,0.001000,0.001000
1031.942308,0.017455,0.001000,0.001000,0.001000,0.001000,0.001000
1031.961538,0.016157,0.001000,0.001000,0.001000,0.001000,0.001000
1031.980769,0.014846,0.001000,0.001000,0.001000,0.001000,0.001000
1032.000000,0.013524,0.001000,0.001000,0.001000,0.001000,0.001000
1032.019231,0.012192,0.001000,0.001000,0.001000,0.001000,0.001000
1032.038462,0.010850,0.001000,0.001000,0.001000,0.001000,0.001000
1032.057692,0.009500,0.001000,0.001000,0.001000,0.001000,0.001000
1032.076923,0.008143,0.001000,0.001000,0.001000,0.001000,0.001000
1032.096154,0.006780,0.001000,0.001000,0.001000,0.001000,0.001000
1032.115385,0.005412,0.001000,0.001000,0.001000,0.001000,0.001000
1032.134615,0.004039,0.001000,0.001000,0.001000,0.001000,0.001000
1032.153846,0.002664,0.001000,0.001000,0.001000,0.001000,0.001000
1032.173077,0.001286,0.001000,0.001000,0.001000,0.001000,0.001000
1032.192308,-0.000092,0.001000,0.001000,0.001000,0.001000,0.001000
1032.211538,-0.001471,0.001000,0.001000,0.001000,0.001000,0.001000
1032.230769,-0.002848,0.001000,0.001000,0.001000,0.001000,0.001000
1032.250000,-0.004224,0.001000,0.001000,0.001000,0.001000,0.001000
1032.269231,-0.005596,0.001000,0.001000,0.001000,0.001000,0.001000
1032.288462,-0.006963,0.001000,0.001000,0.001000,0.001000,0.001000
1032.307692,-0.008326,0.001000,0.001000,0.001000,0.001000,0.001000
1032.326923,-0.009682,0.001000,0.001000,0.001000,0.001000,0.001000
1032.346154,-0.011031,0.001000,0.001000,0.001000,0.001000,0.001000
1032.365385,-0.012371,0.001000,0.001000,0.001000,0.001000,0.001000
1032.384615,-0.013702,0.001000,0.001000,0.001000,0.001000,0.001000
1032.403846,-0.015023,0.001000,0.001000,0.001000,0.001000,0.001000
1032.423077,-0.016332,0.001000,0.001000,0.001000,0.001000,0.001000
1032.442308,-0.017628,0.001000,0.001000,0.001000,0.001000,0.001000
1032.461538,-0.018912,0.001000,0.001000,0.001000,0.001000,0.001000
1032.480769,-0.020181,0.001000,0.001000,0.001000,0.001000,0.001000
1032.500000,-0.021434,0.001000,0.001000,0.001000,0.001000,0.001000
1032.519231,-0.022671,0.001000,0.001000,0.001000,0.001000,0.001000
1032.538462,-0.023892,0.001000,0.001000,0.001000,0.001000,0.001000
1032.557692,-0.025093,0.001000,0.001000,0.001000,0.001000,0.001000
1032.576923,-0.026276,0.001000,0.001000,0.001000,0.001000,0.001000
1032.596154,-0.027439,0.001000,0.001000,0.001000,0.001000,0.001000
1032.615385,-0.028581,0.001000,0.001000,0.001000,0.001000,0.001000
1032.634615,-0.029701,0.001000,0.001000,0.001000,0.001000,0.001000
1032.653846,-0.030799,0.001000,0.001000,0.001000,0.001000,0.001000
1032.673077,-0.031873,0.001000,0.001000,0.001000,0.001000,0.001000
1032.692308,-0.032923,0.001000,0.001000,0.001000,0.001000,0.001000
1032.711538,-0.033948,0.001000,0.001000,0.001000,0.001000,0.001000
1032.730769,-0.034947,0.001000,0.001000,0.001000,0.001000,0.001000
1032.750000,-0.035920,0.001000,0.001000,0.001000,0.001000,0.001000
1032.769231,-0.036865,0.001000,0.001000,0.001000,0.001000,0.001000
1032.788462,-0.037782,0.001000,0.001000,0.001000,0.001000,0.001000
1032.807692,-0.038671,0.001000,0.001000,0.001000,0.001000,0.001000
1032.826923,-0.039530,0.001000,0.001000,0.001000,0.001000,0.001000
1032.846154,-0.040359,0.001000,0.001000,0.001000,0.001000,0.001000
1032.865385,-0.041158,0.001000,0.001000,0.001000,0.001000,0.001000
1032.884615,-0.041925,0.001000,0.001000,0.001000,0.001000,0.001000
1032.903846,-0.042660,0.001000,0.001000,0.001000,0.001000,0.001000
1032.923077,-0.043363,0.001000,0.001000,0.001000,0.001000,0.001000
1032.942308,-0.044033,0.001000,0.001000,0.001000,0.001000,0.001000
1032.961538,-0.044669,0.001000,0.001000,0.001000,0.001000,0.001000
1032.980769,-0.045271,0.001000,0.001000,0.001000,0.001000,0.001000
1033.000000,-0.045839,0.001000,0.001000,0.001000,0.001000,0.001000
1033.019231,-0.046372,0.001000,0.001000,0.001000,0.001000,0.001000
1033.038462,-0.046870,0.001000,0.001000,0.001000,0.001000,0.001000
1033.057692,-0.047333,0.001000,0.001000,0.001000,0.001000,0.001000
1033.076923,-0.047759,0.001000,0.001000,0.001000,0.001000,0.001000
1033.096154,-0.048149,0.001000,0.001000,0.001000,0.001000,0.001000
1033.115385,-0.048502,0.001000,0.001000,0.001000,0.001000,0.001000
1033.134615,-0.048819,0.001000,0.001000,0.001000,0.001000,0.001000
1033.153846,-0.049098,0.001000,0.001000,0.001000,0.001000,0.001000
1033.173077,-0.049340,0.001000,0.001000,0.001000,0.001000,0.001000
1033.192308,-0.049544,0.001000,0.001000,0.001000,0.001000,0.001000
1033.211538,-0.049711,0.001000,0.001000,0.001000,0.001000,0.001000
1033.230769,-0.049840,0.001000,0.001000,0.001000,0.001000,0.001000
1033.250000,-0.049931,0.001000,0.001000,0.001000,0.001000,0.001000
1033.269231,-0.049985,0.001000,0.001000,0.001000,0.001000,0.001000
1033.288462,-0.050000,0.001000,0.001000,0.001000,0.001000,0.001000
1033.307692,-0.049977,0.001000,0.001000,0.001000,0.001000,0.001000
1033.326923,-0.049916,0.001000,0.001000,0.001000,0.001000,0.001000
1033.346154,-0.049817,0.001000,0.001000,0.001000,0.001000,0.001000
1033.365385,-0.049681,0.001000,0.001000,0.001000,0.001000,0.001000
1033.384615,-0.049506,0.001000,0.001000,0.001000,0.001000,0.001000
1033.403846,-0.049294,0.001000,0.001000,0.001000,0.001000,0.001000
1033.423077,-0.049045,0.001000,0.001000,0.001000,0.001000,0.001000
1033.442308,-0.048758,0.001000,0.001000,0.001000,0.001000,0.001000
1033.461538,-0.048434,0.001000,0.001000,0.001000,0.001000,0.001000
1033.480769,-0.048073,0.001000,0.001000,0.001000,0.001000,0.001000
1033.500000,-0.047676,0.001000,0.001000,0.001000,0.001000,0.001000
1033.519231,-0.047242,0.001000,0.001000,0.001000,0.001000,0.001000
1033.538462,-0.046773,0.001000,0.001000,0.001000,0.001000,0.001000
1033.557692,-0.046268,0.001000,0.001000,0.001000,0.001000,0.001000
1033.576923,-0.045728,0.001000,0.001000,0.001000,0.001000,0.001000
1033.596154,-0.045153,0.001000,0.001000,0.001000,0.001000,0.001000
1033.615385,-0.044544,0.001000,0.001000,0.001000,0.001000,0.001000
1033.634615,-0.043900,0.001000,0.001000,0.001000,0.001000,0.001000
1033.653846,-0.043224,0.001000,0.001000,0.001000,0.001000,0.001000
1033.673077,-0.042515,0.001000,0.001000,0.001000,0.001000,0.001000
1033.692308,-0.041773,0.001000,0.001000,0.001000,0.001000,0.001000
1033.711538,-0.040999,0.001000,0.001000,0.001000,0.001000,0.001000
1033.730769,-0.040195,0.001000,0.001000,0.001000,0.001000,0.001000
1033.750000,-0.039360,0.001000,0.001000,0.001000,0.001000,0.001000
1033.769231,-0.038495,0.001000,0.001000,0.001000,0.001000,0.001000
1033.788462,-0.037600,0.001000,0.001000,0.001000,0.001000,0.001000
1033.807692,-0.036677,0.001000,0.001000,0.001000,0.001000,0.001000
1033.826923,-0.035726,0.001000,0.001000,0.001000,0.001000,0.001000
1033.846154,-0.034748,0.001000,0.001000,0.001000,0.001000,0.001000
1033.865385,-0.033744,0.001000,0.001000,0.001000,0.001000,0.001000
1033.884615,-0.032714,0.001000,0.001000,0.001000,0.001000,0.001000
1033.903846,-0.031659,0.001000,0.001000,0.001000,0.001000,0.001000
1033.923077,-0.030580,0.001000,0.001000,0.001000,0.001000,0.001000
1033.942308,-0.029478,0.001000,0.001000,0.001000,0.001000,0.001000
1033.961538,-0.028353,0.001000,0.001000,0.001000,0.001000,0.001000
1033.980769,-0.027207,0.001000,0.001000,0.001000,0.001000,0.001000
1034.000000,-0.026040,0.001000,0.001000,0.001000,0.001000,0.001000
1034.019231,-0.024853,0.001000,0.001000,0.001000,0.001000,0.001000
1034.038462,-0.023647,0.001000,0.001000,0.001000,0.001000,0.001000
1034.057692,-0.022424,0.001000,0.001000,0.001000,0.001000,0.001000
1034.076923,-0.021183,0.001000,0.001000,0.001000,0.001000,0.001000
1034.096154,-0.019926,0.001000,0.001000,0.001000,0.001000,0.001000
1034.115385,-0.018654,0.001000,0.001000,0.001000,0.001000,0.001000
1034.134615,-0.017368,0.001000,0.001000,0.001000,0.001000,0.001000
1034.153846,-0.016069,0.001000,0.001000,0.001000,0.001000,0.001000
1034.173077,-0.014758,0.001000,0.001000,0.001000,0.001000,0.001000
1034.192308,-0.013435,0.001000,0.001000,0.001000,0.001000,0.001000
1034.211538,-0.012102,0.001000,0.001000,0.001000,0.001000,0.001000
1034.230769,-0.010760,0.001000,0.001000,0.001000,0.001000,0.001000
1034.250000,-0.009409,0.001000,0.001000,0.001000,0.001000,0.001000
1034.269231,-0.008052,0.001000,0.001000,0.001000,0.001000,0.001000
1034.288462,-0.006688,0.001000,0.001000,0.001000,0.001000,0.001000
1034.307692,-0.005320,0.001000,0.001000,0.001000,0.001000,0.001000
1034.326923,-0.003947,0.001000,0.001000,0.001000,0.001000,0.001000
1034.346154,-0.002571,0.001000,0.001000,0.001000,0.001000,0.001000
1034.365385,-0.001194,0.001000,0.001000,0.001000,0.001000,0.001000
1034.384615,0.000185,0.001000,0.001000,0.001000,0.001000,0.001000
1034.403846,0.001563,0.001000,0.001000,0.001000,0.001000,0.001000
1034.423077,0.002941,0.001000,0.001000,0.001000,0.001000,0.001000
1034.442308,0.004316,0.001000,0.001000,0.001000,0.001000,0.001000
1034.461538,0.005687,0.001000,0.001000,0.001000,0.001000,0.001000
1034.480769,0.007055,0.001000,0.001000,0.001000,0.001000,0.001000
1034.500000,0.008417,0.001000,0.001000,0.001000,0.001000,0.001000
1034.519231,0.009773,0.001000,0.001000,0.001000,0.001000,0.001000
1034.538462,0.011121,0.001000,0.001000,0.001000,0.001000,0.001000
1034.557692,0.012461,0.001000,0.001000,0.001000,0.001000,0.001000
1034.576923,0.013791,0.001000,0.001000,0.001000,0.001000,0.001000
1034.596154,0.015111,0.001000,0.001000,0.001000,0.001000,0.001000
1034.615385,0.016419,0.001000,0.001000,0.001000,0.001000,0.001000
1034.634615,0.017715,0.001000,0.001000,0.001000,0.001000,0.001000
1034.653846,0.018997,0.001000,0.001000,0.001000,0.001000,0.001000
1034.673077,0.020265,0.001000,0.001000,0.001000,0.001000,0.001000
