timestamp,ax,ay,az,gx,gy,gz
1000.000000,0.000000,0.001000,0.001000,0.001000,0.001000,0.001000
1000.019231,0.001181,0.001000,0.001000,0.001000,0.001000,0.001000
1000.038462,0.002362,0.001000,0.001000,0.001000,0.001000,0.001000
1000.057692,0.003542,0.001000,0.001000,0.001000,0.001000,0.001000
1000.076923,0.004719,0.001000,0.001000,0.001000,0.001000,0.001000
1000.096154,0.005894,0.001000,0.001000,0.001000,0.001000,0.001000
1000.115385,0.007065,0.001000,0.001000,0.001000,0.001000,0.001000
1000.134615,0.008233,0.001000,0.001000,0.001000,0.001000,0.001000
1000.153846,0.009396,0.001000,0.001000,0.001000,0.001000,0.001000
1000.173077,0.010554,0.001000,0.001000,0.001000,0.001000,0.001000
1000.192308,0.011705,0.001000,0.001000,0.001000,0.001000,0.001000
1000.211538,0.012851,0.001000,0.001000,0.001000,0.001000,0.001000
1000.230769,0.013989,0.001000,0.001000,0.001000,0.001000,0.001000
1000.250000,0.015119,0.001000,0.001000,0.001000,0.001000,0.001000
1000.269231,0.016241,0.001000,0.001000,0.001000,0.001000,0.001000
1000.288462,0.017354,0.001000,0.001000,0.001000,0.001000,0.001000
1000.307692,0.018457,0.001000,0.001000,0.001000,0.001000,0.001000
1000.326923,0.019550,0.001000,0.001000,0.001000,0.001000,0.001000
1000.346154,0.020632,0.001000,0.001000,0.001000,0.001000,0.001000
1000.365385,0.021702,0.001000,0.001000,0.001000,0.001000,0.001000
1000.384615,0.022760,0.001000,0.001000,0.001000,0.001000,0.001000
1000.403846,0.023806,0.001000,0.001000,0.001000,0.001000,0.001000
1000.423077,0.024838,0.001000,0.001000,0.001000,0.001000,0.001000
1000.442308,0.025856,0.001000,0.001000,0.001000,0.001000,0.001000
1000.461538,0.026860,0.001000,0.001000,0.001000,0.001000,0.001000
1000.480769,0.027849,0.001000,0.001000,0.001000,0.001000,0.001000
1000.500000,0.028823,0.001000,0.001000,0.001000,0.001000,0.001000
1000.519231,0.029780,0.001000,0.001000,0.001000,0.001000,0.001000
1000.538462,0.030721,0.001000,0.001000,0.001000,0.001000,0.001000
1000.557692,0.031644,0.001000,0.001000,0.001000,0.001000,0.001000
1000.576923,0.032550,0.001000,0.001000,0.001000,0.001000,0.001000
1000.596154,0.033438,0.001000,0.001000,0.001000,0.001000,0.001000
1000.615385,0.034307,0.001000,0.001000,0.001000,0.001000,0.001000
1000.634615,0.035157,0.001000,0.001000,0.001000,0.001000,0.001000
1000.653846,0.035987,0.001000,0.001000,0.001000,0.001000,0.001000
1000.673077,0.036797,0.001000,0.001000,0.001000,0.001000,0.001000
1000.692308,0.037587,0.001000,0.001000,0.001000,0.001000,0.001000
1000.711538,0.038355,0.001000,0.001000,0.001000,0.001000,0.001000
1000.730769,0.039102,0.001000,0.001000,0.001000,0.001000,0.001000
1000.750000,0.039828,0.001000,0.001000,0.001000,0.001000,0.001000
1000.769231,0.040531,0.001000,0.001000,0.001000,0.001000,0.001000
1000.788462,0.041211,0.001000,0.001000,0.001000,0.001000,0.001000
1000.807692,0.041869,0.001000,0.001000,0.001000,0.001000,0.001000
1000.826923,0.042503,0.001000,0.001000,0.001000,0.001000,0.001000
1000.846154,0.043113,0.001000,0.001000,0.001000,0.001000,0.001000
1000.865385,0.043700,0.001000,0.001000,0.001000,0.001000,0.001000
1000.884615,0.044262,0.001000,0.001000,0.001000,0.001000,0.001000
1000.903846,0.044799,0.001000,0.001000,0.001000,0.001000,0.001000
1000.923077,0.045311,0.001000,0.001000,0.001000,0.001000,0.001000
1000.942308,0.045798,0.001000,0.001000,0.001000,0.001000,0.001000
1000.961538,0.046259,0.001000,0.001000,0.001000,0.001000,0.001000
1000.980769,0.046694,0.001000,0.001000,0.001000,0.001000,0.001000
1001.000000,0.047104,0.001000,0.001000,0.001000,0.001000,0.001000
1001.019231,0.047487,0.001000,0.001000,0.001000,0.001000,0.001000
1001.038462,0.047843,0.001000,0.001000,0.001000,0.001000,0.001000
1001.057692,0.048173,0.001000,0.001000,0.001000,0.001000,0.001000
1001.076923,0.048476,0.001000,0.001000,0.001000,0.001000,0.001000
1001.096154,0.048752,0.001000,0.001000,0.001000,0.001000,0.001000
1001.115385,0.049001,0.001000,0.001000,0.001000,0.001000,0.001000
1001.134615,0.049222,0.001000,0.001000,0.001000,0.001000,0.001000
1001.153846,0.049416,0.001000,0.001000,0.001000,0.001000,0.001000
1001.173077,0.049582,0.001000,0.001000,0.001000,0.001000,0.001000
1001.192308,0.049721,0.001000,0.001000,0.001000,0.001000,0.001000
1001.211538,0.049832,0.001000,0.001000,0.001000,0.001000,0.001000
1001.230769,0.049915,0.001000,0.001000,0.001000,0.001000,0.001000
1001.250000,0.049970,0.001000,0.001000,0.001000,0.001000,0.001000
1001.269231,0.049997,0.001000,0.001000,0.001000,0.001000,0.001000
1001.288462,0.049996,0.001000,0.001000,0.001000,0.001000,0.001000
1001.307692,0.049968,0.001000,0.001000,0.001000,0.001000,0.001000
1001.326923,0.049911,0.001000,0.001000,0.001000,0.001000,0.001000
1001.346154,0.049827,0.001000,0.001000,0.001000,0.001000,0.001000
1001.365385,0.049714,0.001000,0.001000,0.001000,0.001000,0.001000
1001.384615,0.049574,0.001000,0.001000,0.001000,0.001000,0.001000
1001.403846,0.049407,0.001000,0.001000,0.001000,0.001000,0.001000
1001.423077,0.049211,0.001000,0.001000,0.001000,0.001000,0.001000
1001.442308,0.048989,0.001000,0.001000,0.001000,0.001000,0.001000
1001.461538,0.048739,0.001000,0.001000,0.001000,0.001000,0.001000
1001.480769,0.048461,0.001000,0.001000,0.001000,0.001000,0.001000
1001.500000,0.048157,0.001000,0.001000,0.001000,0.001000,0.001000
1001.519231,0.047826,0.001000,0.001000,0.001000,0.001000,0.001000
1001.538462,0.047468,0.001000,0.001000,0.001000,0.001000,0.001000
1001.557692,0.047083,0.001000,0.001000,0.001000,0.001000,0.001000
1001.576923,0.046673,0.001000,0.001000,0.001000,0.001000,0.001000
1001.596154,0.046236,0.001000,0.001000,0.001000,0.001000,0.001000
1001.615385,0.045773,0.001000,0.001000,0.001000,0.001000,0.001000
1001.634615,0.045285,0.001000,0.001000,0.001000,0.001000,0.001000
1001.653846,0.044772,0.001000,0.001000,0.001000,0.001000,0.001000
1001.673077,0.044233,0.001000,0.001000,0.001000,0.001000,0.001000
1001.692308,0.043670,0.001000,0.001000,0.001000,0.001000,0.001000
1001.711538,0.043082,0.001000,0.001000,0.001000,0.001000,0.001000
1001.730769,0.042471,0.001000,0.001000,0.001000,0.001000,0.001000
1001.750000,0.041835,0.001000,0.001000,0.001000,0.001000,0.001000
1001.769231,0.041177,0.001000,0.001000,0.001000,0.001000,0.001000
1001.788462,0.040495,0.001000,0.001000,0.001000,0.001000,0.001000
1001.807692,0.039791,0.001000,0.001000,0.001000,0.001000,0.001000
1001.826923,0.039064,0.001000,0.001000,0.001000,0.001000,0.001000
1001.846154,0.038316,0.001000,0.001000,0.001000,0.001000,0.001000
1001.865385,0.037546,0.001000,0.001000,0.001000,0.001000,0.001000
1001.884615,0.036756,0.001000,0.001000,0.001000,0.001000,0.001000
1001.903846,0.035945,0.001000,0.001000,0.001000,0.001000,0.001000
1001.923077,0.035113,0.001000,0.001000,0.001000,0.001000,0.001000
1001.942308,0.034262,0.001000,0.001000,0.001000,0.001000,0.001000
1001.961538,0.033392,0.001000,0.001000,0.001000,0.001000,0.001000
1001.980769,0.032504,0.001000,0.001000,0.001000,0.001000,0.001000
1002.000000,0.031597,0.001000,0.001000,0.001000,0.001000,0.001000
1002.019231,0.030673,0.001000,0.001000,0.001000,0.001000,0.001000
1002.038462,0.029731,0.001000,0.001000,0.001000,0.001000,0.001000
1002.057692,0.028773,0.001000,0.001000,0.001000,0.001000,0.001000
1002.076923,0.027799,0.001000,0.001000,0.001000,0.001000,0.001000
1002.096154,0.026809,0.001000,0.001000,0.001000,0.001000,0.001000
1002.115385,0.025804,0.001000,0.001000,0.001000,0.001000,0.001000
1002.134615,0.024785,0.001000,0.001000,0.001000,0.001000,0.001000
1002.153846,0.023752,0.001000,0.001000,0.001000,0.001000,0.001000
1002.173077,0.022706,0.001000,0.001000,0.001000,0.001000,0.001000
1002.192308,0.021647,0.001000,0.001000,0.001000,0.001000,0.001000
1002.211538,0.020576,0.001000,0.001000,0.001000,0.001000,0.001000
1002.230769,0.019494,0.001000,0.001000,0.001000,0.001000,0.001000
1002.250000,0.018400,0.001000,0.001000,0.001000,0.001000,0.001000
1002.269231,0.017297,0.001000,0.001000,0.001000,0.001000,0.001000
1002.288462,0.016183,0.001000,0.001000,0.001000,0.001000,0.001000
1002.307692,0.015061,0.001000,0.001000,0.001000,0.001000,0.001000
1002.326923,0.013930,0.001000,0.001000,0.001000,0.001000,0.001000
1002.346154,0.012792,0.001000,0.001000,0.001000,0.001000,0.001000
1002.365385,0.011646,0.001000,0.001000,0.001000,0.001000,0.001000
1002.384615,0.010494,0.001000,0.001000,0.001000,0.001000,0.001000
1002.403846,0.009336,0.001000,0.001000,0.001000,0.001000,0.001000
1002.423077,0.008173,0.001000,0.001000,0.001000,0.001000,0.001000
1002.442308,0.007005,0.001000,0.001000,0.001000,0.001000,0.001000
1002.461538,0.005833,0.001000,0.001000,0.001000,0.001000,0.001000
1002.480769,0.004658,0.001000,0.001000,0.001000,0.001000,0.001000
1002.500000,0.003481,0.001000,0.001000,0.001000,0.001000,0.001000
1002.519231,0.002301,0.001000,0.001000,0.001000,0.001000,0.001000
1002.538462,0.001120,0.001000,0.001000,0.001000,0.001000,0.001000
1002.557692,-0.000061,0.001000,0.001000,0.001000,0.001000,0.001000
1002.576923,-0.001242,0.001000,0.001000,0.001000,0.001000,0.001000
1002.596154,-0.002423,0.001000,0.001000,0.001000,0.001000,0.001000
1002.615385,-0.003602,0.001000,0.001000,0.001000,0.001000,0.001000
1002.634615,-0.004780,0.001000,0.001000,0.001000,0.001000,0.001000
1002.653846,-0.005954,0.001000,0.001000,0.001000,0.001000,0.001000
1002.673077,-0.007126,0.001000,0.001000,0.001000,0.001000,0.001000
1002.692308,-0.008293,0.001000,0.001000,0.001000,0.001000,0.001000
1002.711538,-0.009456,0.001000,0.001000,0.001000,0.001000,0.001000
1002.730769,-0.010613,0.001000,0.001000,0.001000,0.001000,0.001000
1002.750000,-0.011765,0.001000,0.001000,0.001000,0.001000,0.001000
1002.769231,-0.012910,0.001000,0.001000,0.001000,0.001000,0.001000
1002.788462,-0.014047,0.001000,0.001000,0.001000,0.001000,0.001000
1002.807692,-0.015177,0.001000,0.001000,0.001000,0.001000,0.001000
1002.826923,-0.016299,0.001000,0.001000,0.001000,0.001000,0.001000
1002.846154,-0.017411,0.001000,0.001000,0.001000,0.001000,0.001000
1002.865385,-0.018514,0.001000,0.001000,0.001000,0.001000,0.001000
1002.884615,-0.019606,0.001000,0.001000,0.001000,0.001000,0.001000
1002.903846,-0.020687,0.001000,0.001000,0.001000,0.001000,0.001000
1002.923077,-0.021757,0.001000,0.001000,0.001000,0.001000,0.001000
1002.942308,-0.022815,0.001000,0.001000,0.001000,0.001000,0.001000
1002.961538,-0.023860,0.001000,0.001000,0.001000,0.001000,0.001000
1002.980769,-0.024891,0.001000,0.001000,0.001000,0.001000,0.001000
1003.000000,-0.025909,0.001000,0.001000,0.001000,0.001000,0.001000
1003.019231,-0.026912,0.001000,0.001000,0.001000,0.001000,0.001000
1003.038462,-0.027900,0.001000,0.001000,0.001000,0.001000,0.001000
1003.057692,-0.028873,0.001000,0.001000,0.001000,0.001000,0.001000
1003.076923,-0.029829,0.001000,0.001000,0.001000,0.001000,0.001000
1003.096154,-0.030769,0.001000,0.001000,0.001000,0.001000,0.001000
1003.115385,-0.031692,0.001000,0.001000,0.001000,0.001000,0.001000
1003.134615,-0.032596,0.001000,0.001000,0.001000,0.001000,0.001000
1003.153846,-0.033483,0.001000,0.001000,0.001000,0.001000,0.001000
1003.173077,-0.034351,0.001000,0.001000,0.001000,0.001000,0.001000
1003.192308,-0.035200,0.001000,0.001000,0.001000,0.001000,0.001000
1003.211538,-0.036029,0.001000,0.001000,0.001000,0.001000,0.001000
1003.230769,-0.036838,0.001000,0.001000,0.001000,0.001000,0.001000
1003.250000,-0.037627,0.001000,0.001000,0.001000,0.001000,0.001000
1003.269231,-0.038394,0.001000,0.001000,0.001000,0.001000,0.001000
1003.288462,-0.039140,0.001000,0.001000,0.001000,0.001000,0.001000
1003.307692,-0.039865,0.001000,0.001000,0.001000,0.001000,0.001000
1003.326923,-0.040567,0.001000,0.001000,0.001000,0.001000,0.001000
1003.346154,-0.041246,0.001000,0.001000,0.001000,0.001000,0.001000
1003.365385,-0.041902,0.001000,0.001000,0.001000,0.001000,0.001000
1003.384615,-0.042535,0.001000,0.001000,0.001000,0.001000,0.001000
1003.403846,-0.043144,0.001000,0.001000,0.001000,0.001000,0.001000
1003.423077,-0.043729,0.001000,0.001000,0.001000,0.001000,0.001000
1003.442308,-0.044290,0.001000,0.001000,0.001000,0.001000,0.001000
1003.461538,-0.044826,0.001000,0.001000,0.001000,0.001000,0.001000
1003.480769,-0.045337,0.001000,0.001000,0.001000,0.001000,0.001000
1003.500000,-0.045822,0.001000,0.001000,0.001000,0.001000,0.001000
1003.519231,-0.046282,0.001000,0.001000,0.001000,0.001000,0.001000
1003.538462,-0.046716,0.001000,0.001000,0.001000,0.001000,0.001000
1003.557692,-0.047124,0.001000,0.001000,0.001000,0.001000,0.001000
1003.576923,-0.047506,0.001000,0.001000,0.001000,0.001000,0.001000
1003.596154,-0.047861,0.001000,0.001000,0.001000,0.001000,0.001000
1003.615385,-0.048190,0.001000,0.001000,0.001000,0.001000,0.001000
1003.634615,-0.048491,0.001000,0.001000,0.001000,0.001000,0.001000
1003.653846,-0.048766,0.001000,0.001000,0.001000,0.001000,0.001000
1003.673077,-0.049013,0.001000,0.001000,0.001000,0.001000,0.001000
1003.692308,-0.049233,0.001000,0.001000,0.001000,0.001000,0.001000
1003.711538,-0.049425,0.001000,0.001000,0.001000,0.001000,0.001000
1003.730769,-0.049590,0.001000,0.001000,0.001000,0.001000,0.001000
1003.750000,-0.049727,0.001000,0.001000,0.001000,0.001000,0.001000
1003.769231,-0.049837,0.001000,0.001000,0.001000,0.001000,0.001000
1003.788462,-0.049918,0.001000,0.001000,0.001000,0.001000,0.001000
1003.807692,-0.049972,0.001000,0.001000,0.001000,0.001000,0.001000
1003.826923,-0.049998,0.001000,0.001000,0.001000,0.001000,0.001000
1003.846154,-0.049995,0.001000,0.001000,0.001000,0.001000,0.001000
1003.865385,-0.049965,0.001000,0.001000,0.001000,0.001000,0.001000
1003.884615,-0.049907,0.001000,0.001000,0.001000,0.001000,0.001000
1003.903846,-0.049821,0.001000,0.001000,0.001000,0.001000,0.001000
1003.923077,-0.049708,0.001000,0.001000,0.001000,0.001000,0.001000
1003.942308,-0.049566,0.001000,0.001000,0.001000,0.001000,0.001000
1003.961538,-0.049397,0.001000,0.001000,0.001000,0.001000,0.001000
1003.980769,-0.049201,0.001000,0.001000,0.001000,0.001000,0.001000
1004.000000,-0.048976,0.001000,0.001000,0.001000,0.001000,0.001000
1004.019231,-0.048725,0.001000,0.001000,0.001000,0.001000,0.001000
1004.038462,-0.048446,0.001000,0.001000,0.001000,0.001000,0.001000
1004.057692,-0.048141,0.001000,0.001000,0.001000,0.001000,0.001000
1004.076923,-0.047808,0.001000,0.001000,0.001000,0.001000,0.001000
1004.096154,-0.047449,0.001000,0.001000,0.001000,0.001000,0.001000
1004.115385,-0.047063,0.001000,0.001000,0.001000,0.001000,0.001000
1004.134615,-0.046651,0.001000,0.001000,0.001000,0.001000,0.001000
1004.153846,-0.046213,0.001000,0.001000,0.001000,0.001000,0.001000
1004.173077,-0.045749,0.001000,0.001000,0.001000,0.001000,0.001000
1004.192308,-0.045259,0.001000,0.001000,0.001000,0.001000,0.001000
1004.211538,-0.044744,0.001000,0.001000,0.001000,0.001000,0.001000
1004.230769,-0.044205,0.001000,0.001000,0.001000,0.001000,0.001000
1004.250000,-0.043640,0.001000,0.001000,0.001000,0.001000,0.001000
1004.269231,-0.043051,0.001000,0.001000,0.001000,0.001000,0.001000
1004.288462,-0.042439,0.001000,0.001000,0.001000,0.001000,0.001000
1004.307692,-0.041802,0.001000,0.001000,0.001000,0.001000,0.001000
1004.326923,-0.041142,0.001000,0.001000,0.001000,0.001000,0.001000
1004.346154,-0.040459,0.001000,0.001000,0.001000,0.001000,0.001000
1004.365385,-0.039754,0.001000,0.001000,0.001000,0.001000,0.001000
1004.384615,-0.039026,0.001000,0.001000,0.001000,0.001000,0.001000
1004.403846,-0.038277,0.001000,0.001000,0.001000,0.001000,0.001000
1004.423077,-0.037506,0.001000,0.001000,0.001000,0.001000,0.001000
1004.442308,-0.036714,0.001000,0.001000,0.001000,0.001000,0.001000
1004.461538,-0.035902,0.001000,0.001000,0.001000,0.001000,0.001000
1004.480769,-0.035070,0.001000,0.001000,0.001000,0.001000,0.001000
1004.500000,-0.034218,0.001000,0.001000,0.001000,0.001000,0.001000
1004.519231,-0.033347,0.001000,0.001000,0.001000,0.001000,0.001000
1004.538462,-0.032457,0.001000,0.001000,0.001000,0.001000,0.001000
1004.557692,-0.031550,0.001000,0.001000,0.001000,0.001000,0.001000
1004.576923,-0.030624,0.001000,0.001000,0.001000,0.001000,0.001000
1004.596154,-0.029682,0.001000,0.001000,0.001000,0.001000,0.001000
1004.615385,-0.028723,0.001000,0.001000,0.001000,0.001000,0.001000
1004.634615,-0.027748,0.001000,0.001000,0.001000,0.001000,0.001000
1004.653846,-0.026757,0.001000,0.001000,0.001000,0.001000,0.001000
1004.673077,-0.025752,0.001000,0.001000,0.001000,0.001000,0.001000
1004.692308,-0.024732,0.001000,0.001000,0.001000,0.001000,0.001000
1004.711538,-0.023698,0.001000,0.001000,0.001000,0.001000,0.001000
1004.730769,-0.022651,0.001000,0.001000,0.001000,0.001000,0.001000
1004.750000,-0.021592,0.001000,0.001000,0.001000,0.001000,0.001000
1004.769231,-0.020520,0.001000,0.001000,0.001000,0.001000,0.001000
1004.788462,-0.019437,0.001000,0.001000,0.001000,0.001000,0.001000
1004.807692,-0.018343,0.001000,0.001000,0.001000,0.001000,0.001000
1004.826923,-0.017239,0.001000,0.001000,0.001000,0.001000,0.001000
1004.846154,-0.016126,0.001000,0.001000,0.001000,0.001000,0.001000
1004.865385,-0.015003,0.001000,0.001000,0.001000,0.001000,0.001000
1004.884615,-0.013872,0.001000,0.001000,0.001000,0.001000,0.001000
1004.903846,-0.012733,0.001000,0.001000,0.001000,0.001000,0.001000
1004.923077,-0.011587,0.001000,0.001000,0.001000,0.001000,0.001000
1004.942308,-0.010434,0.001000,0.001000,0.001000,0.001000,0.001000
1004.961538,-0.009276,0.001000,0.001000,0.001000,0.001000,0.001000
1004.980769,-0.008112,0.001000,0.001000,0.001000,0.001000,0.001000
1005.000000,-0.006944,0.001000,0.001000,0.001000,0.001000,0.001000
1005.019231,-0.005773,0.001000,0.001000,0.001000,0.001000,0.001000
1005.038462,-0.004597,0.001000,0.001000,0.001000,0.001000,0.001000
1005.057692,-0.003420,0.001000,0.001000,0.001000,0.001000,0.001000
1005.076923,-0.002240,0.001000,0.001000,0.001000,0.001000,0.001000
1005.096154,-0.001059,0.001000,0.001000,0.001000,0.001000,0.001000
1005.115385,0.000122,0.001000,0.001000,0.001000,0.001000,0.001000
1005.134615,0.001303,0.001000,0.001000,0.001000,0.001000,0.001000
1005.153846,0.002484,0.001000,0.001000,0.001000,0.001000,0.001000
1005.173077,0.003663,0.001000,0.001000,0.001000,0.001000,0.001000
1005.192308,0.004841,0.001000,0.001000,0.001000,0.001000,0.001000
1005.211538,0.006015,0.001000,0.001000,0.001000,0.001000,0.001000
1005.230769,0.007186,0.001000,0.001000,0.001000,0.001000,0.001000
1005.250000,0.008353,0.001000,0.001000,0.001000,0.001000,0.001000
1005.269231,0.009516,0.001000,0.001000,0.001000,0.001000,0.001000
1005.288462,0.010673,0.001000,0.001000,0.001000,0.001000,0.001000
1005.307692,0.011824,0.001000,0.001000,0.001000,0.001000,0.001000
1005.326923,0.012969,0.001000,0.001000,0.001000,0.001000,0.001000
1005.346154,0.014106,0.001000,0.001000,0.001000,0.001000,0.001000
1005.365385,0.015236,0.001000,0.001000,0.001000,0.001000,0.001000
1005.384615,0.016357,0.001000,0.001000,0.001000,0.001000,0.001000
1005.403846,0.017468,0.001000,0.001000,0.001000,0.001000,0.001000
1005.423077,0.018570,0.001000,0.001000,0.001000,0.001000,0.001000
1005.442308,0.019662,0.001000,0.001000,0.001000,0.001000,0.001000
1005.461538,0.020743,0.001000,0.001000,0.001000,0.001000,0.001000
1005.480769,0.021812,0.001000,0.001000,0.001000,0.001000,0.001000
1005.500000,0.022869,0.001000,0.001000,0.001000,0.001000,0.001000
1005.519231,0.023913,0.001000,0.001000,0.001000,0.001000,0.001000
1005.538462,0.024944,0.001000,0.001000,0.001000,0.001000,0.001000
1005.557692,0.025961,0.001000,0.001000,0.001000,0.001000,0.001000
1005.576923,0.026963,0.001000,0.001000,0.001000,0.001000,0.001000
1005.596154,0.027951,0.001000,0.001000,0.001000,0.001000,0.001000
1005.615385,0.028922,0.001000,0.001000,0.001000,0.001000,0.001000
1005.634615,0.029878,0.001000,0.001000,0.001000,0.001000,0.001000
1005.653846,0.030817,0.001000,0.001000,0.001000,0.001000,0.001000
1005.673077,0.031739,0.001000,0.001000,0.001000,0.001000,0.001000
1005.692308,0.032643,0.001000,0.001000,0.001000,0.001000,0.001000
1005.711538,0.033529,0.001000,0.001000,0.001000,0.001000,0.001000
1005.730769,0.034396,0.001000,0.001000,0.001000,0.001000,0.001000
1005.750000,0.035243,0.001000,0.001000,0.001000,0.001000,0.001000
1005.769231,0.036072,0.001000,0.001000,0.001000,0.001000,0.001000
1005.788462,0.036880,0.001000,0.001000,0.001000,0.001000,0.001000
1005.807692,0.037667,0.001000,0.001000,0.001000,0.001000,0.001000
1005.826923,0.038433,0.001000,0.001000,0.001000,0.001000,0.001000
1005.846154,0.039178,0.001000,0.001000,0.001000,0.001000,0.001000
1005.865385,0.039902,0.001000,0.001000,0.001000,0.001000,0.001000
1005.884615,0.040602,0.001000,0.001000,0.001000,0.001000,0.001000
1005.903846,0.041280,0.001000,0.001000,0.001000,0.001000,0.001000
1005.923077,0.041935,0.001000,0.001000,0.001000,0.001000,0.001000
1005.942308,0.042567,0.001000,0.001000,0.001000,0.001000,0.001000
1005.961538,0.043175,0.001000,0.001000,0.001000,0.001000,0.001000
1005.980769,0.043759,0.001000,0.001000,0.001000,0.001000,0.001000
1006.000000,0.044318,0.001000,0.001000,0.001000,0.001000,0.001000
1006.019231,0.044853,0.001000,0.001000,0.001000,0.001000,0.001000
1006.038462,0.045362,0.001000,0.001000,0.001000,0.001000,0.001000
1006.057692,0.045847,0.001000,0.001000,0.001000,0.001000,0.001000
1006.076923,0.046305,0.001000,0.001000,0.001000,0.001000,0.001000
1006.096154,0.046738,0.001000,0.001000,0.001000,0.001000,0.001000
1006.115385,0.047145,0.001000,0.001000,0.001000,0.001000,0.001000
1006.134615,0.047525,0.001000,0.001000,0.001000,0.001000,0.001000
1006.153846,0.047879,0.001000,0.001000,0.001000,0.001000,0.001000
1006.173077,0.048206,0.001000,0.001000,0.001000,0.001000,0.001000
1006.192308,0.048506,0.001000,0.001000,0.001000,0.001000,0.001000
1006.211538,0.048779,0.001000,0.001000,0.001000,0.001000,0.001000
1006.230769,0.049025,0.001000,0.001000,0.001000,0.001000,0.001000
1006.250000,0.049244,0.001000,0.001000,0.001000,0.001000,0.001000
1006.269231,0.049434,0.001000,0.001000,0.001000,0.001000,0.001000
1006.288462,0.049598,0.001000,0.001000,0.001000,0.001000,0.001000
1006.307692,0.049734,0.001000,0.001000,0.001000,0.001000,0.001000
1006.326923,0.049841,0.001000,0.001000,0.001000,0.001000,0.001000
1006.346154,0.049922,0.001000,0.001000,0.001000,0.001000,0.001000
1006.365385,0.049974,0.001000,0.001000,0.001000,0.001000,0.001000
1006.384615,0.049998,0.001000,0.001000,0.001000,0.001000,0.001000
1006.403846,0.049994,0.001000,0.001000,0.001000,0.001000,0.001000
1006.423077,0.049963,0.001000,0.001000,0.001000,0.001000,0.001000
1006.442308,0.049904,0.001000,0.001000,0.001000,0.001000,0.001000
1006.461538,0.049816,0.001000,0.001000,0.001000,0.001000,0.001000
1006.480769,0.049701,0.001000,0.001000,0.001000,0.001000,0.001000
1006.500000,0.049558,0.001000,0.001000,0.001000,0.001000,0.001000
1006.519231,0.049388,0.001000,0.001000,0.001000,0.001000,0.001000
1006.538462,0.049190,0.001000,0.001000,0.001000,0.001000,0.001000
1006.557692,0.048964,0.001000,0.001000,0.001000,0.001000,0.001000
1006.576923,0.048711,0.001000,0.001000,0.001000,0.001000,0.001000
1006.596154,0.048431,0.001000,0.001000,0.001000,0.001000,0.001000
1006.615385,0.048124,0.001000,0.001000,0.001000,0.001000,0.001000
1006.634615,0.047790,0.001000,0.001000,0.001000,0.001000,0.001000
1006.653846,0.047429,0.001000,0.001000,0.001000,0.001000,0.001000
1006.673077,0.047042,0.001000,0.001000,0.001000,0.001000,0.001000
1006.692308,0.046629,0.001000,0.001000,0.001000,0.001000,0.001000
1006.711538,0.046189,0.001000,0.001000,0.001000,0.001000,0.001000
1006.730769,0.045724,0.001000,0.001000,0.001000,0.001000,0.001000
1006.750000,0.045233,0.001000,0.001000,0.001000,0.001000,0.001000
1006.769231,0.044717,0.001000,0.001000,0.001000,0.001000,0.001000
1006.788462,0.044176,0.001000,0.001000,0.001000,0.001000,0.001000
1006.807692,0.043610,0.001000,0.001000,0.001000,0.001000,0.001000
1006.826923,0.043020,0.001000,0.001000,0.001000,0.001000,0.001000
1006.846154,0.042406,0.001000,0.001000,0.001000,0.001000,0.001000
1006.865385,0.041768,0.001000,0.001000,0.001000,0.001000,0.001000
1006.884615,0.041107,0.001000,0.001000,0.001000,0.001000,0.001000
1006.903846,0.040423,0.001000,0.001000,0.001000,0.001000,0.001000
1006.923077,0.039717,0.001000,0.001000,0.001000,0.001000,0.001000
1006.942308,0.038988,0.001000,0.001000,0.001000,0.001000,0.001000
1006.961538,0.038237,0.001000,0.001000,0.001000,0.001000,0.001000
1006.980769,0.037466,0.001000,0.001000,0.001000,0.001000,0.001000
1007.000000,0.036673,0.001000,0.001000,0.001000,0.001000,0.001000
1007.019231,0.035860,0.001000,0.001000,0.001000,0.001000,0.001000
1007.038462,0.035026,0.001000,0.001000,0.001000,0.001000,0.001000
1007.057692,0.034173,0.001000,0.001000,0.001000,0.001000,0.001000
1007.076923,0.033301,0.001000,0.001000,0.001000,0.001000,0.001000
1007.096154,0.032411,0.001000,0.001000,0.001000,0.001000,0.001000
1007.115385,0.031502,0.001000,0.001000,0.001000,0.001000,0.001000
1007.134615,0.030576,0.001000,0.001000,0.001000,0.001000,0.001000
1007.153846,0.029633,0.001000,0.001000,0.001000,0.001000,0.001000
1007.173077,0.028673,0.001000,0.001000,0.001000,0.001000,0.001000
1007.192308,0.027697,0.001000,0.001000,0.001000,0.001000,0.001000
1007.211538,0.026706,0.001000,0.001000,0.001000,0.001000,0.001000
1007.230769,0.025700,0.001000,0.001000,0.001000,0.001000,0.001000
1007.250000,0.024679,0.001000,0.001000,0.001000,0.001000,0.001000
1007.269231,0.023645,0.001000,0.001000,0.001000,0.001000,0.001000
1007.288462,0.022597,0.001000,0.001000,0.001000,0.001000,0.001000
1007.307692,0.021537,0.001000,0.001000,0.001000,0.001000,0.001000
1007.326923,0.020465,0.001000,0.001000,0.001000,0.001000,0.001000
1007.346154,0.019381,0.001000,0.001000,0.001000,0.001000,0.001000
1007.365385,0.018287,0.001000,0.001000,0.001000,0.001000,0.001000
1007.384615,0.017182,0.001000,0.001000,0.001000,0.001000,0.001000
1007.403846,0.016068,0.001000,0.001000,0.001000,0.001000,0.001000
1007.423077,0.014944,0.001000,0.001000,0.001000,0.001000,0.001000
1007.442308,0.013813,0.001000,0.001000,0.001000,0.001000,0.001000
1007.461538,0.012674,0.001000,0.001000,0.001000,0.001000,0.001000
1007.480769,0.011527,0.001000,0.001000,0.001000,0.001000,0.001000
1007.500000,0.010374,0.001000,0.001000,0.001000,0.001000,0.001000
1007.519231,0.009216,0.001000,0.001000,0.001000,0.001000,0.001000
1007.538462,0.008052,0.001000,0.001000,0.001000,0.001000,0.001000
1007.557692,0.006884,0.001000,0.001000,0.001000,0.001000,0.001000
1007.576923,0.005712,0.001000,0.001000,0.001000,0.001000,0.001000
1007.596154,0.004537,0.001000,0.001000,0.001000,0.001000,0.001000
1007.615385,0.003359,0.001000,0.001000,0.001000,0.001000,0.001000
1007.634615,0.002179,0.001000,0.001000,0.001000,0.001000,0.001000
1007.653846,0.000998,0.001000,0.001000,0.001000,0.001000,0.001000
1007.673077,-0.000183,0.001000,0.001000,0.001000,0.001000,0.001000
1007.692308,-0.001365,0.001000,0.001000,0.001000,0.001000,0.001000
1007.711538,-0.002545,0.001000,0.001000,0.001000,0.001000,0.001000
1007.730769,-0.003724,0.001000,0.001000,0.001000,0.001000,0.001000
1007.750000,-0.004901,0.001000,0.001000,0.001000,0.001000,0.001000
1007.769231,-0.006076,0.001000,0.001000,0.001000,0.001000,0.001000
1007.788462,-0.007247,0.001000,0.001000,0.001000,0.001000,0.001000
1007.807692,-0.008414,0.001000,0.001000,0.001000,0.001000,0.001000
1007.826923,-0.009576,0.001000,0.001000,0.001000,0.001000,0.001000
1007.846154,-0.010733,0.001000,0.001000,0.001000,0.001000,0.001000
1007.865385,-0.011883,0.001000,0.001000,0.001000,0.001000,0.001000
1007.884615,-0.013028,0.001000,0.001000,0.001000,0.001000,0.001000
1007.903846,-0.014165,0.001000,0.001000,0.001000,0.001000,0.001000
1007.923077,-0.015294,0.001000,0.001000,0.001000,0.001000,0.001000
1007.942308,-0.016414,0.001000,0.001000,0.001000,0.001000,0.001000
1007.961538,-0.017526,0.001000,0.001000,0.001000,0.001000,0.001000
1007.980769,-0.018627,0.001000,0.001000,0.001000,0.001000,0.001000
1008.000000,-0.019718,0.001000,0.001000,0.001000,0.001000,0.001000
1008.019231,-0.020798,0.001000,0.001000,0.001000,0.001000,0.001000
1008.038462,-0.021867,0.001000,0.001000,0.001000,0.001000,0.001000
1008.057692,-0.022923,0.001000,0.001000,0.001000,0.001000,0.001000
1008.076923,-0.023967,0.001000,0.001000,0.001000,0.001000,0.001000
1008.096154,-0.024997,0.001000,0.001000,0.001000,0.001000,0.001000
1008.115385,-0.026013,0.001000,0.001000,0.001000,0.001000,0.001000
1008.134615,-0.027015,0.001000,0.001000,0.001000,0.001000,0.001000
1008.153846,-0.028001,0.001000,0.001000,0.001000,0.001000,0.001000
1008.173077,-0.028972,0.001000,0.001000,0.001000,0.001000,0.001000
1008.192308,-0.029927,0.001000,0.001000,0.001000,0.001000,0.001000
1008.211538,-0.030865,0.001000,0.001000,0.001000,0.001000,0.001000
1008.230769,-0.031786,0.001000,0.001000,0.001000,0.001000,0.001000
1008.250000,-0.032689,0.001000,0.001000,0.001000,0.001000,0.001000
1008.269231,-0.033574,0.001000,0.001000,0.001000,0.001000,0.001000
1008.288462,-0.034440,0.001000,0.001000,0.001000,0.001000,0.001000
1008.307692,-0.035287,0.001000,0.001000,0.001000,0.001000,0.001000
1008.326923,-0.036114,0.001000,0.001000,0.001000,0.001000,0.001000
1008.346154,-0.036921,0.001000,0.001000,0.001000,0.001000,0.001000
1008.365385,-0.037707,0.001000,0.001000,0.001000,0.001000,0.001000
1008.384615,-0.038473,0.001000,0.001000,0.001000,0.001000,0.001000
1008.403846,-0.039216,0.001000,0.001000,0.001000,0.001000,0.001000
1008.423077,-0.039938,0.001000,0.001000,0.001000,0.001000,0.001000
1008.442308,-0.040638,0.001000,0.001000,0.001000,0.001000,0.001000
1008.461538,-0.041315,0.001000,0.001000,0.001000,0.001000,0.001000
1008.480769,-0.041969,0.001000,0.001000,0.001000,0.001000,0.001000
1008.500000,-0.042599,0.001000,0.001000,0.001000,0.001000,0.001000
1008.519231,-0.043206,0.001000,0.001000,0.001000,0.001000,0.001000
1008.538462,-0.043788,0.001000,0.001000,0.001000,0.001000,0.001000
1008.557692,-0.044346,0.001000,0.001000,0.001000,0.001000,0.001000
1008.576923,-0.044880,0.001000,0.001000,0.001000,0.001000,0.001000
1008.596154,-0.045388,0.001000,0.001000,0.001000,0.001000,0.001000
1008.615385,-0.045871,0.001000,0.001000,0.001000,0.001000,0.001000
1008.634615,-0.046328,0.001000,0.001000,0.001000,0.001000,0.001000
1008.653846,-0.046760,0.001000,0.001000,0.001000,0.001000,0.001000
1008.673077,-0.047165,0.001000,0.001000,0.001000,0.001000,0.001000
1008.692308,-0.047544,0.001000,0.001000,0.001000,0.001000,0.001000
1008.711538,-0.047896,0.001000,0.001000,0.001000,0.001000,0.001000
1008.730769,-0.048222,0.001000,0.001000,0.001000,0.001000,0.001000
1008.750000,-0.048521,0.001000,0.001000,0.001000,0.001000,0.001000
1008.769231,-0.048793,0.001000,0.001000,0.001000,0.001000,0.001000
1008.788462,-0.049037,0.001000,0.001000,0.001000,0.001000,0.001000
1008.807692,-0.049254,0.001000,0.001000,0.001000,0.001000,0.001000
1008.826923,-0.049444,0.001000,0.001000,0.001000,0.001000,0.001000
1008.846154,-0.049606,0.001000,0.001000,0.001000,0.001000,0.001000
1008.865385,-0.049740,0.001000,0.001000,0.001000,0.001000,0.001000
1008.884615,-0.049846,0.001000,0.001000,0.001000,0.001000,0.001000
1008.903846,-0.049925,0.001000,0.001000,0.001000,0.001000,0.001000
1008.923077,-0.049976,0.001000,0.001000,0.001000,0.001000,0.001000
1008.942308,-0.049999,0.001000,0.001000,0.001000,0.001000,0.001000
1008.961538,-0.049994,0.001000,0.001000,0.001000,0.001000,0.001000
1008.980769,-0.049961,0.001000,0.001000,0.001000,0.001000,0.001000
1009.000000,-0.049900,0.001000,0.001000,0.001000,0.001000,0.001000
1009.019231,-0.049811,0.001000,0.001000,0.001000,0.001000,0.001000
1009.038462,-0.049694,0.001000,0.001000,0.001000,0.001000,0.001000
1009.057692,-0.049550,0.001000,0.001000,0.001000,0.001000,0.001000
1009.076923,-0.049378,0.001000,0.001000,0.001000,0.001000,0.001000
1009.096154,-0.049179,0.001000,0.001000,0.001000,0.001000,0.001000
1009.115385,-0.048952,0.001000,0.001000,0.001000,0.001000,0.001000
1009.134615,-0.048697,0.001000,0.001000,0.001000,0.001000,0.001000
1009.153846,-0.048416,0.001000,0.001000,0.001000,0.001000,0.001000
1009.173077,-0.048107,0.001000,0.001000,0.001000,0.001000,0.001000
1009.192308,-0.047772,0.001000,0.001000,0.001000,0.001000,0.001000
1009.211538,-0.047410,0.001000,0.001000,0.001000,0.001000,0.001000
1009.230769,-0.047021,0.001000,0.001000,0.001000,0.001000,0.001000
1009.250000,-0.046607,0.001000,0.001000,0.001000,0.001000,0.001000
1009.269231,-0.046166,0.001000,0.001000,0.001000,0.001000,0.001000
1009.288462,-0.045699,0.001000,0.001000,0.001000,0.001000,0.001000
1009.307692,-0.045207,0.001000,0.001000,0.001000,0.001000,0.001000
1009.326923,-0.044690,0.001000,0.001000,0.001000,0.001000,0.001000
1009.346154,-0.044147,0.001000,0.001000,0.001000,0.001000,0.001000
1009.365385,-0.043580,0.001000,0.001000,0.001000,0.001000,0.001000
1009.384615,-0.042989,0.001000,0.001000,0.001000,0.001000,0.001000
1009.403846,-0.042374,0.001000,0.001000,0.001000,0.001000,0.001000
1009.423077,-0.041735,0.001000,0.001000,0.001000,0.001000,0.001000
1009.442308,-0.041073,0.001000,0.001000,0.001000,0.001000,0.001000
1009.461538,-0.040387,0.001000,0.001000,0.001000,0.001000,0.001000
1009.480769,-0.039680,0.001000,0.001000,0.001000,0.001000,0.001000
1009.500000,-0.038950,0.001000,0.001000,0.001000,0.001000,0.001000
1009.519231,-0.038198,0.001000,0.001000,0.001000,0.001000,0.001000
1009.538462,-0.037425,0.001000,0.001000,0.001000,0.001000,0.001000
1009.557692,-0.036631,0.001000,0.001000,0.001000,0.001000,0.001000
1009.576923,-0.035817,0.001000,0.001000,0.001000,0.001000,0.001000
1009.596154,-0.034983,0.001000,0.001000,0.001000,0.001000,0.001000
1009.615385,-0.034129,0.001000,0.001000,0.001000,0.001000,0.001000
1009.634615,-0.033256,0.001000,0.001000,0.001000,0.001000,0.001000
1009.653846,-0.032364,0.001000,0.001000,0.001000,0.001000,0.001000
1009.673077,-0.031455,0.001000,0.001000,0.001000,0.001000,0.001000
1009.692308,-0.030528,0.001000,0.001000,0.001000,0.001000,0.001000
1009.711538,-0.029584,0.001000,0.001000,0.001000,0.001000,0.001000
1009.730769,-0.028623,0.001000,0.001000,0.001000,0.001000,0.001000
1009.750000,-0.027646,0.001000,0.001000,0.001000,0.001000,0.001000
1009.769231,-0.026654,0.001000,0.001000,0.001000,0.001000,0.001000
1009.788462,-0.025647,0.001000,0.001000,0.001000,0.001000,0.001000
1009.807692,-0.024626,0.001000,0.001000,0.001000,0.001000,0.001000
1009.826923,-0.023591,0.001000,0.001000,0.001000,0.001000,0.001000
1009.846154,-0.022543,0.001000,0.001000,0.001000,0.001000,0.001000
1009.865385,-0.021482,0.001000,0.001000,0.001000,0.001000,0.001000
1009.884615,-0.020409,0.001000,0.001000,0.001000,0.001000,0.001000
1009.903846,-0.019325,0.001000,0.001000,0.001000,0.001000,0.001000
1009.923077,-0.018230,0.001000,0.001000,0.001000,0.001000,0.001000
1009.942308,-0.017125,0.001000,0.001000,0.001000,0.001000,0.001000
1009.961538,-0.016010,0.001000,0.001000,0.001000,0.001000,0.001000
1009.980769,-0.014886,0.001000,0.001000,0.001000,0.001000,0.001000
1010.000000,-0.013754,0.001000,0.001000,0.001000,0.001000,0.001000
1010.019231,-0.012615,0.001000,0.001000,0.001000,0.001000,0.001000
1010.038462,-0.011468,0.001000,0.001000,0.001000,0.001000,0.001000
1010.057692,-0.010315,0.001000,0.001000,0.001000,0.001000,0.001000
1010.076923,-0.009156,0.001000,0.001000,0.001000,0.001000,0.001000
1010.096154,-0.007992,0.001000,0.001000,0.001000,0.001000,0.001000
1010.115385,-0.006823,0.001000,0.001000,0.001000,0.001000,0.001000
1010.134615,-0.005651,0.001000,0.001000,0.001000,0.001000,0.001000
1010.153846,-0.004476,0.001000,0.001000,0.001000,0.001000,0.001000
1010.173077,-0.003298,0.001000,0.001000,0.001000,0.001000,0.001000
1010.192308,-0.002118,0.001000,0.001000,0.001000,0.001000,0.001000
1010.211538,-0.000937,0.001000,0.001000,0.001000,0.001000,0.001000
1010.230769,0.000244,0.001000,0.001000,0.001000,0.001000,0.001000
1010.250000,0.001426,0.001000,0.001000,0.001000,0.001000,0.001000
1010.269231,0.002606,0.001000,0.001000,0.001000,0.001000,0.001000
1010.288462,0.003785,0.001000,0.001000,0.001000,0.001000,0.001000
1010.307692,0.004962,0.001000,0.001000,0.001000,0.001000,0.001000
1010.326923,0.006136,0.001000,0.001000,0.001000,0.001000,0.001000
1010.346154,0.007307,0.001000,0.001000,0.001000,0.001000,0.001000
1010.365385,0.008474,0.001000,0.001000,0.001000,0.001000,0.001000
1010.384615,0.009636,0.001000,0.001000,0.001000,0.001000,0.001000
1010.403846,0.010792,0.001000,0.001000,0.001000,0.001000,0.001000
1010.423077,0.011943,0.001000,0.001000,0.001000,0.001000,0.001000
1010.442308,0.013087,0.001000,0.001000,0.001000,0.001000,0.001000
1010.461538,0.014223,0.001000,0.001000,0.001000,0.001000,0.001000
1010.480769,0.015352,0.001000,0.001000,0.001000,0.001000,0.001000
1010.500000,0.016472,0.001000,0.001000,0.001000,0.001000,0.001000
1010.519231,0.017583,0.001000,0.001000,0.001000,0.001000,0.001000
1010.538462,0.018684,0.001000,0.001000,0.001000,0.001000,0.001000
1010.557692,0.019774,0.001000,0.001000,0.001000,0.001000,0.001000
1010.576923,0.020854,0.001000,0.001000,0.001000,0.001000,0.001000
1010.596154,0.021922,0.001000,0.001000,0.001000,0.001000,0.001000
1010.615385,0.022978,0.001000,0.001000,0.001000,0.001000,0.001000
1010.634615,0.024020,0.001000,0.001000,0.001000,0.001000,0.001000
1010.653846,0.025050,0.001000,0.001000,0.001000,0.001000,0.001000
1010.673077,0.026065,0.001000,0.001000,0.001000,0.001000,0.001000
1010.692308,0.027066,0.001000,0.001000,0.001000,0.001000,0.001000
1010.711538,0.028052,0.001000,0.001000,0.001000,0.001000,0.001000
1010.730769,0.029022,0.001000,0.001000,0.001000,0.001000,0.001000
1010.750000,0.029976,0.001000,0.001000,0.001000,0.001000,0.001000
1010.769231,0.030913,0.001000,0.001000,0.001000,0.001000,0.001000
1010.788462,0.031833,0.001000,0.001000,0.001000,0.001000,0.001000
1010.807692,0.032735,0.001000,0.001000,0.001000,0.001000,0.001000
1010.826923,0.033619,0.001000,0.001000,0.001000,0.001000,0.001000
1010.846154,0.034484,0.001000,0.001000,0.001000,0.001000,0.001000
1010.865385,0.035330,0.001000,0.001000,0.001000,0.001000,0.001000
1010.884615,0.036156,0.001000,0.001000,0.001000,0.001000,0.001000
1010.903846,0.036962,0.001000,0.001000,0.001000,0.001000,0.001000
1010.923077,0.037747,0.001000,0.001000,0.001000,0.001000,0.001000
1010.942308,0.038511,0.001000,0.001000,0.001000,0.001000,0.001000
1010.961538,0.039254,0.001000,0.001000,0.001000,0.001000,0.001000
1010.980769,0.039975,0.001000,0.001000,0.001000,0.001000,0.001000
1011.000000,0.040673,0.001000,0.001000,0.001000,0.001000,0.001000
1011.019231,0.041349,0.001000,0.001000,0.001000,0.001000,0.001000
1011.038462,0.042002,0.001000,0.001000,0.001000,0.001000,0.001000
1011.057692,0.042631,0.001000,0.001000,0.001000,0.001000,0.001000
1011.076923,0.043237,0.001000,0.001000,0.001000,0.001000,0.001000
1011.096154,0.043818,0.001000,0.001000,0.001000,0.001000,0.001000
1011.115385,0.044375,0.001000,0.001000,0.001000,0.001000,0.001000
1011.134615,0.044907,0.001000,0.001000,0.001000,0.001000,0.001000
1011.153846,0.045414,0.001000,0.001000,0.001000,0.001000,0.001000
1011.173077,0.045895,0.001000,0.001000,0.001000,0.001000,0.001000
1011.192308,0.046351,0.001000,0.001000,0.001000,0.001000,0.001000
1011.211538,0.046781,0.001000,0.001000,0.001000,0.001000,0.001000
1011.230769,0.047185,0.001000,0.001000,0.001000,0.001000,0.001000
1011.250000,0.047563,0.001000,0.001000,0.001000,0.001000,0.001000
1011.269231,0.047914,0.001000,0.001000,0.001000,0.001000,0.001000
1011.288462,0.048238,0.001000,0.001000,0.001000,0.001000,0.001000
1011.307692,0.048536,0.001000,0.001000,0.001000,0.001000,0.001000
1011.326923,0.048806,0.001000,0.001000,0.001000,0.001000,0.001000
1011.346154,0.049049,0.001000,0.001000,0.001000,0.001000,0.001000
1011.365385,0.049265,0.001000,0.001000,0.001000,0.001000,0.001000
1011.384615,0.049453,0.001000,0.001000,0.001000,0.001000,0.001000
1011.403846,0.049613,0.001000,0.001000,0.001000,0.001000,0.001000
1011.423077,0.049746,0.001000,0.001000,0.001000,0.001000,0.001000
1011.442308,0.049851,0.001000,0.001000,0.001000,0.001000,0.001000
1011.461538,0.049928,0.001000,0.001000,0.001000,0.001000,0.001000
1011.480769,0.049978,0.001000,0.001000,0.001000,0.001000,0.001000
1011.500000,0.049999,0.001000,0.001000,0.001000,0.001000,0.001000
1011.519231,0.049993,0.001000,0.001000,0.001000,0.001000,0.001000
1011.538462,0.049958,0.001000,0.001000,0.001000,0.001000,0.001000
1011.557692,0.049896,0.001000,0.001000,0.001000,0.001000,0.001000
1011.576923,0.049806,0.001000,0.001000,0.001000,0.001000,0.001000
1011.596154,0.049688,0.001000,0.001000,0.001000,0.001000,0.001000
1011.615385,0.049542,0.001000,0.001000,0.001000,0.001000,0.001000
1011.634615,0.049369,0.001000,0.001000,0.001000,0.001000,0.001000
1011.653846,0.049168,0.001000,0.001000,0.001000,0.001000,0.001000
1011.673077,0.048939,0.001000,0.001000,0.001000,0.001000,0.001000
1011.692308,0.048684,0.001000,0.001000,0.001000,0.001000,0.001000
1011.711538,0.048401,0.001000,0.001000,0.001000,0.001000,0.001000
1011.730769,0.048091,0.001000,0.001000,0.001000,0.001000,0.001000
1011.750000,0.047754,0.001000,0.001000,0.001000,0.001000,0.001000
1011.769231,0.047390,0.001000,0.001000,0.001000,0.001000,0.001000
1011.788462,0.047001,0.001000,0.001000,0.001000,0.001000,0.001000
1011.807692,0.046584,0.001000,0.001000,0.001000,0.001000,0.001000
1011.826923,0.046142,0.001000,0.001000,0.001000,0.001000,0.001000
1011.846154,0.045674,0.001000,0.001000,0.001000,0.001000,0.001000
1011.865385,0.045181,0.001000,0.001000,0.001000,0.001000,0.001000
1011.884615,0.044662,0.001000,0.001000,0.001000,0.001000,0.001000
1011.903846,0.044119,0.001000,0.001000,0.001000,0.001000,0.001000
1011.923077,0.043550,0.001000,0.001000,0.001000,0.001000,0.001000
1011.942308,0.042958,0.001000,0.001000,0.001000,0.001000,0.001000
1011.961538,0.042341,0.001000,0.001000,0.001000,0.001000,0.001000
1011.980769,0.041701,0.001000,0.001000,0.001000,0.001000,0.001000
1012.000000,0.041038,0.001000,0.001000,0.001000,0.001000,0.001000
1012.019231,0.040351,0.001000,0.001000,0.001000,0.001000,0.001000
1012.038462,0.039642,0.001000,0.001000,0.001000,0.001000,0.001000
1012.057692,0.038911,0.001000,0.001000,0.001000,0.001000,0.001000
1012.076923,0.038159,0.001000,0.001000,0.001000,0.001000,0.001000
1012.096154,0.037385,0.001000,0.001000,0.001000,0.001000,0.001000
1012.115385,0.036590,0.001000,0.001000,0.001000,0.001000,0.001000
1012.134615,0.035774,0.001000,0.001000,0.001000,0.001000,0.001000
1012.153846,0.034939,0.001000,0.001000,0.001000,0.001000,0.001000
1012.173077,0.034084,0.001000,0.001000,0.001000,0.001000,0.001000
1012.192308,0.033210,0.001000,0.001000,0.001000,0.001000,0.001000
1012.211538,0.032318,0.001000,0.001000,0.001000,0.001000,0.001000
1012.230769,0.031407,0.001000,0.001000,0.001000,0.001000,0.001000
1012.250000,0.030479,0.001000,0.001000,0.001000,0.001000,0.001000
1012.269231,0.029534,0.001000,0.001000,0.001000,0.001000,0.001000
1012.288462,0.028573,0.001000,0.001000,0.001000,0.001000,0.001000
1012.307692,0.027595,0.001000,0.001000,0.001000,0.001000,0.001000
1012.326923,0.026602,0.001000,0.001000,0.001000,0.001000,0.001000
1012.346154,0.025595,0.001000,0.001000,0.001000,0.001000,0.001000
1012.365385,0.024573,0.001000,0.001000,0.001000,0.001000,0.001000
1012.384615,0.023537,0.001000,0.001000,0.001000,0.001000,0.001000
1012.403846,0.022488,0.001000,0.001000,0.001000,0.001000,0.001000
1012.423077,0.021427,0.001000,0.001000,0.001000,0.001000,0.001000
1012.442308,0.020353,0.001000,0.001000,0.001000,0.001000,0.001000
1012.461538,0.019268,0.001000,0.001000,0.001000,0.001000,0.001000
1012.480769,0.018173,0.001000,0.001000,0.001000,0.001000,0.001000
1012.500000,0.017067,0.001000,0.001000,0.001000,0.001000,0.001000
1012.519231,0.015952,0.001000,0.001000,0.001000,0.001000,0.001000
1012.538462,0.014828,0.001000,0.001000,0.001000,0.001000,0.001000
1012.557692,0.013695,0.001000,0.001000,0.001000,0.001000,0.001000
1012.576923,0.012555,0.001000,0.001000,0.001000,0.001000,0.001000
1012.596154,0.011408,0.001000,0.001000,0.001000,0.001000,0.001000
1012.615385,0.010255,0.001000,0.001000,0.001000,0.001000,0.001000
1012.634615,0.009096,0.001000,0.001000,0.001000,0.001000,0.001000
1012.653846,0.007932,0.001000,0.001000,0.001000,0.001000,0.001000
1012.673077,0.006763,0.001000,0.001000,0.001000,0.001000,0.001000
1012.692308,0.005591,0.001000,0.001000,0.001000,0.001000,0.001000
1012.711538,0.004415,0.001000,0.001000,0.001000,0.001000,0.001000
1012.730769,0.003237,0.001000,0.001000,0.001000,0.001000,0.001000
1012.750000,0.002057,0.001000,0.001000,0.001000,0.001000,0.001000
1012.769231,0.000876,0.001000,0.001000,0.001000,0.001000,0.001000
1012.788462,-0.000305,0.001000,0.001000,0.001000,0.001000,0.001000
1012.807692,-0.001487,0.001000,0.001000,0.001000,0.001000,0.001000
1012.826923,-0.002667,0.001000,0.001000,0.001000,0.001000,0.001000
1012.846154,-0.003846,0.001000,0.001000,0.001000,0.001000,0.001000
1012.865385,-0.005023,0.001000,0.001000,0.001000,0.001000,0.001000
1012.884615,-0.006197,0.001000,0.001000,0.001000,0.001000,0.001000
1012.903846,-0.007367,0.001000,0.001000,0.001000,0.001000,0.001000
1012.923077,-0.008534,0.001000,0.001000,0.001000,0.001000,0.001000
1012.942308,-0.009696,0.001000,0.001000,0.001000,0.001000,0.001000
1012.961538,-0.010852,0.001000,0.001000,0.001000,0.001000,0.001000
1012.980769,-0.012002,0.001000,0.001000,0.001000,0.001000,0.001000
1013.000000,-0.013146,0.001000,0.001000,0.001000,0.001000,0.001000
1013.019231,-0.014282,0.001000,0.001000,0.001000,0.001000,0.001000
1013.038462,-0.015410,0.001000,0.001000,0.001000,0.001000,0.001000
1013.057692,-0.016530,0.001000,0.001000,0.001000,0.001000,0.001000
1013.076923,-0.017640,0.001000,0.001000,0.001000,0.001000,0.001000
1013.096154,-0.018740,0.001000,0.001000,0.001000,0.001000,0.001000
1013.115385,-0.019830,0.001000,0.001000,0.001000,0.001000,0.001000
1013.134615,-0.020909,0.001000,0.001000,0.001000,0.001000,0.001000
1013.153846,-0.021977,0.001000,0.001000,0.001000,0.001000,0.001000
1013.173077,-0.023032,0.001000,0.001000,0.001000,0.001000,0.001000
1013.192308,-0.024074,0.001000,0.001000,0.001000,0.001000,0.001000
1013.211538,-0.025103,0.001000,0.001000,0.001000,0.001000,0.001000
1013.230769,-0.026117,0.001000,0.001000,0.001000,0.001000,0.001000
1013.250000,-0.027117,0.001000,0.001000,0.001000,0.001000,0.001000
1013.269231,-0.028102,0.001000,0.001000,0.001000,0.001000,0.001000
1013.288462,-0.029072,0.001000,0.001000,0.001000,0.001000,0.001000
1013.307692,-0.030025,0.001000,0.001000,0.001000,0.001000,0.001000
1013.326923,-0.030961,0.001000,0.001000,0.001000,0.001000,0.001000
1013.346154,-0.031880,0.001000,0.001000,0.001000,0.001000,0.001000
1013.365385,-0.032781,0.001000,0.001000,0.001000,0.001000,0.001000
1013.384615,-0.033664,0.001000,0.001000,0.001000,0.001000,0.001000
1013.403846,-0.034528,0.001000,0.001000,0.001000,0.001000,0.001000
1013.423077,-0.035373,0.001000,0.001000,0.001000,0.001000,0.001000
1013.442308,-0.036198,0.001000,0.001000,0.001000,0.001000,0.001000
1013.461538,-0.037003,0.001000,0.001000,0.001000,0.001000,0.001000
1013.480769,-0.037787,0.001000,0.001000,0.001000,0.001000,0.001000
1013.500000,-0.038550,0.001000,0.001000,0.001000,0.001000,0.001000
1013.519231,-0.039292,0.001000,0.001000,0.001000,0.001000,0.001000
1013.538462,-0.040012,0.001000,0.001000,0.001000,0.001000,0.001000
1013.557692,-0.040709,0.001000,0.001000,0.001000,0.001000,0.001000
1013.576923,-0.041384,0.001000,0.001000,0.001000,0.001000,0.001000
1013.596154,-0.042035,0.001000,0.001000,0.001000,0.001000,0.001000
1013.615385,-0.042663,0.001000,0.001000,0.001000,0.001000,0.001000
1013.634615,-0.043267,0.001000,0.001000,0.001000,0.001000,0.001000
1013.653846,-0.043847,0.001000,0.001000,0.001000,0.001000,0.001000
1013.673077,-0.044403,0.001000,0.001000,0.001000,0.001000,0.001000
1013.692308,-0.044933,0.001000,0.001000,0.001000,0.001000,0.001000
1013.711538,-0.045439,0.001000,0.001000,0.001000,0.001000,0.001000
1013.730769,-0.045919,0.001000,0.001000,0.001000,0.001000,0.001000
1013.750000,-0.046374,0.001000,0.001000,0.001000,0.001000,0.001000
1013.769231,-0.046803,0.001000,0.001000,0.001000,0.001000,0.001000
1013.788462,-0.047205,0.001000,0.001000,0.001000,0.001000,0.001000
1013.807692,-0.047582,0.001000,0.001000,0.001000,0.001000,0.001000
1013.826923,-0.047931,0.001000,0.001000,0.001000,0.001000,0.001000
1013.846154,-0.048254,0.001000,0.001000,0.001000,0.001000,0.001000
1013.865385,-0.048550,0.001000,0.001000,0.001000,0.001000,0.001000
1013.884615,-0.048819,0.001000,0.001000,0.001000,0.001000,0.001000
1013.903846,-0.049061,0.001000,0.001000,0.001000,0.001000,0.001000
1013.923077,-0.049275,0.001000,0.001000,0.001000,0.001000,0.001000
1013.942308,-0.049462,0.001000,0.001000,0.001000,0.001000,0.001000
1013.961538,-0.049621,0.001000,0.001000,0.001000,0.001000,0.001000
1013.980769,-0.049752,0.001000,0.001000,0.001000,0.001000,0.001000
1014.000000,-0.049856,0.001000,0.001000,0.001000,0.001000,0.001000
1014.019231,-0.049931,0.001000,0.001000,0.001000,0.001000,0.001000
1014.038462,-0.049979,0.001000,0.001000,0.001000,0.001000,0.001000
1014.057692,-0.049999,0.001000,0.001000,0.001000,0.001000,0.001000
1014.076923,-0.049991,0.001000,0.001000,0.001000,0.001000,0.001000
1014.096154,-0.049956,0.001000,0.001000,0.001000,0.001000,0.001000
1014.115385,-0.049892,0.001000,0.001000,0.001000,0.001000,0.001000
1014.134615,-0.049800,0.001000,0.001000,0.001000,0.001000,0.001000
1014.153846,-0.049681,0.001000,0.001000,0.001000,0.001000,0.001000
1014.173077,-0.049534,0.001000,0.001000,0.001000,0.001000,0.001000
1014.192308,-0.049359,0.001000,0.001000,0.001000,0.001000,0.001000
1014.211538,-0.049157,0.001000,0.001000,0.001000,0.001000,0.001000
1014.230769,-0.048927,0.001000,0.001000,0.001000,0.001000,0.001000
1014.250000,-0.048670,0.001000,0.001000,0.001000,0.001000,0.001000
1014.269231,-0.048385,0.001000,0.001000,0.001000,0.001000,0.001000
1014.288462,-0.048074,0.001000,0.001000,0.001000,0.001000,0.001000
1014.307692,-0.047736,0.001000,0.001000,0.001000,0.001000,0.001000
1014.326923,-0.047371,0.001000,0.001000,0.001000,0.001000,0.001000
1014.346154,-0.046980,0.001000,0.001000,0.001000,0.001000,0.001000
1014.365385,-0.046562,0.001000,0.001000,0.001000,0.001000,0.001000
1014.384615,-0.046119,0.001000,0.001000,0.001000,0.001000,0.001000
1014.403846,-0.045649,0.001000,0.001000,0.001000,0.001000,0.001000
1014.423077,-0.045155,0.001000,0.001000,0.001000,0.001000,0.001000
1014.442308,-0.044635,0.001000,0.001000,0.001000,0.001000,0.001000
1014.461538,-0.044090,0.001000,0.001000,0.001000,0.001000,0.001000
1014.480769,-0.043520,0.001000,0.001000,0.001000,0.001000,0.001000
1014.500000,-0.042927,0.001000,0.001000,0.001000,0.001000,0.001000
1014.519231,-0.042309,0.001000,0.001000,0.001000,0.001000,0.001000
1014.538462,-0.041667,0.001000,0.001000,0.001000,0.001000,0.001000
1014.557692,-0.041003,0.001000,0.001000,0.001000,0.001000,0.001000
1014.576923,-0.040315,0.001000,0.001000,0.001000,0.001000,0.001000
1014.596154,-0.039605,0.001000,0.001000,0.001000,0.001000,0.001000
1014.615385,-0.038873,0.001000,0.001000,0.001000,0.001000,0.001000
1014.634615,-0.038119,0.001000,0.001000,0.001000,0.001000,0.001000
1014.653846,-0.037344,0.001000,0.001000,0.001000,0.001000,0.001000
1014.673077,-0.036548,0.001000,0.001000,0.001000,0.001000,0.001000
1014.692308,-0.035732,0.001000,0.001000,0.001000,0.001000,0.001000
1014.711538,-0.034895,0.001000,0.001000,0.001000,0.001000,0.001000
1014.730769,-0.034039,0.001000,0.001000,0.001000,0.001000,0.001000
1014.750000,-0.033165,0.001000,0.001000,0.001000,0.001000,0.001000
1014.769231,-0.032271,0.001000,0.001000,0.001000,0.001000,0.001000
1014.788462,-0.031360,0.001000,0.001000,0.001000,0.001000,0.001000
1014.807692,-0.030431,0.001000,0.001000,0.001000,0.001000,0.001000
1014.826923,-0.029485,0.001000,0.001000,0.001000,0.001000,0.001000
1014.846154,-0.028523,0.001000,0.001000,0.001000,0.001000,0.001000
1014.865385,-0.027544,0.001000,0.001000,0.001000,0.001000,0.001000
1014.884615,-0.026551,0.001000,0.001000,0.001000,0.001000,0.001000
1014.903846,-0.025542,0.001000,0.001000,0.001000,0.001000,0.001000
1014.923077,-0.024519,0.001000,0.001000,0.001000,0.001000,0.001000
1014.942308,-0.023483,0.001000,0.001000,0.001000,0.001000,0.001000
1014.961538,-0.022433,0.001000,0.001000,0.001000,0.001000,0.001000
1014.980769,-0.021371,0.001000,0.001000,0.001000,0.001000,0.001000
1015.000000,-0.020297,0.001000,0.001000,0.001000,0.001000,0.001000
1015.019231,-0.019212,0.001000,0.001000,0.001000,0.001000,0.001000
1015.038462,-0.018116,0.001000,0.001000,0.001000,0.001000,0.001000
1015.057692,-0.017010,0.001000,0.001000,0.001000,0.001000,0.001000
1015.076923,-0.015894,0.001000,0.001000,0.001000,0.001000,0.001000
1015.096154,-0.014770,0.001000,0.001000,0.001000,0.001000,0.001000
1015.115385,-0.013637,0.001000,0.001000,0.001000,0.001000,0.001000
1015.134615,-0.012496,0.001000,0.001000,0.001000,0.001000,0.001000
1015.153846,-0.011349,0.001000,0.001000,0.001000,0.001000,0.001000
1015.173077,-0.010195,0.001000,0.001000,0.001000,0.001000,0.001000
1015.192308,-0.009036,0.001000,0.001000,0.001000,0.001000,0.001000
1015.211538,-0.007871,0.001000,0.001000,0.001000,0.001000,0.001000
1015.230769,-0.006702,0.001000,0.001000,0.001000,0.001000,0.001000
1015.250000,-0.005530,0.001000,0.001000,0.001000,0.001000,0.001000
1015.269231,-0.004354,0.001000,0.001000,0.001000,0.001000,0.001000
1015.288462,-0.003176,0.001000,0.001000,0.001000,0.001000,0.001000
1015.307692,-0.001996,0.001000,0.001000,0.001000,0.001000,0.001000
1015.326923,-0.000815,0.001000,0.001000,0.001000,0.001000,0.001000
1015.346154,0.000366,0.001000,0.001000,0.001000,0.001000,0.001000
1015.365385,0.001548,0.001000,0.001000,0.001000,0.001000,0.001000
1015.384615,0.002728,0.001000,0.001000,0.001000,0.001000,0.001000
1015.403846,0.003907,0.001000,0.001000,0.001000,0.001000,0.001000
1015.423077,0.005084,0.001000,0.001000,0.001000,0.001000,0.001000
1015.442308,0.006257,0.001000,0.001000,0.001000,0.001000,0.001000
1015.461538,0.007428,0.001000,0.001000,0.001000,0.001000,0.001000
1015.480769,0.008594,0.001000,0.001000,0.001000,0.001000,0.001000
1015.500000,0.009755,0.001000,0.001000,0.001000,0.001000,0.001000
1015.519231,0.010911,0.001000,0.001000,0.001000,0.001000,0.001000
1015.538462,0.012061,0.001000,0.001000,0.001000,0.001000,0.001000
1015.557692,0.013204,0.001000,0.001000,0.001000,0.001000,0.001000
1015.576923,0.014340,0.001000,0.001000,0.001000,0.001000,0.001000
1015.596154,0.015468,0.001000,0.001000,0.001000,0.001000,0.001000
1015.615385,0.016587,0.001000,0.001000,0.001000,0.001000,0.001000
1015.634615,0.017697,0.001000,0.001000,0.001000,0.001000,0.001000
1015.653846,0.018797,0.001000,0.001000,0.001000,0.001000,0.001000
1015.673077,0.019886,0.001000,0.001000,0.001000,0.001000,0.001000
1015.692308,0.020965,0.001000,0.001000,0.001000,0.001000,0.001000
1015.711538,0.022032,0.001000,0.001000,0.001000,0.001000,0.001000
1015.730769,0.023086,0.001000,0.001000,0.001000,0.001000,0.001000
1015.750000,0.024127,0.001000,0.001000,0.001000,0.001000,0.001000
1015.769231,0.025155,0.001000,0.001000,0.001000,0.001000,0.001000
1015.788462,0.026169,0.001000,0.001000,0.001000,0.001000,0.001000
1015.807692,0.027169,0.001000,0.001000,0.001000,0.001000,0.001000
1015.826923,0.028153,0.001000,0.001000,0.001000,0.001000,0.001000
1015.846154,0.029121,0.001000,0.001000,0.001000,0.001000,0.001000
1015.865385,0.030074,0.001000,0.001000,0.001000,0.001000,0.001000
1015.884615,0.031009,0.001000,0.001000,0.001000,0.001000,0.001000
1015.903846,0.031927,0.001000,0.001000,0.001000,0.001000,0.001000
1015.923077,0.032827,0.001000,0.001000,0.001000,0.001000,0.001000
1015.942308,0.033709,0.001000,0.001000,0.001000,0.001000,0.001000
1015.961538,0.034572,0.001000,0.001000,0.001000,0.001000,0.001000
1015.980769,0.035416,0.001000,0.001000,0.001000,0.001000,0.001000
1016.000000,0.036240,0.001000,0.001000,0.001000,0.001000,0.001000
1016.019231,0.037044,0.001000,0.001000,0.001000,0.001000,0.001000
1016.038462,0.037827,0.001000,0.001000,0.001000,0.001000,0.001000
1016.057692,0.038589,0.001000,0.001000,0.001000,0.001000,0.001000
1016.076923,0.039330,0.001000,0.001000,0.001000,0.001000,0.001000
1016.096154,0.040048,0.001000,0.001000,0.001000,0.001000,0.001000
1016.115385,0.040744,0.001000,0.001000,0.001000,0.001000,0.001000
1016.134615,0.041418,0.001000,0.001000,0.001000,0.001000,0.001000
1016.153846,0.042068,0.001000,0.001000,0.001000,0.001000,0.001000
1016.173077,0.042695,0.001000,0.001000,0.001000,0.001000,0.001000
1016.192308,0.043298,0.001000,0.001000,0.001000,0.001000,0.001000
1016.211538,0.043876,0.001000,0.001000,0.001000,0.001000,0.001000
1016.230769,0.044431,0.001000,0.001000,0.001000,0.001000,0.001000
1016.250000,0.044960,0.001000,0.001000,0.001000,0.001000,0.001000
1016.269231,0.045465,0.001000,0.001000,0.001000,0.001000,0.001000
1016.288462,0.045943,0.001000,0.001000,0.001000,0.001000,0.001000
1016.307692,0.046397,0.001000,0.001000,0.001000,0.001000,0.001000
1016.326923,0.046824,0.001000,0.001000,0.001000,0.001000,0.001000
1016.346154,0.047225,0.001000,0.001000,0.001000,0.001000,0.001000
1016.365385,0.047600,0.001000,0.001000,0.001000,0.001000,0.001000
1016.384615,0.047949,0.001000,0.001000,0.001000,0.001000,0.001000
1016.403846,0.048270,0.001000,0.001000,0.001000,0.001000,0.001000
1016.423077,0.048565,0.001000,0.001000,0.001000,0.001000,0.001000
1016.442308,0.048832,0.001000,0.001000,0.001000,0.001000,0.001000
1016.461538,0.049072,0.001000,0.001000,0.001000,0.001000,0.001000
1016.480769,0.049285,0.001000,0.001000,0.001000,0.001000,0.001000
1016.500000,0.049471,0.001000,0.001000,0.001000,0.001000,0.001000
1016.519231,0.049628,0.001000,0.001000,0.001000,0.001000,0.001000
1016.538462,0.049758,0.001000,0.001000,0.001000,0.001000,0.001000
1016.557692,0.049860,0.001000,0.001000,0.001000,0.001000,0.001000
1016.576923,0.049935,0.001000,0.001000,0.001000,0.001000,0.001000
1016.596154,0.049981,0.001000,0.001000,0.001000,0.001000,0.001000
1016.615385,0.050000,0.001000,0.001000,0.001000,0.001000,0.001000
1016.634615,0.049990,0.001000,0.001000,0.001000,0.001000,0.001000
1016.653846,0.049953,0.001000,0.001000,0.001000,0.001000,0.001000
1016.673077,0.049888,0.001000,0.001000,0.001000,0.001000,0.001000
1016.692308,0.049795,0.001000,0.001000,0.001000,0.001000,0.001000
1016.711538,0.049674,0.001000,0.001000,0.001000,0.001000,0.001000
1016.730769,0.049525,0.001000,0.001000,0.001000,0.001000,0.001000
1016.750000,0.049349,0.001000,0.001000,0.001000,0.001000,0.001000
1016.769231,0.049145,0.001000,0.001000,0.001000,0.001000,0.001000
1016.788462,0.048914,0.001000,0.001000,0.001000,0.001000,0.001000
1016.807692,0.048656,0.001000,0.001000,0.001000,0.001000,0.001000
1016.826923,0.048370,0.001000,0.001000,0.001000,0.001000,0.001000
1016.846154,0.048057,0.001000,0.001000,0.001000,0.001000,0.001000
1016.865385,0.047718,0.001000,0.001000,0.001000,0.001000,0.001000
1016.884615,0.047351,0.001000,0.001000,0.001000,0.001000,0.001000
1016.903846,0.046959,0.001000,0.001000,0.001000,0.001000,0.001000
1016.923077,0.046540,0.001000,0.001000,0.001000,0.001000,0.001000
1016.942308,0.046095,0.001000,0.001000,0.001000,0.001000,0.001000
1016.961538,0.045625,0.001000,0.001000,0.001000,0.001000,0.001000
1016.980769,0.045128,0.001000,0.001000,0.001000,0.001000,0.001000
1017.000000,0.044607,0.001000,0.001000,0.001000,0.001000,0.001000
1017.019231,0.044061,0.001000,0.001000,0.001000,0.001000,0.001000
1017.038462,0.043490,0.001000,0.001000,0.001000,0.001000,0.001000
1017.057692,0.042895,0.001000,0.001000,0.001000,0.001000,0.001000
1017.076923,0.042276,0.001000,0.001000,0.001000,0.001000,0.001000
1017.096154,0.041634,0.001000,0.001000,0.001000,0.001000,0.001000
1017.115385,0.040968,0.001000,0.001000,0.001000,0.001000,0.001000
1017.134615,0.040279,0.001000,0.001000,0.001000,0.001000,0.001000
1017.153846,0.039568,0.001000,0.001000,0.001000,0.001000,0.001000
1017.173077,0.038835,0.001000,0.001000,0.001000,0.001000,0.001000
1017.192308,0.038080,0.001000,0.001000,0.001000,0.001000,0.001000
1017.211538,0.037303,0.001000,0.001000,0.001000,0.001000,0.001000
1017.230769,0.036506,0.001000,0.001000,0.001000,0.001000,0.001000
1017.250000,0.035689,0.001000,0.001000,0.001000,0.001000,0.001000
1017.269231,0.034852,0.001000,0.001000,0.001000,0.001000,0.001000
1017.288462,0.033995,0.001000,0.001000,0.001000,0.001000,0.001000
1017.307692,0.033119,0.001000,0.001000,0.001000,0.001000,0.001000
1017.326923,0.032225,0.001000,0.001000,0.001000,0.001000,0.001000
1017.346154,0.031312,0.001000,0.001000,0.001000,0.001000,0.001000
1017.365385,0.030382,0.001000,0.001000,0.001000,0.001000,0.001000
1017.384615,0.029436,0.001000,0.001000,0.001000,0.001000,0.001000
1017.403846,0.028472,0.001000,0.001000,0.001000,0.001000,0.001000
1017.423077,0.027493,0.001000,0.001000,0.001000,0.001000,0.001000
1017.442308,0.026499,0.001000,0.001000,0.001000,0.001000,0.001000
1017.461538,0.025490,0.001000,0.001000,0.001000,0.001000,0.001000
1017.480769,0.024466,0.001000,0.001000,0.001000,0.001000,0.001000
1017.500000,0.023429,0.001000,0.001000,0.001000,0.001000,0.001000
1017.519231,0.022379,0.001000,0.001000,0.001000,0.001000,0.001000
1017.538462,0.021316,0.001000,0.001000,0.001000,0.001000,0.001000
1017.557692,0.020242,0.001000,0.001000,0.001000,0.001000,0.001000
1017.576923,0.019156,0.001000,0.001000,0.001000,0.001000,0.001000
1017.596154,0.018059,0.001000,0.001000,0.001000,0.001000,0.001000
1017.615385,0.016952,0.001000,0.001000,0.001000,0.001000,0.001000
1017.634615,0.015836,0.001000,0.001000,0.001000,0.001000,0.001000
1017.653846,0.014711,0.001000,0.001000,0.001000,0.001000,0.001000
1017.673077,0.013578,0.001000,0.001000,0.001000,0.001000,0.001000
1017.692308,0.012437,0.001000,0.001000,0.001000,0.001000,0.001000
1017.711538,0.011289,0.001000,0.001000,0.001000,0.001000,0.001000
1017.730769,0.010135,0.001000,0.001000,0.001000,0.001000,0.001000
1017.750000,0.008976,0.001000,0.001000,0.001000,0.001000,0.001000
1017.769231,0.007811,0.001000,0.001000,0.001000,0.001000,0.001000
1017.788462,0.006642,0.001000,0.001000,0.001000,0.001000,0.001000
1017.807692,0.005469,0.001000,0.001000,0.001000,0.001000,0.001000
1017.826923,0.004293,0.001000,0.001000,0.001000,0.001000,0.001000
1017.846154,0.003115,0.001000,0.001000,0.001000,0.001000,0.001000
1017.865385,0.001935,0.001000,0.001000,0.001000,0.001000,0.001000
1017.884615,0.000754,0.001000,0.001000,0.001000,0.001000,0.001000
1017.903846,-0.000427,0.001000,0.001000,0.001000,0.001000,0.001000
1017.923077,-0.001609,0.001000,0.001000,0.001000,0.001000,0.001000
1017.942308,-0.002789,0.001000,0.001000,0.001000,0.001000,0.001000
1017.961538,-0.003968,0.001000,0.001000,0.001000,0.001000,0.001000
1017.980769,-0.005144,0.001000,0.001000,0.001000,0.001000,0.001000
1018.000000,-0.006318,0.001000,0.001000,0.001000,0.001000,0.001000
1018.019231,-0.007488,0.001000,0.001000,0.001000,0.001000,0.001000
1018.038462,-0.008654,0.001000,0.001000,0.001000,0.001000,0.001000
1018.057692,-0.009815,0.001000,0.001000,0.001000,0.001000,0.001000
1018.076923,-0.010971,0.001000,0.001000,0.001000,0.001000,0.001000
1018.096154,-0.012121,0.001000,0.001000,0.001000,0.001000,0.001000
1018.115385,-0.013263,0.001000,0.001000,0.001000,0.001000,0.001000
1018.134615,-0.014399,0.001000,0.001000,0.001000,0.001000,0.001000
1018.153846,-0.015526,0.001000,0.001000,0.001000,0.001000,0.001000
1018.173077,-0.016645,0.001000,0.001000,0.001000,0.001000,0.001000
1018.192308,-0.017754,0.001000,0.001000,0.001000,0.001000,0.001000
1018.211538,-0.018854,0.001000,0.001000,0.001000,0.001000,0.001000
1018.230769,-0.019942,0.001000,0.001000,0.001000,0.001000,0.001000
1018.250000,-0.021020,0.001000,0.001000,0.001000,0.001000,0.001000
1018.269231,-0.022086,0.001000,0.001000,0.001000,0.001000,0.001000
1018.288462,-0.023140,0.001000,0.001000,0.001000,0.001000,0.001000
1018.307692,-0.024181,0.001000,0.001000,0.001000,0.001000,0.001000
1018.326923,-0.025208,0.001000,0.001000,0.001000,0.001000,0.001000
1018.346154,-0.026221,0.001000,0.001000,0.001000,0.001000,0.001000
1018.365385,-0.027220,0.001000,0.001000,0.001000,0.001000,0.001000
1018.384615,-0.028203,0.001000,0.001000,0.001000,0.001000,0.001000
1018.403846,-0.029171,0.001000,0.001000,0.001000,0.001000,0.001000
1018.423077,-0.030122,0.001000,0.001000,0.001000,0.001000,0.001000
1018.442308,-0.031057,0.001000,0.001000,0.001000,0.001000,0.001000
1018.461538,-0.031974,0.001000,0.001000,0.001000,0.001000,0.001000
1018.480769,-0.032873,0.001000,0.001000,0.001000,0.001000,0.001000
1018.500000,-0.033754,0.001000,0.001000,0.001000,0.001000,0.001000
1018.519231,-0.034617,0.001000,0.001000,0.001000,0.001000,0.001000
1018.538462,-0.035459,0.001000,0.001000,0.001000,0.001000,0.001000
1018.557692,-0.036282,0.001000,0.001000,0.001000,0.001000,0.001000
1018.576923,-0.037085,0.001000,0.001000,0.001000,0.001000,0.001000
1018.596154,-0.037867,0.001000,0.001000,0.001000,0.001000,0.001000
1018.615385,-0.038628,0.001000,0.001000,0.001000,0.001000,0.001000
1018.634615,-0.039367,0.001000,0.001000,0.001000,0.001000,0.001000
1018.653846,-0.040085,0.001000,0.001000,0.001000,0.001000,0.001000
1018.673077,-0.040780,0.001000,0.001000,0.001000,0.001000,0.001000
1018.692308,-0.041452,0.001000,0.001000,0.001000,0.001000,0.001000
1018.711538,-0.042101,0.001000,0.001000,0.001000,0.001000,0.001000
1018.730769,-0.042727,0.001000,0.001000,0.001000,0.001000,0.001000
1018.750000,-0.043328,0.001000,0.001000,0.001000,0.001000,0.001000
1018.769231,-0.043906,0.001000,0.001000,0.001000,0.001000,0.001000
1018.788462,-0.044459,0.001000,0.001000,0.001000,0.001000,0.001000
1018.807692,-0.044987,0.001000,0.001000,0.001000,0.001000,0.001000
1018.826923,-0.045490,0.001000,0.001000,0.001000,0.001000,0.001000
1018.846154,-0.045968,0.001000,0.001000,0.001000,0.001000,0.001000
1018.865385,-0.046420,0.001000,0.001000,0.001000,0.001000,0.001000
1018.884615,-0.046846,0.001000,0.001000,0.001000,0.001000,0.001000
1018.903846,-0.047245,0.001000,0.001000,0.001000,0.001000,0.001000
1018.923077,-0.047619,0.001000,0.001000,0.001000,0.001000,0.001000
1018.942308,-0.047966,0.001000,0.001000,0.001000,0.001000,0.001000
1018.961538,-0.048286,0.001000,0.001000,0.001000,0.001000,0.001000
1018.980769,-0.048579,0.001000,0.001000,0.001000,0.001000,0.001000
1019.000000,-0.048845,0.001000,0.001000,0.001000,0.001000,0.001000
1019.019231,-0.049084,0.001000,0.001000,0.001000,0.001000,0.001000
1019.038462,-0.049295,0.001000,0.001000,0.001000,0.001000,0.001000
1019.057692,-0.049479,0.001000,0.001000,0.001000,0.001000,0.001000
1019.076923,-0.049636,0.001000,0.001000,0.001000,0.001000,0.001000
1019.096154,-0.049764,0.001000,0.001000,0.001000,0.001000,0.001000
1019.115385,-0.049865,0.001000,0.001000,0.001000,0.001000,0.001000
1019.134615,-0.049938,0.001000,0.001000,0.001000,0.001000,0.001000
1019.153846,-0.049983,0.001000,0.001000,0.001000,0.001000,0.001000
1019.173077,-0.050000,0.001000,0.001000,0.001000,0.001000,0.001000
1019.192308,-0.049989,0.001000,0.001000,0.001000,0.001000,0.001000
1019.211538,-0.049950,0.001000,0.001000,0.001000,0.001000,0.001000
1019.230769,-0.049884,0.001000,0.001000,0.001000,0.001000,0.001000
1019.250000,-0.049789,0.001000,0.001000,0.001000,0.001000,0.001000
1019.269231,-0.049667,0.001000,0.001000,0.001000,0.001000,0.001000
1019.288462,-0.049517,0.001000,0.001000,0.001000,0.001000,0.001000
1019.307692,-0.049339,0.001000,0.001000,0.001000,0.001000,0.001000
1019.326923,-0.049134,0.001000,0.001000,0.001000,0.001000,0.001000
1019.346154,-0.048901,0.001000,0.001000,0.001000,0.001000,0.001000
1019.365385,-0.048641,0.001000,0.001000,0.001000,0.001000,0.001000
1019.384615,-0.048354,0.001000,0.001000,0.001000,0.001000,0.001000
1019.403846,-0.048040,0.001000,0.001000,0.001000,0.001000,0.001000
1019.423077,-0.047699,0.001000,0.001000,0.001000,0.001000,0.001000
1019.442308,-0.047332,0.001000,0.001000,0.001000,0.001000,0.001000
1019.461538,-0.046938,0.001000,0.001000,0.001000,0.001000,0.001000
1019.480769,-0.046518,0.001000,0.001000,0.001000,0.001000,0.001000
1019.500000,-0.046071,0.001000,0.001000,0.001000,0.001000,0.001000
1019.519231,-0.045599,0.001000,0.001000,0.001000,0.001000,0.001000
1019.538462,-0.045102,0.001000,0.001000,0.001000,0.001000,0.001000
1019.557692,-0.044580,0.001000,0.001000,0.001000,0.001000,0.001000
1019.576923,-0.044032,0.001000,0.001000,0.001000,0.001000,0.001000
1019.596154,-0.043460,0.001000,0.001000,0.001000,0.001000,0.001000
1019.615385,-0.042864,0.001000,0.001000,0.001000,0.001000,0.001000
1019.634615,-0.042244,0.001000,0.001000,0.001000,0.001000,0.001000
1019.653846,-0.041600,0.001000,0.001000,0.001000,0.001000,0.001000
1019.673077,-0.040933,0.001000,0.001000,0.001000,0.001000,0.001000
1019.692308,-0.040243,0.001000,0.001000,0.001000,0.001000,0.001000
1019.711538,-0.039531,0.001000,0.001000,0.001000,0.001000,0.001000
1019.730769,-0.038796,0.001000,0.001000,0.001000,0.001000,0.001000
1019.750000,-0.038040,0.001000,0.001000,0.001000,0.001000,0.001000
1019.769231,-0.037263,0.001000,0.001000,0.001000,0.001000,0.001000
1019.788462,-0.036465,0.001000,0.001000,0.001000,0.001000,0.001000
1019.807692,-0.035646,0.001000,0.001000,0.001000,0.001000,0.001000
1019.826923,-0.034808,0.001000,0.001000,0.001000,0.001000,0.001000
1019.846154,-0.033950,0.001000,0.001000,0.001000,0.001000,0.001000
1019.865385,-0.033073,0.001000,0.001000,0.001000,0.001000,0.001000
1019.884615,-0.032178,0.001000,0.001000,0.001000,0.001000,0.001000
1019.903846,-0.031265,0.001000,0.001000,0.001000,0.001000,0.001000
1019.923077,-0.030334,0.001000,0.001000,0.001000,0.001000,0.001000
1019.942308,-0.029386,0.001000,0.001000,0.001000,0.001000,0.001000
1019.961538,-0.028422,0.001000,0.001000,0.001000,0.001000,0.001000
1019.980769,-0.027442,0.001000,0.001000,0.001000,0.001000,0.001000
1020.000000,-0.026447,0.001000,0.001000,0.001000,0.001000,0.001000
1020.019231,-0.025437,0.001000,0.001000,0.001000,0.001000,0.001000
1020.038462,-0.024413,0.001000,0.001000,0.001000,0.001000,0.001000
1020.057692,-0.023375,0.001000,0.001000,0.001000,0.001000,0.001000
1020.076923,-0.022324,0.001000,0.001000,0.001000,0.001000,0.001000
1020.096154,-0.021261,0.001000,0.001000,0.001000,0.001000,0.001000
1020.115385,-0.020186,0.001000,0.001000,0.001000,0.001000,0.001000
1020.134615,-0.019099,0.001000,0.001000,0.001000,0.001000,0.001000
1020.153846,-0.018002,0.001000,0.001000,0.001000,0.001000,0.001000
1020.173077,-0.016895,0.001000,0.001000,0.001000,0.001000,0.001000
1020.192308,-0.015778,0.001000,0.001000,0.001000,0.001000,0.001000
1020.211538,-0.014653,0.001000,0.001000,0.001000,0.001000,0.001000
1020.230769,-0.013519,0.001000,0.001000,0.001000,0.001000,0.001000
1020.250000,-0.012378,0.001000,0.001000,0.001000,0.001000,0.001000
1020.269231,-0.011230,0.001000,0.001000,0.001000,0.001000,0.001000
1020.288462,-0.010076,0.001000,0.001000,0.001000,0.001000,0.001000
1020.307692,-0.008916,0.001000,0.001000,0.001000,0.001000,0.001000
1020.326923,-0.007751,0.001000,0.001000,0.001000,0.001000,0.001000
1020.346154,-0.006581,0.001000,0.001000,0.001000,0.001000,0.001000
1020.365385,-0.005408,0.001000,0.001000,0.001000,0.001000,0.001000
1020.384615,-0.004232,0.001000,0.001000,0.001000,0.001000,0.001000
1020.403846,-0.003054,0.001000,0.001000,0.001000,0.001000,0.001000
1020.423077,-0.001874,0.001000,0.001000,0.001000,0.001000,0.001000
1020.442308,-0.000693,0.001000,0.001000,0.001000,0.001000,0.001000
1020.461538,0.000488,0.001000,0.001000,0.001000,0.001000,0.001000
1020.480769,0.001670,0.001000,0.001000,0.001000,0.001000,0.001000
1020.500000,0.002850,0.001000,0.001000,0.001000,0.001000,0.001000
1020.519231,0.004029,0.001000,0.001000,0.001000,0.001000,0.001000
1020.538462,0.005205,0.001000,0.001000,0.001000,0.001000,0.001000
1020.557692,0.006379,0.001000,0.001000,0.001000,0.001000,0.001000
1020.576923,0.007549,0.001000,0.001000,0.001000,0.001000,0.001000
1020.596154,0.008714,0.001000,0.001000,0.001000,0.001000,0.001000
1020.615385,0.009875,0.001000,0.001000,0.001000,0.001000,0.001000
1020.634615,0.011031,0.001000,0.001000,0.001000,0.001000,0.001000
1020.653846,0.012180,0.001000,0.001000,0.001000,0.001000,0.001000
1020.673077,0.013322,0.001000,0.001000,0.001000,0.001000,0.001000
1020.692308,0.014457,0.001000,0.001000,0.001000,0.001000,0.001000
1020.711538,0.015584,0.001000,0.001000,0.001000,0.001000,0.001000
1020.730769,0.016702,0.001000,0.001000,0.001000,0.001000,0.001000
1020.750000,0.017811,0.001000,0.001000,0.001000,0.001000,0.001000
1020.769231,0.018910,0.001000,0.001000,0.001000,0.001000,0.001000
1020.788462,0.019998,0.001000,0.001000,0.001000,0.001000,0.001000
1020.807692,0.021076,0.001000,0.001000,0.001000,0.001000,0.001000
1020.826923,0.022141,0.001000,0.001000,0.001000,0.001000,0.001000
1020.846154,0.023194,0.001000,0.001000,0.001000,0.001000,0.001000
1020.865385,0.024234,0.001000,0.001000,0.001000,0.001000,0.001000
1020.884615,0.025261,0.001000,0.001000,0.001000,0.001000,0.001000
1020.903846,0.026273,0.001000,0.001000,0.001000,0.001000,0.001000
1020.923077,0.027271,0.001000,0.001000,0.001000,0.001000,0.001000
1020.942308,0.028254,0.001000,0.001000,0.001000,0.001000,0.001000
1020.961538,0.029221,0.001000,0.001000,0.001000,0.001000,0.001000
1020.980769,0.030171,0.001000,0.001000,0.001000,0.001000,0.001000
1021.000000,0.031105,0.001000,0.001000,0.001000,0.001000,0.001000
1021.019231,0.032021,0.001000,0.001000,0.001000,0.001000,0.001000
1021.038462,0.032919,0.001000,0.001000,0.001000,0.001000,0.001000
1021.057692,0.033799,0.001000,0.001000,0.001000,0.001000,0.001000
1021.076923,0.034661,0.001000,0.001000,0.001000,0.001000,0.001000
1021.096154,0.035502,0.001000,0.001000,0.001000,0.001000,0.001000
1021.115385,0.036324,0.001000,0.001000,0.001000,0.001000,0.001000
1021.134615,0.037126,0.001000,0.001000,0.001000,0.001000,0.001000
1021.153846,0.037907,0.001000,0.001000,0.001000,0.001000,0.001000
1021.173077,0.038667,0.001000,0.001000,0.001000,0.001000,0.001000
1021.192308,0.039405,0.001000,0.001000,0.001000,0.001000,0.001000
1021.211538,0.040121,0.001000,0.001000,0.001000,0.001000,0.001000
1021.230769,0.040815,0.001000,0.001000,0.001000,0.001000,0.001000
1021.250000,0.041486,0.001000,0.001000,0.001000,0.001000,0.001000
1021.269231,0.042134,0.001000,0.001000,0.001000,0.001000,0.001000
1021.288462,0.042758,0.001000,0.001000,0.001000,0.001000,0.001000
1021.307692,0.043359,0.001000,0.001000,0.001000,0.001000,0.001000
1021.326923,0.043935,0.001000,0.001000,0.001000,0.001000,0.001000
1021.346154,0.044487,0.001000,0.001000,0.001000,0.001000,0.001000
1021.365385,0.045013,0.001000,0.001000,0.001000,0.001000,0.001000
1021.384615,0.045515,0.001000,0.001000,0.001000,0.001000,0.001000
1021.403846,0.045992,0.001000,0.001000,0.001000,0.001000,0.001000
1021.423077,0.046442,0.001000,0.001000,0.001000,0.001000,0.001000
1021.442308,0.046867,0.001000,0.001000,0.001000,0.001000,0.001000
1021.461538,0.047265,0.001000,0.001000,0.001000,0.001000,0.001000
1021.480769,0.047638,0.001000,0.001000,0.001000,0.001000,0.001000
1021.500000,0.047983,0.001000,0.001000,0.001000,0.001000,0.001000
1021.519231,0.048302,0.001000,0.001000,0.001000,0.001000,0.001000
1021.538462,0.048594,0.001000,0.001000,0.001000,0.001000,0.001000
1021.557692,0.048858,0.001000,0.001000,0.001000,0.001000,0.001000
1021.576923,0.049096,0.001000,0.001000,0.001000,0.001000,0.001000
1021.596154,0.049306,0.001000,0.001000,0.001000,0.001000,0.001000
1021.615385,0.049488,0.001000,0.001000,0.001000,0.001000,0.001000
1021.634615,0.049643,0.001000,0.001000,0.001000,0.001000,0.001000
1021.653846,0.049770,0.001000,0.001000,0.001000,0.001000,0.001000
1021.673077,0.049869,0.001000,0.001000,0.001000,0.001000,0.001000
1021.692308,0.049941,0.001000,0.001000,0.001000,0.001000,0.001000
1021.711538,0.049984,0.001000,0.001000,0.001000,0.001000,0.001000
1021.730769,0.050000,0.001000,0.001000,0.001000,0.001000,0.001000
1021.750000,0.049988,0.001000,0.001000,0.001000,0.001000,0.001000
1021.769231,0.049948,0.001000,0.001000,0.001000,0.001000,0.001000
1021.788462,0.049879,0.001000,0.001000,0.001000,0.001000,0.001000
1021.807692,0.049784,0.001000,0.001000,0.001000,0.001000,0.001000
1021.826923,0.049660,0.001000,0.001000,0.001000,0.001000,0.001000
1021.846154,0.049508,0.001000,0.001000,0.001000,0.001000,0.001000
1021.865385,0.049329,0.001000,0.001000,0.001000,0.001000,0.001000
1021.884615,0.049123,0.001000,0.001000,0.001000,0.001000,0.001000
1021.903846,0.048889,0.001000,0.001000,0.001000,0.001000,0.001000
1021.923077,0.048627,0.001000,0.001000,0.001000,0.001000,0.001000
1021.942308,0.048339,0.001000,0.001000,0.001000,0.001000,0.001000
1021.961538,0.048023,0.001000,0.001000,0.001000,0.001000,0.001000
1021.980769,0.047681,0.001000,0.001000,0.001000,0.001000,0.001000
1022.000000,0.047312,0.001000,0.001000,0.001000,0.001000,0.001000
1022.019231,0.046917,0.001000,0.001000,0.001000,0.001000,0.001000
1022.038462,0.046495,0.001000,0.001000,0.001000,0.001000,0.001000
1022.057692,0.046048,0.001000,0.001000,0.001000,0.001000,0.001000
1022.076923,0.045574,0.001000,0.001000,0.001000,0.001000,0.001000
1022.096154,0.045076,0.001000,0.001000,0.001000,0.001000,0.001000
1022.115385,0.044552,0.001000,0.001000,0.001000,0.001000,0.001000
1022.134615,0.044003,0.001000,0.001000,0.001000,0.001000,0.001000
1022.153846,0.043430,0.001000,0.001000,0.001000,0.001000,0.001000
1022.173077,0.042832,0.001000,0.001000,0.001000,0.001000,0.001000
1022.192308,0.042211,0.001000,0.001000,0.001000,0.001000,0.001000
1022.211538,0.041566,0.001000,0.001000,0.001000,0.001000,0.001000
1022.230769,0.040898,0.001000,0.001000,0.001000,0.001000,0.001000
1022.250000,0.040207,0.001000,0.001000,0.001000,0.001000,0.001000
1022.269231,0.039493,0.001000,0.001000,0.001000,0.001000,0.001000
1022.288462,0.038758,0.001000,0.001000,0.001000,0.001000,0.001000
1022.307692,0.038000,0.001000,0.001000,0.001000,0.001000,0.001000
1022.326923,0.037222,0.001000,0.001000,0.001000,0.001000,0.001000
1022.346154,0.036423,0.001000,0.001000,0.001000,0.001000,0.001000
1022.365385,0.035603,0.001000,0.001000,0.001000,0.001000,0.001000
1022.384615,0.034764,0.001000,0.001000,0.001000,0.001000,0.001000
1022.403846,0.033905,0.001000,0.001000,0.001000,0.001000,0.001000
1022.423077,0.033027,0.001000,0.001000,0.001000,0.001000,0.001000
1022.442308,0.032131,0.001000,0.001000,0.001000,0.001000,0.001000
1022.461538,0.031217,0.001000,0.001000,0.001000,0.001000,0.001000
1022.480769,0.030285,0.001000,0.001000,0.001000,0.001000,0.001000
1022.500000,0.029337,0.001000,0.001000,0.001000,0.001000,0.001000
1022.519231,0.028372,0.001000,0.001000,0.001000,0.001000,0.001000
1022.538462,0.027391,0.001000,0.001000,0.001000,0.001000,0.001000
1022.557692,0.026395,0.001000,0.001000,0.001000,0.001000,0.001000
1022.576923,0.025385,0.001000,0.001000,0.001000,0.001000,0.001000
1022.596154,0.024360,0.001000,0.001000,0.001000,0.001000,0.001000
1022.615385,0.023321,0.001000,0.001000,0.001000,0.001000,0.001000
1022.634615,0.022270,0.001000,0.001000,0.001000,0.001000,0.001000
1022.653846,0.021206,0.001000,0.001000,0.001000,0.001000,0.001000
1022.673077,0.020130,0.001000,0.001000,0.001000,0.001000,0.001000
1022.692308,0.019043,0.001000,0.001000,0.001000,0.001000,0.001000
1022.711538,0.017945,0.001000,0.001000,0.001000,0.001000,0.001000
1022.730769,0.016837,0.001000,0.001000,0.001000,0.001000,0.001000
1022.750000,0.015720,0.001000,0.001000,0.001000,0.001000,0.001000
1022.769231,0.014594,0.001000,0.001000,0.001000,0.001000,0.001000
1022.788462,0.013460,0.001000,0.001000,0.001000,0.001000,0.001000
1022.807692,0.012319,0.001000,0.001000,0.001000,0.001000,0.001000
1022.826923,0.011170,0.001000,0.001000,0.001000,0.001000,0.001000
1022.846154,0.010016,0.001000,0.001000,0.001000,0.001000,0.001000
1022.865385,0.008856,0.001000,0.001000,0.001000,0.001000,0.001000
1022.884615,0.007690,0.001000,0.001000,0.001000,0.001000,0.001000
1022.903846,0.006521,0.001000,0.001000,0.001000,0.001000,0.001000
1022.923077,0.005348,0.001000,0.001000,0.001000,0.001000,0.001000
1022.942308,0.004172,0.001000,0.001000,0.001000,0.001000,0.001000
1022.961538,0.002993,0.001000,0.001000,0.001000,0.001000,0.001000
1022.980769,0.001813,0.001000,0.001000,0.001000,0.001000,0.001000
1023.000000,0.000632,0.001000,0.001000,0.001000,0.001000,0.001000
1023.019231,-0.000550,0.001000,0.001000,0.001000,0.001000,0.001000
1023.038462,-0.001731,0.001000,0.001000,0.001000,0.001000,0.001000
1023.057692,-0.002911,0.001000,0.001000,0.001000,0.001000,0.001000
1023.076923,-0.004090,0.001000,0.001000,0.001000,0.001000,0.001000
1023.096154,-0.005266,0.001000,0.001000,0.001000,0.001000,0.001000
1023.115385,-0.006439,0.001000,0.001000,0.001000,0.001000,0.001000
1023.134615,-0.007609,0.001000,0.001000,0.001000,0.001000,0.001000
1023.153846,-0.008774,0.001000,0.001000,0.001000,0.001000,0.001000
1023.173077,-0.009935,0.001000,0.001000,0.001000,0.001000,0.001000
1023.192308,-0.011090,0.001000,0.001000,0.001000,0.001000,0.001000
1023.211538,-0.012239,0.001000,0.001000,0.001000,0.001000,0.001000
1023.230769,-0.013381,0.001000,0.001000,0.001000,0.001000,0.001000
1023.250000,-0.014516,0.001000,0.001000,0.001000,0.001000,0.001000
1023.269231,-0.015642,0.001000,0.001000,0.001000,0.001000,0.001000
1023.288462,-0.016760,0.001000,0.001000,0.001000,0.001000,0.001000
1023.307692,-0.017868,0.001000,0.001000,0.001000,0.001000,0.001000
1023.326923,-0.018967,0.001000,0.001000,0.001000,0.001000,0.001000
1023.346154,-0.020054,0.001000,0.001000,0.001000,0.001000,0.001000
1023.365385,-0.021131,0.001000,0.001000,0.001000,0.001000,0.001000
1023.384615,-0.022196,0.001000,0.001000,0.001000,0.001000,0.001000
1023.403846,-0.023248,0.001000,0.001000,0.001000,0.001000,0.001000
1023.423077,-0.024288,0.001000,0.001000,0.001000,0.001000,0.001000
1023.442308,-0.025314,0.001000,0.001000,0.001000,0.001000,0.001000
1023.461538,-0.026325,0.001000,0.001000,0.001000,0.001000,0.001000
1023.480769,-0.027322,0.001000,0.001000,0.001000,0.001000,0.001000
1023.500000,-0.028304,0.001000,0.001000,0.001000,0.001000,0.001000
1023.519231,-0.029270,0.001000,0.001000,0.001000,0.001000,0.001000
1023.538462,-0.030220,0.001000,0.001000,0.001000,0.001000,0.001000
1023.557692,-0.031153,0.001000,0.001000,0.001000,0.001000,0.001000
1023.576923,-0.032068,0.001000,0.001000,0.001000,0.001000,0.001000
1023.596154,-0.032965,0.001000,0.001000,0.001000,0.001000,0.001000
1023.615385,-0.033844,0.001000,0.001000,0.001000,0.001000,0.001000
1023.634615,-0.034705,0.001000,0.001000,0.001000,0.001000,0.001000
1023.653846,-0.035545,0.001000,0.001000,0.001000,0.001000,0.001000
1023.673077,-0.036366,0.001000,0.001000,0.001000,0.001000,0.001000
1023.692308,-0.037167,0.001000,0.001000,0.001000,0.001000,0.001000
1023.711538,-0.037947,0.001000,0.001000,0.001000,0.001000,0.001000
1023.730769,-0.038706,0.001000,0.001000,0.001000,0.001000,0.001000
1023.750000,-0.039443,0.001000,0.001000,0.001000,0.001000,0.001000
1023.769231,-0.040158,0.001000,0.001000,0.001000,0.001000,0.001000
1023.788462,-0.040850,0.001000,0.001000,0.001000,0.001000,0.001000
1023.807692,-0.041520,0.001000,0.001000,0.001000,0.001000,0.001000
1023.826923,-0.042167,0.001000,0.001000,0.001000,0.001000,0.001000
1023.846154,-0.042790,0.001000,0.001000,0.001000,0.001000,0.001000
1023.865385,-0.043389,0.001000,0.001000,0.001000,0.001000,0.001000
1023.884615,-0.043964,0.001000,0.001000,0.001000,0.001000,0.001000
1023.903846,-0.044514,0.001000,0.001000,0.001000,0.001000,0.001000
1023.923077,-0.045040,0.001000,0.001000,0.001000,0.001000,0.001000
1023.942308,-0.045540,0.001000,0.001000,0.001000,0.001000,0.001000
1023.961538,-0.046015,0.001000,0.001000,0.001000,0.001000,0.001000
1023.980769,-0.046465,0.001000,0.001000,0.001000,0.001000,0.001000
1024.000000,-0.046888,0.001000,0.001000,0.001000,0.001000,0.001000
1024.019231,-0.047285,0.001000,0.001000,0.001000,0.001000,0.001000
1024.038462,-0.047656,0.001000,0.001000,0.001000,0.001000,0.001000
1024.057692,-0.048000,0.001000,0.001000,0.001000,0.001000,0.001000
1024.076923,-0.048318,0.001000,0.001000,0.001000,0.001000,0.001000
1024.096154,-0.048608,0.001000,0.001000,0.001000,0.001000,0.001000
1024.115385,-0.048871,0.001000,0.001000,0.001000,0.001000,0.001000
1024.134615,-0.049107,0.001000,0.001000,0.001000,0.001000,0.001000
1024.153846,-0.049316,0.001000,0.001000,0.001000,0.001000,0.001000
1024.173077,-0.049497,0.001000,0.001000,0.001000,0.001000,0.001000
1024.192308,-0.049650,0.001000,0.001000,0.001000,0.001000,0.001000
1024.211538,-0.049776,0.001000,0.001000,0.001000,0.001000,0.001000
1024.230769,-0.049874,0.001000,0.001000,0.001000,0.001000,0.001000
1024.250000,-0.049944,0.001000,0.001000,0.001000,0.001000,0.001000
1024.269231,-0.049986,0.001000,0.001000,0.001000,0.001000,0.001000
1024.288462,-0.050000,0.001000,0.001000,0.001000,0.001000,0.001000
1024.307692,-0.049986,0.001000,0.001000,0.001000,0.001000,0.001000
1024.326923,-0.049945,0.001000,0.001000,0.001000,0.001000,0.001000
1024.346154,-0.049875,0.001000,0.001000,0.001000,0.001000,0.001000
1024.365385,-0.049778,0.001000,0.001000,0.001000,0.001000,0.001000
1024.384615,-0.049653,0.001000,0.001000,0.001000,0.001000,0.001000
1024.403846,-0.049500,0.001000,0.001000,0.001000,0.001000,0.001000
1024.423077,-0.049319,0.001000,0.001000,0.001000,0.001000,0.001000
1024.442308,-0.049111,0.001000,0.001000,0.001000,0.001000,0.001000
1024.461538,-0.048876,0.001000,0.001000,0.001000,0.001000,0.001000
1024.480769,-0.048613,0.001000,0.001000,0.001000,0.001000,0.001000
1024.500000,-0.048323,0.001000,0.001000,0.001000,0.001000,0.001000
1024.519231,-0.048006,0.001000,0.001000,0.001000,0.001000,0.001000
1024.538462,-0.047663,0.001000,0.001000,0.001000,0.001000,0.001000
1024.557692,-0.047292,0.001000,0.001000,0.001000,0.001000,0.001000
1024.576923,-0.046896,0.001000,0.001000,0.001000,0.001000,0.001000
1024.596154,-0.046473,0.001000,0.001000,0.001000,0.001000,0.001000
1024.615385,-0.046024,0.001000,0.001000,0.001000,0.001000,0.001000
1024.634615,-0.045549,0.001000,0.001000,0.001000,0.001000,0.001000
1024.653846,-0.045049,0.001000,0.001000,0.001000,0.001000,0.001000
1024.673077,-0.044524,0.001000,0.001000,0.001000,0.001000,0.001000
1024.692308,-0.043974,0.001000,0.001000,0.001000,0.001000,0.001000
1024.711538,-0.043400,0.001000,0.001000,0.001000,0.001000,0.001000
1024.730769,-0.042801,0.001000,0.001000,0.001000,0.001000,0.001000
1024.750000,-0.042178,0.001000,0.001000,0.001000,0.001000,0.001000
1024.769231,-0.041532,0.001000,0.001000,0.001000,0.001000,0.001000
1024.788462,-0.040863,0.001000,0.001000,0.001000,0.001000,0.001000
1024.807692,-0.040170,0.001000,0.001000,0.001000,0.001000,0.001000
1024.826923,-0.039456,0.001000,0.001000,0.001000,0.001000,0.001000
1024.846154,-0.038719,0.001000,0.001000,0.001000,0.001000,0.001000
1024.865385,-0.037961,0.001000,0.001000,0.001000,0.001000,0.001000
1024.884615,-0.037181,0.001000,0.001000,0.001000,0.001000,0.001000
1024.903846,-0.036381,0.001000,0.001000,0.001000,0.001000,0.001000
1024.923077,-0.035560,0.001000,0.001000,0.001000,0.001000,0.001000
1024.942308,-0.034720,0.001000,0.001000,0.001000,0.001000,0.001000
1024.961538,-0.033860,0.001000,0.001000,0.001000,0.001000,0.001000
1024.980769,-0.032981,0.001000,0.001000,0.001000,0.001000,0.001000
1025.000000,-0.032084,0.001000,0.001000,0.001000,0.001000,0.001000
1025.019231,-0.031169,0.001000,0.001000,0.001000,0.001000,0.001000
1025.038462,-0.030237,0.001000,0.001000,0.001000,0.001000,0.001000
1025.057692,-0.029287,0.001000,0.001000,0.001000,0.001000,0.001000
1025.076923,-0.028322,0.001000,0.001000,0.001000,0.001000,0.001000
1025.096154,-0.027340,0.001000,0.001000,0.001000,0.001000,0.001000
1025.115385,-0.026343,0.001000,0.001000,0.001000,0.001000,0.001000
1025.134615,-0.025332,0.001000,0.001000,0.001000,0.001000,0.001000
1025.153846,-0.024306,0.001000,0.001000,0.001000,0.001000,0.001000
1025.173077,-0.023267,0.001000,0.001000,0.001000,0.001000,0.001000
1025.192308,-0.022215,0.001000,0.001000,0.001000,0.001000,0.001000
1025.211538,-0.021150,0.001000,0.001000,0.001000,0.001000,0.001000
1025.230769,-0.020074,0.001000,0.001000,0.001000,0.001000,0.001000
1025.250000,-0.018986,0.001000,0.001000,0.001000,0.001000,0.001000
1025.269231,-0.017888,0.001000,0.001000,0.001000,0.001000,0.001000
1025.288462,-0.016780,0.001000,0.001000,0.001000,0.001000,0.001000
1025.307692,-0.015662,0.001000,0.001000,0.001000,0.001000,0.001000
1025.326923,-0.014536,0.001000,0.001000,0.001000,0.001000,0.001000
1025.346154,-0.013402,0.001000,0.001000,0.001000,0.001000,0.001000
1025.365385,-0.012260,0.001000,0.001000,0.001000,0.001000,0.001000
1025.384615,-0.011111,0.001000,0.001000,0.001000,0.001000,0.001000
1025.403846,-0.009956,0.001000,0.001000,0.001000,0.001000,0.001000
1025.423077,-0.008795,0.001000,0.001000,0.001000,0.001000,0.001000
1025.442308,-0.007630,0.001000,0.001000,0.001000,0.001000,0.001000
1025.461538,-0.006460,0.001000,0.001000,0.001000,0.001000,0.001000
1025.480769,-0.005287,0.001000,0.001000,0.001000,0.001000,0.001000
1025.500000,-0.004111,0.001000,0.001000,0.001000,0.001000,0.001000
1025.519231,-0.002932,0.001000,0.001000,0.001000,0.001000,0.001000
1025.538462,-0.001752,0.001000,0.001000,0.001000,0.001000,0.001000
1025.557692,-0.000571,0.001000,0.001000,0.001000,0.001000,0.001000
1025.576923,0.000611,0.001000,0.001000,0.001000,0.001000,0.001000
1025.596154,0.001792,0.001000,0.001000,0.001000,0.001000,0.001000
1025.615385,0.002972,0.001000,0.001000,0.001000,0.001000,0.001000
1025.634615,0.004150,0.001000,0.001000,0.001000,0.001000,0.001000
1025.653846,0.005327,0.001000,0.001000,0.001000,0.001000,0.001000
1025.673077,0.006500,0.001000,0.001000,0.001000,0.001000,0.001000
1025.692308,0.007669,0.001000,0.001000,0.001000,0.001000,0.001000
1025.711538,0.008835,0.001000,0.001000,0.001000,0.001000,0.001000
1025.730769,0.009995,0.001000,0.001000,0.001000,0.001000,0.001000
1025.750000,0.011150,0.001000,0.001000,0.001000,0.001000,0.001000
1025.769231,0.012298,0.001000,0.001000,0.001000,0.001000,0.001000
1025.788462,0.013440,0.001000,0.001000,0.001000,0.001000,0.001000
1025.807692,0.014574,0.001000,0.001000,0.001000,0.001000,0.001000
1025.826923,0.015700,0.001000,0.001000,0.001000,0.001000,0.001000
1025.846154,0.016817,0.001000,0.001000,0.001000,0.001000,0.001000
1025.865385,0.017925,0.001000,0.001000,0.001000,0.001000,0.001000
1025.884615,0.019023,0.001000,0.001000,0.001000,0.001000,0.001000
1025.903846,0.020110,0.001000,0.001000,0.001000,0.001000,0.001000
1025.923077,0.021186,0.001000,0.001000,0.001000,0.001000,0.001000
1025.942308,0.022251,0.001000,0.001000,0.001000,0.001000,0.001000
1025.961538,0.023302,0.001000,0.001000,0.001000,0.001000,0.001000
1025.980769,0.024341,0.001000,0.001000,0.001000,0.001000,0.001000
1026.000000,0.025366,0.001000,0.001000,0.001000,0.001000,0.001000
1026.019231,0.026377,0.001000,0.001000,0.001000,0.001000,0.001000
1026.038462,0.027373,0.001000,0.001000,0.001000,0.001000,0.001000
1026.057692,0.028354,0.001000,0.001000,0.001000,0.001000,0.001000
1026.076923,0.029320,0.001000,0.001000,0.001000,0.001000,0.001000
1026.096154,0.030268,0.001000,0.001000,0.001000,0.001000,0.001000
1026.115385,0.031200,0.001000,0.001000,0.001000,0.001000,0.001000
1026.134615,0.032115,0.001000,0.001000,0.001000,0.001000,0.001000
1026.153846,0.033011,0.001000,0.001000,0.001000,0.001000,0.001000
1026.173077,0.033889,0.001000,0.001000,0.001000,0.001000,0.001000
1026.192308,0.034749,0.001000,0.001000,0.001000,0.001000,0.001000
1026.211538,0.035588,0.001000,0.001000,0.001000,0.001000,0.001000
1026.230769,0.036408,0.001000,0.001000,0.001000,0.001000,0.001000
1026.250000,0.037208,0.001000,0.001000,0.001000,0.001000,0.001000
1026.269231,0.037987,0.001000,0.001000,0.001000,0.001000,0.001000
1026.288462,0.038744,0.001000,0.001000,0.001000,0.001000,0.001000
1026.307692,0.039480,0.001000,0.001000,0.001000,0.001000,0.001000
1026.326923,0.040194,0.001000,0.001000,0.001000,0.001000,0.001000
1026.346154,0.040885,0.001000,0.001000,0.001000,0.001000,0.001000
1026.365385,0.041554,0.001000,0.001000,0.001000,0.001000,0.001000
1026.384615,0.042200,0.001000,0.001000,0.001000,0.001000,0.001000
1026.403846,0.042821,0.001000,0.001000,0.001000,0.001000,0.001000
1026.423077,0.043419,0.001000,0.001000,0.001000,0.001000,0.001000
1026.442308,0.043993,0.001000,0.001000,0.001000,0.001000,0.001000
1026.461538,0.044542,0.001000,0.001000,0.001000,0.001000,0.001000
1026.480769,0.045067,0.001000,0.001000,0.001000,0.001000,0.001000
1026.500000,0.045566,0.001000,0.001000,0.001000,0.001000,0.001000
1026.519231,0.046039,0.001000,0.001000,0.001000,0.001000,0.001000
1026.538462,0.046487,0.001000,0.001000,0.001000,0.001000,0.001000
1026.557692,0.046909,0.001000,0.001000,0.001000,0.001000,0.001000
1026.576923,0.047305,0.001000,0.001000,0.001000,0.001000,0.001000
1026.596154,0.047675,0.001000,0.001000,0.001000,0.001000,0.001000
1026.615385,0.048017,0.001000,0.001000,0.001000,0.001000,0.001000
1026.634615,0.048333,0.001000,0.001000,0.001000,0.001000,0.001000
1026.653846,0.048622,0.001000,0.001000,0.001000,0.001000,0.001000
1026.673077,0.048884,0.001000,0.001000,0.001000,0.001000,0.001000
1026.692308,0.049119,0.001000,0.001000,0.001000,0.001000,0.001000
1026.711538,0.049326,0.001000,0.001000,0.001000,0.001000,0.001000
1026.730769,0.049505,0.001000,0.001000,0.001000,0.001000,0.001000
1026.750000,0.049657,0.001000,0.001000,0.001000,0.001000,0.001000
1026.769231,0.049782,0.001000,0.001000,0.001000,0.001000,0.001000
1026.788462,0.049878,0.001000,0.001000,0.001000,0.001000,0.001000
1026.807692,0.049947,0.001000,0.001000,0.001000,0.001000,0.001000
1026.826923,0.049987,0.001000,0.001000,0.001000,0.001000,0.001000
1026.846154,0.050000,0.001000,0.001000,0.001000,0.001000,0.001000
1026.865385,0.049985,0.001000,0.001000,0.001000,0.001000,0.001000
1026.884615,0.049942,0.001000,0.001000,0.001000,0.001000,0.001000
1026.903846,0.049871,0.001000,0.001000,0.001000,0.001000,0.001000
1026.923077,0.049772,0.001000,0.001000,0.001000,0.001000,0.001000
1026.942308,0.049645,0.001000,0.001000,0.001000,0.001000,0.001000
1026.961538,0.049491,0.001000,0.001000,0.001000,0.001000,0.001000
1026.980769,0.049309,0.001000,0.001000,0.001000,0.001000,0.001000
1027.000000,0.049100,0.001000,0.001000,0.001000,0.001000,0.001000
1027.019231,0.048863,0.001000,0.001000,0.001000,0.001000,0.001000
1027.038462,0.048599,0.001000,0.001000,0.001000,0.001000,0.001000
1027.057692,0.048307,0.001000,0.001000,0.001000,0.001000,0.001000
1027.076923,0.047989,0.001000,0.001000,0.001000,0.001000,0.001000
1027.096154,0.047644,0.001000,0.001000,0.001000,0.001000,0.001000
1027.115385,0.047272,0.001000,0.001000,0.001000,0.001000,0.001000
1027.134615,0.046874,0.001000,0.001000,0.001000,0.001000,0.001000
1027.153846,0.046450,0.001000,0.001000,0.001000,0.001000,0.001000
1027.173077,0.046000,0.001000,0.001000,0.001000,0.001000,0.001000
1027.192308,0.045524,0.001000,0.001000,0.001000,0.001000,0.001000
1027.211538,0.045023,0.001000,0.001000,0.001000,0.001000,0.001000
1027.230769,0.044496,0.001000,0.001000,0.001000,0.001000,0.001000
1027.250000,0.043945,0.001000,0.001000,0.001000,0.001000,0.001000
1027.269231,0.043369,0.001000,0.001000,0.001000,0.001000,0.001000
1027.288462,0.042769,0.001000,0.001000,0.001000,0.001000,0.001000
1027.307692,0.042145,0.001000,0.001000,0.001000,0.001000,0.001000
1027.326923,0.041498,0.001000,0.001000,0.001000,0.001000,0.001000
1027.346154,0.040827,0.001000,0.001000,0.001000,0.001000,0.001000
1027.365385,0.040134,0.001000,0.001000,0.001000,0.001000,0.001000
1027.384615,0.039418,0.001000,0.001000,0.001000,0.001000,0.001000
1027.403846,0.038680,0.001000,0.001000,0.001000,0.001000,0.001000
1027.423077,0.037921,0.001000,0.001000,0.001000,0.001000,0.001000
1027.442308,0.037140,0.001000,0.001000,0.001000,0.001000,0.001000
1027.461538,0.036339,0.001000,0.001000,0.001000,0.001000,0.001000
1027.480769,0.035517,0.001000,0.001000,0.001000,0.001000,0.001000
1027.500000,0.034676,0.001000,0.001000,0.001000,0.001000,0.001000
1027.519231,0.033815,0.001000,0.001000,0.001000,0.001000,0.001000
1027.538462,0.032935,0.001000,0.001000,0.001000,0.001000,0.001000
1027.557692,0.032037,0.001000,0.001000,0.001000,0.001000,0.001000
1027.576923,0.031121,0.001000,0.001000,0.001000,0.001000,0.001000
1027.596154,0.030188,0.001000,0.001000,0.001000,0.001000,0.001000
1027.615385,0.029238,0.001000,0.001000,0.001000,0.001000,0.001000
1027.634615,0.028271,0.001000,0.001000,0.001000,0.001000,0.001000
1027.653846,0.027289,0.001000,0.001000,0.001000,0.001000,0.001000
1027.673077,0.026291,0.001000,0.001000,0.001000,0.001000,0.001000
1027.692308,0.025279,0.001000,0.001000,0.001000,0.001000,0.001000
1027.711538,0.024253,0.001000,0.001000,0.001000,0.001000,0.001000
1027.730769,0.023213,0.001000,0.001000,0.001000,0.001000,0.001000
1027.750000,0.022160,0.001000,0.001000,0.001000,0.001000,0.001000
1027.769231,0.021095,0.001000,0.001000,0.001000,0.001000,0.001000
1027.788462,0.020018,0.001000,0.001000,0.001000,0.001000,0.001000
1027.807692,0.018930,0.001000,0.001000,0.001000,0.001000,0.001000
1027.826923,0.017831,0.001000,0.001000,0.001000,0.001000,0.001000
1027.846154,0.016722,0.001000,0.001000,0.001000,0.001000,0.001000
1027.865385,0.015604,0.001000,0.001000,0.001000,0.001000,0.001000
1027.884615,0.014478,0.001000,0.001000,0.001000,0.001000,0.001000
1027.903846,0.013343,0.001000,0.001000,0.001000,0.001000,0.001000
1027.923077,0.012200,0.001000,0.001000,0.001000,0.001000,0.001000
1027.942308,0.011051,0.001000,0.001000,0.001000,0.001000,0.001000
1027.961538,0.009896,0.001000,0.001000,0.001000,0.001000,0.001000
1027.980769,0.008735,0.001000,0.001000,0.001000,0.001000,0.001000
1028.000000,0.007570,0.001000,0.001000,0.001000,0.001000,0.001000
1028.019231,0.006400,0.001000,0.001000,0.001000,0.001000,0.001000
1028.038462,0.005226,0.001000,0.001000,0.001000,0.001000,0.001000
1028.057692,0.004050,0.001000,0.001000,0.001000,0.001000,0.001000
1028.076923,0.002871,0.001000,0.001000,0.001000,0.001000,0.001000
1028.096154,0.001691,0.001000,0.001000,0.001000,0.001000,0.001000
1028.115385,0.000510,0.001000,0.001000,0.001000,0.001000,0.001000
1028.134615,-0.000672,0.001000,0.001000,0.001000,0.001000,0.001000
1028.153846,-0.001853,0.001000,0.001000,0.001000,0.001000,0.001000
1028.173077,-0.003033,0.001000,0.001000,0.001000,0.001000,0.001000
1028.192308,-0.004211,0.001000,0.001000,0.001000,0.001000,0.001000
1028.211538,-0.005387,0.001000,0.001000,0.001000,0.001000,0.001000
1028.230769,-0.006560,0.001000,0.001000,0.001000,0.001000,0.001000
1028.250000,-0.007730,0.001000,0.001000,0.001000,0.001000,0.001000
1028.269231,-0.008895,0.001000,0.001000,0.001000,0.001000,0.001000
1028.288462,-0.010055,0.001000,0.001000,0.001000,0.001000,0.001000
1028.307692,-0.011209,0.001000,0.001000,0.001000,0.001000,0.001000
1028.326923,-0.012357,0.001000,0.001000,0.001000,0.001000,0.001000
1028.346154,-0.013499,0.001000,0.001000,0.001000,0.001000,0.001000
1028.365385,-0.014632,0.001000,0.001000,0.001000,0.001000,0.001000
1028.384615,-0.015758,0.001000,0.001000,0.001000,0.001000,0.001000
1028.403846,-0.016875,0.001000,0.001000,0.001000,0.001000,0.001000
1028.423077,-0.017982,0.001000,0.001000,0.001000,0.001000,0.001000
1028.442308,-0.019080,0.001000,0.001000,0.001000,0.001000,0.001000
1028.461538,-0.020166,0.001000,0.001000,0.001000,0.001000,0.001000
1028.480769,-0.021242,0.001000,0.001000,0.001000,0.001000,0.001000
1028.500000,-0.022305,0.001000,0.001000,0.001000,0.001000,0.001000
1028.519231,-0.023356,0.001000,0.001000,0.001000,0.001000,0.001000
1028.538462,-0.024394,0.001000,0.001000,0.001000,0.001000,0.001000
1028.557692,-0.025419,0.001000,0.001000,0.001000,0.001000,0.001000
1028.576923,-0.026429,0.001000,0.001000,0.001000,0.001000,0.001000
1028.596154,-0.027425,0.001000,0.001000,0.001000,0.001000,0.001000
1028.615385,-0.028405,0.001000,0.001000,0.001000,0.001000,0.001000
1028.634615,-0.029369,0.001000,0.001000,0.001000,0.001000,0.001000
1028.653846,-0.030317,0.001000,0.001000,0.001000,0.001000,0.001000
1028.673077,-0.031248,0.001000,0.001000,0.001000,0.001000,0.001000
1028.692308,-0.032161,0.001000,0.001000,0.001000,0.001000,0.001000
1028.711538,-0.033057,0.001000,0.001000,0.001000,0.001000,0.001000
1028.730769,-0.033934,0.001000,0.001000,0.001000,0.001000,0.001000
1028.750000,-0.034792,0.001000,0.001000,0.001000,0.001000,0.001000
1028.769231,-0.035631,0.001000,0.001000,0.001000,0.001000,0.001000
1028.788462,-0.036450,0.001000,0.001000,0.001000,0.001000,0.001000
1028.807692,-0.037249,0.001000,0.001000,0.001000,0.001000,0.001000
1028.826923,-0.038026,0.001000,0.001000,0.001000,0.001000,0.001000
1028.846154,-0.038783,0.001000,0.001000,0.001000,0.001000,0.001000
1028.865385,-0.039518,0.001000,0.001000,0.001000,0.001000,0.001000
1028.884615,-0.040230,0.001000,0.001000,0.001000,0.001000,0.001000
1028.903846,-0.040921,0.001000,0.001000,0.001000,0.001000,0.001000
1028.923077,-0.041588,0.001000,0.001000,0.001000,0.001000,0.001000
1028.942308,-0.042232,0.001000,0.001000,0.001000,0.001000,0.001000
1028.961538,-0.042853,0.001000,0.001000,0.001000,0.001000,0.001000
1028.980769,-0.043450,0.001000,0.001000,0.001000,0.001000,0.001000
1029.000000,-0.044022,0.001000,0.001000,0.001000,0.001000,0.001000
1029.019231,-0.044570,0.001000,0.001000,0.001000,0.001000,0.001000
1029.038462,-0.045093,0.001000,0.001000,0.001000,0.001000,0.001000
1029.057692,-0.045591,0.001000,0.001000,0.001000,0.001000,0.001000
1029.076923,-0.046063,0.001000,0.001000,0.001000,0.001000,0.001000
1029.096154,-0.046510,0.001000,0.001000,0.001000,0.001000,0.001000
1029.115385,-0.046930,0.001000,0.001000,0.001000,0.001000,0.001000
1029.134615,-0.047325,0.001000,0.001000,0.001000,0.001000,0.001000
1029.153846,-0.047693,0.001000,0.001000,0.001000,0.001000,0.001000
1029.173077,-0.048034,0.001000,0.001000,0.001000,0.001000,0.001000
1029.192308,-0.048349,0.001000,0.001000,0.001000,0.001000,0.001000
1029.211538,-0.048636,0.001000,0.001000,0.001000,0.001000,0.001000
1029.230769,-0.048897,0.001000,0.001000,0.001000,0.001000,0.001000
1029.250000,-0.049130,0.001000,0.001000,0.001000,0.001000,0.001000
1029.269231,-0.049336,0.001000,0.001000,0.001000,0.001000,0.001000
1029.288462,-0.049514,0.001000,0.001000,0.001000,0.001000,0.001000
1029.307692,-0.049664,0.001000,0.001000,0.001000,0.001000,0.001000
1029.326923,-0.049787,0.001000,0.001000,0.001000,0.001000,0.001000
1029.346154,-0.049882,0.001000,0.001000,0.001000,0.001000,0.001000
1029.365385,-0.049949,0.001000,0.001000,0.001000,0.001000,0.001000
1029.384615,-0.049989,0.001000,0.001000,0.001000,0.001000,0.001000
1029.403846,-0.050000,0.001000,0.001000,0.001000,0.001000,0.001000
1029.423077,-0.049983,0.001000,0.001000,0.001000,0.001000,0.001000
1029.442308,-0.049939,0.001000,0.001000,0.001000,0.001000,0.001000
1029.461538,-0.049866,0.001000,0.001000,0.001000,0.001000,0.001000
1029.480769,-0.049766,0.001000,0.001000,0.001000,0.001000,0.001000
1029.500000,-0.049638,0.001000,0.001000,0.001000,0.001000,0.001000
1029.519231,-0.049482,0.001000,0.001000,0.001000,0.001000,0.001000
1029.538462,-0.049299,0.001000,0.001000,0.001000,0.001000,0.001000
1029.557692,-0.049088,0.001000,0.001000,0.001000,0.001000,0.001000
1029.576923,-0.048850,0.001000,0.001000,0.001000,0.001000,0.001000
1029.596154,-0.048584,0.001000,0.001000,0.001000,0.001000,0.001000
1029.615385,-0.048292,0.001000,0.001000,0.001000,0.001000,0.001000
1029.634615,-0.047972,0.001000,0.001000,0.001000,0.001000,0.001000
1029.653846,-0.047625,0.001000,0.001000,0.001000,0.001000,0.001000
1029.673077,-0.047252,0.001000,0.001000,0.001000,0.001000,0.001000
1029.692308,-0.046853,0.001000,0.001000,0.001000,0.001000,0.001000
1029.711538,-0.046427,0.001000,0.001000,0.001000,0.001000,0.001000
1029.730769,-0.045976,0.001000,0.001000,0.001000,0.001000,0.001000
1029.750000,-0.045499,0.001000,0.001000,0.001000,0.001000,0.001000
1029.769231,-0.044996,0.001000,0.001000,0.001000,0.001000,0.001000
1029.788462,-0.044468,0.001000,0.001000,0.001000,0.001000,0.001000
1029.807692,-0.043916,0.001000,0.001000,0.001000,0.001000,0.001000
1029.826923,-0.043339,0.001000,0.001000,0.001000,0.001000,0.001000
1029.846154,-0.042738,0.001000,0.001000,0.001000,0.001000,0.001000
1029.865385,-0.042112,0.001000,0.001000,0.001000,0.001000,0.001000
1029.884615,-0.041464,0.001000,0.001000,0.001000,0.001000,0.001000
1029.903846,-0.040792,0.001000,0.001000,0.001000,0.001000,0.001000
1029.923077,-0.040097,0.001000,0.001000,0.001000,0.001000,0.001000
1029.942308,-0.039381,0.001000,0.001000,0.001000,0.001000,0.001000
1029.961538,-0.038642,0.001000,0.001000,0.001000,0.001000,0.001000
1029.980769,-0.037881,0.001000,0.001000,0.001000,0.001000,0.001000
1030.000000,0.000000,0.001000,0.001000,0.001000,0.001000,0.001000
1030.019231,0.001175,0.001000,0.001000,0.001000,0.001000,0.001000
1030.038462,0.002350,0.001000,0.001000,0.001000,0.001000,0.001000
1030.057692,0.003524,0.001000,0.001000,0.001000,0.001000,0.001000
1030.076923,0.004695,0.001000,0.001000,0.001000,0.001000,0.001000
1030.096154,0.005864,0.001000,0.001000,0.001000,0.001000,0.001000
1030.115385,0.007030,0.001000,0.001000,0.001000,0.001000,0.001000
1030.134615,0.008191,0.001000,0.001000,0.001000,0.001000,0.001000
1030.153846,0.009349,0.001000,0.001000,0.001000,0.001000,0.001000
1030.173077,0.010501,0.001000,0.001000,0.001000,0.001000,0.001000
1030.192308,0.011647,0.001000,0.001000,0.001000,0.001000,0.001000
1030.211538,0.012787,0.001000,0.001000,0.001000,0.001000,0.001000
1030.230769,0.013920,0.001000,0.001000,0.001000,0.001000,0.001000
1030.250000,0.015045,0.001000,0.001000,0.001000,0.001000,0.001000
1030.269231,0.016162,0.001000,0.001000,0.001000,0.001000,0.001000
1030.288462,0.017269,0.001000,0.001000,0.001000,0.001000,0.001000
1030.307692,0.018368,0.001000,0.001000,0.001000,0.001000,0.001000
1030.326923,0.019456,0.001000,0.001000,0.001000,0.001000,0.001000
1030.346154,0.020533,0.001000,0.001000,0.001000,0.001000,0.001000
1030.365385,0.021599,0.001000,0.001000,0.001000,0.001000,0.001000
1030.384615,0.022653,0.001000,0.001000,0.001000,0.001000,0.001000
1030.403846,0.023695,0.001000,0.001000,0.001000,0.001000,0.001000
1030.423077,0.024723,0.001000,0.001000,0.001000,0.001000,0.001000
1030.442308,0.025738,0.001000,0.001000,0.001000,0.001000,0.001000
1030.461538,0.026739,0.001000,0.001000,0.001000,0.001000,0.001000
1030.480769,0.027725,0.001000,0.001000,0.001000,0.001000,0.001000
1030.500000,0.028695,0.001000,0.001000,0.001000,0.001000,0.001000
1030.519231,0.029650,0.001000,0.001000,0.001000,0.001000,0.001000
1030.538462,0.030588,0.001000,0.001000,0.001000,0.001000,0.001000
1030.557692,0.031509,0.001000,0.001000,0.001000,0.001000,0.001000
1030.576923,0.032413,0.001000,0.001000,0.001000,0.001000,0.001000
1030.596154,0.033299,0.001000,0.001000,0.001000,0.001000,0.001000
1030.615385,0.034167,0.001000,0.001000,0.001000,0.001000,0.001000
1030.634615,0.035016,0.001000,0.001000,0.001000,0.001000,0.001000
1030.653846,0.035845,0.001000,0.001000,0.001000,0.001000,0.001000
1030.673077,0.036655,0.001000,0.001000,0.001000,0.001000,0.001000
1030.692308,0.037444,0.001000,0.001000,0.001000,0.001000,0.001000
1030.711538,0.038213,0.001000,0.001000,0.001000,0.001000,0.001000
1030.730769,0.038960,0.001000,0.001000,0.001000,0.001000,0.001000
1030.750000,0.039686,0.001000,0.001000,0.001000,0.001000,0.001000
1030.769231,0.040390,0.001000,0.001000,0.001000,0.001000,0.001000
1030.788462,0.041072,0.001000,0.001000,0.001000,0.001000,0.001000
1030.807692,0.041731,0.001000,0.001000,0.001000,0.001000,0.001000
1030.826923,0.042367,0.001000,0.001000,0.001000,0.001000,0.001000
1030.846154,0.042979,0.001000,0.001000,0.001000,0.001000,0.001000
1030.865385,0.043568,0.001000,0.001000,0.001000,0.001000,0.001000
1030.884615,0.044132,0.001000,0.001000,0.001000,0.001000,0.001000
1030.903846,0.044673,0.001000,0.001000,0.001000,0.001000,0.001000
1030.923077,0.045188,0.001000,0.001000,0.001000,0.001000,0.001000
1030.942308,0.045679,0.001000,0.001000,0.001000,0.001000,0.001000
1030.961538,0.046144,0.001000,0.001000,0.001000,0.001000,0.001000
1030.980769,0.046584,0.001000,0.001000,0.001000,0.001000,0.001000
1031.000000,0.046998,0.001000,0.001000,0.001000,0.001000,0.001000
1031.019231,0.047386,0.001000,0.001000,0.001000,0.001000,0.001000
1031.038462,0.047748,0.001000,0.001000,0.001000,0.001000,0.001000
1031.057692,0.048084,0.001000,0.001000,0.001000,0.001000,0.001000
1031.076923,0.048393,0.001000,0.001000,0.001000,0.001000,0.001000
1031.096154,0.048675,0.001000,0.001000,0.001000,0.001000,0.001000
1031.115385,0.048930,0.001000,0.001000,0.001000,0.001000,0.001000
1031.134615,0.049159,0.001000,0.001000,0.001000,0.001000,0.001000
1031.153846,0.049360,0.001000,0.001000,0.001000,0.001000,0.001000
1031.173077,0.049534,0.001000,0.001000,0.001000,0.001000,0.001000
1031.192308,0.049680,0.001000,0.001000,0.001000,0.001000,0.001000
1031.211538,0.049799,0.001000,0.001000,0.001000,0.001000,0.001000
1031.230769,0.049891,0.001000,0.001000,0.001000,0.001000,0.001000
1031.250000,0.049955,0.001000,0.001000,0.001000,0.001000,0.001000
1031.269231,0.049991,0.001000,0.001000,0.001000,0.001000,0.001000
1031.288462,0.050000,0.001000,0.001000,0.001000,0.001000,0.001000
1031.307692,0.049981,0.001000,0.001000,0.001000,0.001000,0.001000
1031.326923,0.049934,0.001000,0.001000,0.001000,0.001000,0.001000
1031.346154,0.049860,0.001000,0.001000,0.001000,0.001000,0.001000
1031.365385,0.049758,0.001000,0.001000,0.001000,0.001000,0.001000
1031.384615,0.049629,0.001000,0.001000,0.001000,0.001000,0.001000
1031.403846,0.049472,0.001000,0.001000,0.001000,0.001000,0.001000
1031.423077,0.049288,0.001000,0.001000,0.001000,0.001000,0.001000
1031.442308,0.049077,0.001000,0.001000,0.001000,0.001000,0.001000
1031.461538,0.048838,0.001000,0.001000,0.001000,0.001000,0.001000
1031.480769,0.048573,0.001000,0.001000,0.001000,0.001000,0.001000
1031.500000,0.048281,0.001000,0.001000,0.001000,0.001000,0.001000
1031.519231,0.047962,0.001000,0.001000,0.001000,0.001000,0.001000
1031.538462,0.047616,0.001000,0.001000,0.001000,0.001000,0.001000
1031.557692,0.047245,0.001000,0.001000,0.001000,0.001000,0.001000
1031.576923,0.046847,0.001000,0.001000,0.001000,0.001000,0.001000
1031.596154,0.046423,0.001000,0.001000,0.001000,0.001000,0.001000
1031.615385,0.045974,0.001000,0.001000,0.001000,0.001000,0.001000
1031.634615,0.045499,0.001000,0.001000,0.001000,0.001000,0.001000
1031.653846,0.044999,0.001000,0.001000,0.001000,0.001000,0.001000
1031.673077,0.044474,0.001000,0.001000,0.001000,0.001000,0.001000
1031.692308,0.043925,0.001000,0.001000,0.001000,0.001000,0.001000
1031.711538,0.043351,0.001000,0.001000,0.001000,0.001000,0.001000
1031.730769,0.042753,0.001000,0.001000,0.001000,0.001000,0.001000
1031.750000,0.042132,0.001000,0.001000,0.001000,0.001000,0.001000
1031.769231,0.041487,0.001000,0.001000,0.001000,0.001000,0.001000
1031.788462,0.040820,0.001000,0.001000,0.001000,0.001000,0.001000
1031.807692,0.040130,0.001000,0.001000,0.001000,0.001000,0.001000
1031.826923,0.039417,0.001000,0.001000,0.001000,0.001000,0.001000
1031.846154,0.038683,0.001000,0.001000,0.001000,0.001000,0.001000
1031.865385,0.037928,0.001000,0.001000,0.001000,0.001000,0.001000
1031.884615,0.037152,0.001000,0.001000,0.001000,0.001000,0.001000
1031.903846,0.036355,0.001000,0.001000,0.001000,0.001000,0.001000
1031.923077,0.035538,0.001000,0.001000,0.001000,0.001000,0.001000
1031.942308,0.034701,0.001000,0.001000,0.001000,0.001000,0.001000
1031.961538,0.033845,0.001000,0.001000,0.001000,0.001000,0.001000
1031.980769,0.032971,0.001000,0.001000,0.001000,0.001000,0.001000
1032.000000,0.032078,0.001000,0.001000,0.001000,0.001000,0.001000
1032.019231,0.031168,0.001000,0.001000,0.001000,0.001000,0.001000
1032.038462,0.030240,0.001000,0.001000,0.001000,0.001000,0.001000
1032.057692,0.029295,0.001000,0.001000,0.001000,0.001000,0.001000
1032.076923,0.028335,0.001000,0.001000,0.001000,0.001000,0.001000
1032.096154,0.027358,0.001000,0.001000,0.001000,0.001000,0.001000
1032.115385,0.026367,0.001000,0.001000,0.001000,0.001000,0.001000
1032.134615,0.025361,0.001000,0.001000,0.001000,0.001000,0.001000
1032.153846,0.024341,0.001000,0.001000,0.001000,0.001000,0.001000
1032.173077,0.023308,0.001000,0.001000,0.001000,0.001000,0.001000
1032.192308,0.022261,0.001000,0.001000,0.001000,0.001000,0.001000
1032.211538,0.021203,0.001000,0.001000,0.001000,0.001000,0.001000
1032.230769,0.020132,0.001000,0.001000,0.001000,0.001000,0.001000
1032.250000,0.019051,0.001000,0.001000,0.001000,0.001000,0.001000
1032.269231,0.017959,0.001000,0.001000,0.001000,0.001000,0.001000
1032.288462,0.016857,0.001000,0.001000,0.001000,0.001000,0.001000
1032.307692,0.015746,0.001000,0.001000,0.001000,0.001000,0.001000
1032.326923,0.014626,0.001000,0.001000,0.001000,0.001000,0.001000
1032.346154,0.013498,0.001000,0.001000,0.001000,0.001000,0.001000
1032.365385,0.012362,0.001000,0.001000,0.001000,0.001000,0.001000
1032.384615,0.011220,0.001000,0.001000,0.001000,0.001000,0.001000
1032.403846,0.010071,0.001000,0.001000,0.001000,0.001000,0.001000
1032.423077,0.008917,0.001000,0.001000,0.001000,0.001000,0.001000
1032.442308,0.007758,0.001000,0.001000,0.001000,0.001000,0.001000
1032.461538,0.006595,0.001000,0.001000,0.001000,0.001000,0.001000
1032.480769,0.005428,0.001000,0.001000,0.001000,0.001000,0.001000
1032.500000,0.004258,0.001000,0.001000,0.001000,0.001000,0.001000
1032.519231,0.003086,0.001000,0.001000,0.001000,0.001000,0.001000
1032.538462,0.001912,0.001000,0.001000,0.001000,0.001000,0.001000
1032.557692,0.000737,0.001000,0.001000,0.001000,0.001000,0.001000
1032.576923,-0.000439,0.001000,0.001000,0.001000,0.001000,0.001000
1032.596154,-0.001614,0.001000,0.001000,0.001000,0.001000,0.001000
1032.615385,-0.002788,0.001000,0.001000,0.001000,0.001000,0.001000
1032.634615,-0.003961,0.001000,0.001000,0.001000,0.001000,0.001000
1032.653846,-0.005132,0.001000,0.001000,0.001000,0.001000,0.001000
1032.673077,-0.006300,0.001000,0.001000,0.001000,0.001000,0.001000
1032.692308,-0.007464,0.001000,0.001000,0.001000,0.001000,0.001000
1032.711538,-0.008624,0.001000,0.001000,0.001000,0.001000,0.001000
1032.730769,-0.009779,0.001000,0.001000,0.001000,0.001000,0.001000
1032.750000,-0.010929,0.001000,0.001000,0.001000,0.001000,0.001000
1032.769231,-0.012073,0.001000,0.001000,0.001000,0.001000,0.001000
1032.788462,-0.013211,0.001000,0.001000,0.001000,0.001000,0.001000
1032.807692,-0.014341,0.001000,0.001000,0.001000,0.001000,0.001000
1032.826923,-0.015463,0.001000,0.001000,0.001000,0.001000,0.001000
1032.846154,-0.016576,0.001000,0.001000,0.001000,0.001000,0.001000
1032.865385,-0.017681,0.001000,0.001000,0.001000,0.001000,0.001000
1032.884615,-0.018775,0.001000,0.001000,0.001000,0.001000,0.001000
1032.903846,-0.019859,0.001000,0.001000,0.001000,0.001000,0.001000
1032.923077,-0.020933,0.001000,0.001000,0.001000,0.001000,0.001000
1032.942308,-0.021994,0.001000,0.001000,0.001000,0.001000,0.001000
1032.961538,-0.023044,0.001000,0.001000,0.001000,0.001000,0.001000
1032.980769,-0.024081,0.001000,0.001000,0.001000,0.001000,0.001000
1033.000000,-0.025104,0.001000,0.001000,0.001000,0.001000,0.001000
1033.019231,-0.026114,0.001000,0.001000,0.001000,0.001000,0.001000
1033.038462,-0.027109,0.001000,0.001000,0.001000,0.001000,0.001000
1033.057692,-0.028089,0.001000,0.001000,0.001000,0.001000,0.001000
1033.076923,-0.029053,0.001000,0.001000,0.001000,0.001000,0.001000
1033.096154,-0.030002,0.001000,0.001000,0.001000,0.001000,0.001000
1033.115385,-0.030934,0.001000,0.001000,0.001000,0.001000,0.001000
1033.134615,-0.031849,0.001000,0.001000,0.001000,0.001000,0.001000
1033.153846,-0.032746,0.001000,0.001000,0.001000,0.001000,0.001000
1033.173077,-0.033625,0.001000,0.001000,0.001000,0.001000,0.001000
1033.192308,-0.034486,0.001000,0.001000,0.001000,0.001000,0.001000
1033.211538,-0.035328,0.001000,0.001000,0.001000,0.001000,0.001000
1033.230769,-0.036150,0.001000,0.001000,0.001000,0.001000,0.001000
1033.250000,-0.036952,0.001000,0.001000,0.001000,0.001000,0.001000
1033.269231,-0.037733,0.001000,0.001000,0.001000,0.001000,0.001000
1033.288462,-0.038494,0.001000,0.001000,0.001000,0.001000,0.001000
1033.307692,-0.039234,0.001000,0.001000,0.001000,0.001000,0.001000
1033.326923,-0.039951,0.001000,0.001000,0.001000,0.001000,0.001000
1033.346154,-0.040647,0.001000,0.001000,0.001000,0.001000,0.001000
1033.365385,-0.041320,0.001000,0.001000,0.001000,0.001000,0.001000
1033.384615,-0.041971,0.001000,0.001000,0.001000,0.001000,0.001000
1033.403846,-0.042598,0.001000,0.001000,0.001000,0.001000,0.001000
1033.423077,-0.043202,0.001000,0.001000,0.001000,0.001000,0.001000
1033.442308,-0.043781,0.001000,0.001000,0.001000,0.001000,0.001000
1033.461538,-0.044337,0.001000,0.001000,0.001000,0.001000,0.001000
1033.480769,-0.044868,0.001000,0.001000,0.001000,0.001000,0.001000
1033.500000,-0.045374,0.001000,0.001000,0.001000,0.001000,0.001000
1033.519231,-0.045856,0.001000,0.001000,0.001000,0.001000,0.001000
1033.538462,-0.046312,0.001000,0.001000,0.001000,0.001000,0.001000
1033.557692,-0.046742,0.001000,0.001000,0.001000,0.001000,0.001000
1033.576923,-0.047146,0.001000,0.001000,0.001000,0.001000,0.001000
1033.596154,-0.047525,0.001000,0.001000,0.001000,0.001000,0.001000
1033.615385,-0.047877,0.001000,0.001000,0.001000,0.001000,0.001000
1033.634615,-0.048202,0.001000,0.001000,0.001000,0.001000,0.001000
1033.653846,-0.048501,0.001000,0.001000,0.001000,0.001000,0.001000
1033.673077,-0.048774,0.001000,0.001000,0.001000,0.001000,0.001000
1033.692308,-0.049019,0.001000,0.001000,0.001000,0.001000,0.001000
1033.711538,-0.049237,0.001000,0.001000,0.001000,0.001000,0.001000
1033.730769,-0.049428,0.001000,0.001000,0.001000,0.001000,0.001000
1033.750000,-0.049592,0.001000,0.001000,0.001000,0.001000,0.001000
1033.769231,-0.049728,0.001000,0.001000,0.001000,0.001000,0.001000
1033.788462,-0.049837,0.001000,0.001000,0.001000,0.001000,0.001000
1033.807692,-0.049918,0.001000,0.001000,0.001000,0.001000,0.001000
1033.826923,-0.049971,0.001000,0.001000,0.001000,0.001000,0.001000
1033.846154,-0.049997,0.001000,0.001000,0.001000,0.001000,0.001000
1033.865385,-0.049996,0.001000,0.001000,0.001000,0.001000,0.001000
1033.884615,-0.049966,0.001000,0.001000,0.001000,0.001000,0.001000
1033.903846,-0.049909,0.001000,0.001000,0.001000,0.001000,0.001000
1033.923077,-0.049825,0.001000,0.001000,0.001000,0.001000,0.001000
1033.942308,-0.049713,0.001000,0.001000,0.001000,0.001000,0.001000
1033.961538,-0.049573,0.001000,0.001000,0.001000,0.001000,0.001000
1033.980769,-0.049407,0.001000,0.001000,0.001000,0.001000,0.001000
1034.000000,-0.049212,0.001000,0.001000,0.001000,0.001000,0.001000
1034.019231,-0.048991,0.001000,0.001000,0.001000,0.001000,0.001000
1034.038462,-0.048742,0.001000,0.001000,0.001000,0.001000,0.001000
1034.057692,-0.048467,0.001000,0.001000,0.001000,0.001000,0.001000
1034.076923,-0.048165,0.001000,0.001000,0.001000,0.001000,0.001000
1034.096154,-0.047836,0.001000,0.001000,0.001000,0.001000,0.001000
1034.115385,-0.047481,0.001000,0.001000,0.001000,0.001000,0.001000
1034.134615,-0.047099,0.001000,0.001000,0.001000,0.001000,0.001000
1034.153846,-0.046692,0.001000,0.001000,0.001000,0.001000,0.001000
1034.173077,-0.046258,0.001000,0.001000,0.001000,0.001000,0.001000
1034.192308,-0.045799,0.001000,0.001000,0.001000,0.001000,0.001000
1034.211538,-0.045315,0.001000,0.001000,0.001000,0.001000,0.001000
1034.230769,-0.044806,0.001000,0.001000,0.001000,0.001000,0.001000
1034.250000,-0.044272,0.001000,0.001000,0.001000,0.001000,0.001000
1034.269231,-0.043713,0.001000,0.001000,0.001000,0.001000,0.001000
1034.288462,-0.043131,0.001000,0.001000,0.001000,0.001000,0.001000
1034.307692,-0.042524,0.001000,0.001000,0.001000,0.001000,0.001000
1034.326923,-0.041894,0.001000,0.001000,0.001000,0.001000,0.001000
1034.346154,-0.041241,0.001000,0.001000,0.001000,0.001000,0.001000
1034.365385,-0.040565,0.001000,0.001000,0.001000,0.001000,0.001000
1034.384615,-0.039866,0.001000,0.001000,0.001000,0.001000,0.001000
1034.403846,-0.039146,0.001000,0.001000,0.001000,0.001000,0.001000
1034.423077,-0.038404,0.001000,0.001000,0.001000,0.001000,0.001000
1034.442308,-0.037641,0.001000,0.001000,0.001000,0.001000,0.001000
1034.461538,-0.036857,0.001000,0.001000,0.001000,0.001000,0.001000
1034.480769,-0.036052,0.001000,0.001000,0.001000,0.001000,0.001000
1034.500000,-0.035228,0.001000,0.001000,0.001000,0.001000,0.001000
1034.519231,-0.034384,0.001000,0.001000,0.001000,0.001000,0.001000
1034.538462,-0.033521,0.001000,0.001000,0.001000,0.001000,0.001000
1034.557692,-0.032640,0.001000,0.001000,0.001000,0.001000,0.001000
1034.576923,-0.031740,0.001000,0.001000,0.001000,0.001000,0.001000
1034.596154,-0.030823,0.001000,0.001000,0.001000,0.001000,0.001000
1034.615385,-0.029889,0.001000,0.001000,0.001000,0.001000,0.001000
1034.634615,-0.028939,0.001000,0.001000,0.001000,0.001000,0.001000
1034.653846,-0.027972,0.001000,0.001000,0.001000,0.001000,0.001000
1034.673077,-0.026990,0.001000,0.001000,0.001000,0.001000,0.001000
