timestamp,ax,ay,az,gx,gy,gz
1000.000000,0.000000,0.001000,0.001000,0.001000,0.001000,0.001000
1000.019231,0.001184,0.001000,0.001000,0.001000,0.001000,0.001000
1000.038462,0.002367,0.001000,0.001000,0.001000,0.001000,0.001000
1000.057692,0.003548,0.001000,0.001000,0.001000,0.001000,0.001000
1000.076923,0.004728,0.001000,0.001000,0.001000,0.001000,0.001000
1000.096154,0.005905,0.001000,0.001000,0.001000,0.001000,0.001000
1000.115385,0.007079,0.001000,0.001000,0.001000,0.001000,0.001000
1000.134615,0.008249,0.001000,0.001000,0.001000,0.001000,0.001000
1000.153846,0.009414,0.001000,0.001000,0.001000,0.001000,0.001000
1000.173077,0.010574,0.001000,0.001000,0.001000,0.001000,0.001000
1000.192308,0.011728,0.001000,0.001000,0.001000,0.001000,0.001000
1000.211538,0.012875,0.001000,0.001000,0.001000,0.001000,0.001000
1000.230769,0.014015,0.001000,0.001000,0.001000,0.001000,0.001000
1000.250000,0.015147,0.001000,0.001000,0.001000,0.001000,0.001000
1000.269231,0.016271,0.001000,0.001000,0.001000,0.001000,0.001000
1000.288462,0.017386,0.001000,0.001000,0.001000,0.001000,0.001000
1000.307692,0.018491,0.001000,0.001000,0.001000,0.001000,0.001000
1000.326923,0.019585,0.001000,0.001000,0.001000,0.001000,0.001000
1000.346154,0.020669,0.001000,0.001000,0.001000,0.001000,0.001000
1000.365385,0.021741,0.001000,0.001000,0.001000,0.001000,0.001000
1000.384615,0.022801,0.001000,0.001000,0.001000,0.001000,0.001000
1000.403846,0.023848,0.001000,0.001000,0.001000,0.001000,0.001000
1000.423077,0.024882,0.001000,0.001000,0.001000,0.001000,0.001000
1000.442308,0.025901,0.001000,0.001000,0.001000,0.001000,0.001000
1000.461538,0.026906,0.001000,0.001000,0.001000,0.001000,0.001000
1000.480769,0.027897,0.001000,0.001000,0.001000,0.001000,0.001000
1000.500000,0.028871,0.001000,0.001000,0.001000,0.001000,0.001000
1000.519231,0.029829,0.001000,0.001000,0.001000,0.001000,0.001000
1000.538462,0.030771,0.001000,0.001000,0.001000,0.001000,0.001000
1000.557692,0.031695,0.001000,0.001000,0.001000,0.001000,0.001000
1000.576923,0.032602,0.001000,0.001000,0.001000,0.001000,0.001000
1000.596154,0.033490,0.001000,0.001000,0.001000,0.001000,0.001000
1000.615385,0.034360,0.001000,0.001000,0.001000,0.001000,0.001000
1000.634615,0.035210,0.001000,0.001000,0.001000,0.001000,0.001000
1000.653846,0.036041,0.001000,0.001000,0.001000,0.001000,0.001000
1000.673077,0.036851,0.001000,0.001000,0.001000,0.001000,0.001000
1000.692308,0.037641,0.001000,0.001000,0.001000,0.001000,0.001000
1000.711538,0.038409,0.001000,0.001000,0.001000,0.001000,0.001000
1000.730769,0.039156,0.001000,0.001000,0.001000,0.001000,0.001000
1000.750000,0.039881,0.001000,0.001000,0.001000,0.001000,0.001000
1000.769231,0.040584,0.001000,0.001000,0.001000,0.001000,0.001000
1000.788462,0.041264,0.001000,0.001000,0.001000,0.001000,0.001000
1000.807692,0.041921,0.001000,0.001000,0.001000,0.001000,0.001000
1000.826923,0.042554,0.001000,0.001000,0.001000,0.001000,0.001000
1000.846154,0.043164,0.001000,0.001000,0.001000,0.001000,0.001000
1000.865385,0.043749,0.001000,0.001000,0.001000,0.001000,0.001000
1000.884615,0.044310,0.001000,0.001000,0.001000,0.001000,0.001000
1000.903846,0.044846,0.001000,0.001000,0.001000,0.001000,0.001000
1000.923077,0.045357,0.001000,0.001000,0.001000,0.001000,0.001000
1000.942308,0.045842,0.001000,0.001000,0.001000,0.001000,0.001000
1000.961538,0.046302,0.001000,0.001000,0.001000,0.001000,0.001000
1000.980769,0.046736,0.001000,0.001000,0.001000,0.001000,0.001000
1001.000000,0.047143,0.001000,0.001000,0.001000,0.001000,0.001000
1001.019231,0.047525,0.001000,0.001000,0.001000,0.001000,0.001000
1001.038462,0.047879,0.001000,0.001000,0.001000,0.001000,0.001000
1001.057692,0.048207,0.001000,0.001000,0.001000,0.001000,0.001000
1001.076923,0.048507,0.001000,0.001000,0.001000,0.001000,0.001000
1001.096154,0.048781,0.001000,0.001000,0.001000,0.001000,0.001000
1001.115385,0.049027,0.001000,0.001000,0.001000,0.001000,0.001000
1001.134615,0.049246,0.001000,0.001000,0.001000,0.001000,0.001000
1001.153846,0.049437,0.001000,0.001000,0.001000,0.001000,0.001000
1001.173077,0.049600,0.001000,0.001000,0.001000,0.001000,0.001000
1001.192308,0.049736,0.001000,0.001000,0.001000,0.001000,0.001000
1001.211538,0.049843,0.001000,0.001000,0.001000,0.001000,0.001000
1001.230769,0.049923,0.001000,0.001000,0.001000,0.001000,0.001000
1001.250000,0.049975,0.001000,0.001000,0.001000,0.001000,0.001000
1001.269231,0.049998,0.001000,0.001000,0.001000,0.001000,0.001000
1001.288462,0.049994,0.001000,0.001000,0.001000,0.001000,0.001000
1001.307692,0.049962,0.001000,0.001000,0.001000,0.001000,0.001000
1001.326923,0.049901,0.001000,0.001000,0.001000,0.001000,0.001000
1001.346154,0.049813,0.001000,0.001000,0.001000,0.001000,0.001000
1001.365385,0.049697,0.001000,0.001000,0.001000,0.001000,0.001000
1001.384615,0.049553,0.001000,0.001000,0.001000,0.001000,0.001000
1001.403846,0.049381,0.001000,0.001000,0.001000,0.001000,0.001000
1001.423077,0.049181,0.001000,0.001000,0.001000,0.001000,0.001000
1001.442308,0.048954,0.001000,0.001000,0.001000,0.001000,0.001000
1001.461538,0.048700,0.001000,0.001000,0.001000,0.001000,0.001000
1001.480769,0.048418,0.001000,0.001000,0.001000,0.001000,0.001000
1001.500000,0.048109,0.001000,0.001000,0.001000,0.001000,0.001000
1001.519231,0.047773,0.001000,0.001000,0.001000,0.001000,0.001000
1001.538462,0.047410,0.001000,0.001000,0.001000,0.001000,0.001000
1001.557692,0.047021,0.001000,0.001000,0.001000,0.001000,0.001000
1001.576923,0.046605,0.001000,0.001000,0.001000,0.001000,0.001000
1001.596154,0.046164,0.001000,0.001000,0.001000,0.001000,0.001000
1001.615385,0.045696,0.001000,0.001000,0.001000,0.001000,0.001000
1001.634615,0.045203,0.001000,0.001000,0.001000,0.001000,0.001000
1001.653846,0.044684,0.001000,0.001000,0.001000,0.001000,0.001000
1001.673077,0.044140,0.001000,0.001000,0.001000,0.001000,0.001000
1001.692308,0.043572,0.001000,0.001000,0.001000,0.001000,0.001000
1001.711538,0.042979,0.001000,0.001000,0.001000,0.001000,0.001000
1001.730769,0.042362,0.001000,0.001000,0.001000,0.001000,0.001000
1001.750000,0.041722,0.001000,0.001000,0.001000,0.001000,0.001000
1001.769231,0.041058,0.001000,0.001000,0.001000,0.001000,0.001000
1001.788462,0.040371,0.001000,0.001000,0.001000,0.001000,0.001000
1001.807692,0.039661,0.001000,0.001000,0.001000,0.001000,0.001000
1001.826923,0.038929,0.001000,0.001000,0.001000,0.001000,0.001000
1001.846154,0.038175,0.001000,0.001000,0.001000,0.001000,0.001000
1001.865385,0.037400,0.001000,0.001000,0.001000,0.001000,0.001000
1001.884615,0.036604,0.001000,0.001000,0.001000,0.001000,0.001000
1001.903846,0.035788,0.001000,0.001000,0.001000,0.001000,0.001000
1001.923077,0.034951,0.001000,0.001000,0.001000,0.001000,0.001000
1001.942308,0.034095,0.001000,0.001000,0.001000,0.001000,0.001000
1001.961538,0.033219,0.001000,0.001000,0.001000,0.001000,0.001000
1001.980769,0.032325,0.001000,0.001000,0.001000,0.001000,0.001000
1002.000000,0.031413,0.001000,0.001000,0.001000,0.001000,0.001000
1002.019231,0.030483,0.001000,0.001000,0.001000,0.001000,0.001000
1002.038462,0.029537,0.001000,0.001000,0.001000,0.001000,0.001000
1002.057692,0.028573,0.001000,0.001000,0.001000,0.001000,0.001000
1002.076923,0.027594,0.001000,0.001000,0.001000,0.001000,0.001000
1002.096154,0.026599,0.001000,0.001000,0.001000,0.001000,0.001000
1002.115385,0.025589,0.001000,0.001000,0.001000,0.001000,0.001000
1002.134615,0.024565,0.001000,0.001000,0.001000,0.001000,0.001000
1002.153846,0.023527,0.001000,0.001000,0.001000,0.001000,0.001000
1002.173077,0.022476,0.001000,0.001000,0.001000,0.001000,0.001000
1002.192308,0.021413,0.001000,0.001000,0.001000,0.001000,0.001000
1002.211538,0.020337,0.001000,0.001000,0.001000,0.001000,0.001000
1002.230769,0.019250,0.001000,0.001000,0.001000,0.001000,0.001000
1002.250000,0.018152,0.001000,0.001000,0.001000,0.001000,0.001000
1002.269231,0.017044,0.001000,0.001000,0.001000,0.001000,0.001000
1002.288462,0.015927,0.001000,0.001000,0.001000,0.001000,0.001000
1002.307692,0.014800,0.001000,0.001000,0.001000,0.001000,0.001000
1002.326923,0.013666,0.001000,0.001000,0.001000,0.001000,0.001000
1002.346154,0.012523,0.001000,0.001000,0.001000,0.001000,0.001000
1002.365385,0.011374,0.001000,0.001000,0.001000,0.001000,0.001000
1002.384615,0.010218,0.001000,0.001000,0.001000,0.001000,0.001000
1002.403846,0.009056,0.001000,0.001000,0.001000,0.001000,0.001000
1002.423077,0.007890,0.001000,0.001000,0.001000,0.001000,0.001000
1002.442308,0.006719,0.001000,0.001000,0.001000,0.001000,0.001000
1002.461538,0.005544,0.001000,0.001000,0.001000,0.001000,0.001000
1002.480769,0.004366,0.001000,0.001000,0.001000,0.001000,0.001000
1002.500000,0.003185,0.001000,0.001000,0.001000,0.001000,0.001000
1002.519231,0.002003,0.001000,0.001000,0.001000,0.001000,0.001000
1002.538462,0.000820,0.001000,0.001000,0.001000,0.001000,0.001000
1002.557692,-0.000364,0.001000,0.001000,0.001000,0.001000,0.001000
1002.576923,-0.001547,0.001000,0.001000,0.001000,0.001000,0.001000
1002.596154,-0.002730,0.001000,0.001000,0.001000,0.001000,0.001000
1002.615385,-0.003911,0.001000,0.001000,0.001000,0.001000,0.001000
1002.634615,-0.005090,0.001000,0.001000,0.001000,0.001000,0.001000
1002.653846,-0.006266,0.001000,0.001000,0.001000,0.001000,0.001000
1002.673077,-0.007439,0.001000,0.001000,0.001000,0.001000,0.001000
1002.692308,-0.008607,0.001000,0.001000,0.001000,0.001000,0.001000
1002.711538,-0.009771,0.001000,0.001000,0.001000,0.001000,0.001000
1002.730769,-0.010929,0.001000,0.001000,0.001000,0.001000,0.001000
1002.750000,-0.012081,0.001000,0.001000,0.001000,0.001000,0.001000
1002.769231,-0.013226,0.001000,0.001000,0.001000,0.001000,0.001000
1002.788462,-0.014364,0.001000,0.001000,0.001000,0.001000,0.001000
1002.807692,-0.015494,0.001000,0.001000,0.001000,0.001000,0.001000
1002.826923,-0.016615,0.001000,0.001000,0.001000,0.001000,0.001000
1002.846154,-0.017726,0.001000,0.001000,0.001000,0.001000,0.001000
1002.865385,-0.018828,0.001000,0.001000,0.001000,0.001000,0.001000
1002.884615,-0.019920,0.001000,0.001000,0.001000,0.001000,0.001000
1002.903846,-0.021000,0.001000,0.001000,0.001000,0.001000,0.001000
1002.923077,-0.022068,0.001000,0.001000,0.001000,0.001000,0.001000
1002.942308,-0.023124,0.001000,0.001000,0.001000,0.001000,0.001000
1002.961538,-0.024167,0.001000,0.001000,0.001000,0.001000,0.001000
1002.980769,-0.025196,0.001000,0.001000,0.001000,0.001000,0.001000
1003.000000,-0.026212,0.001000,0.001000,0.001000,0.001000,0.001000
1003.019231,-0.027212,0.001000,0.001000,0.001000,0.001000,0.001000
1003.038462,-0.028198,0.001000,0.001000,0.001000,0.001000,0.001000
1003.057692,-0.029167,0.001000,0.001000,0.001000,0.001000,0.001000
1003.076923,-0.030121,0.001000,0.001000,0.001000,0.001000,0.001000
1003.096154,-0.031057,0.001000,0.001000,0.001000,0.001000,0.001000
1003.115385,-0.031976,0.001000,0.001000,0.001000,0.001000,0.001000
1003.134615,-0.032877,0.001000,0.001000,0.001000,0.001000,0.001000
1003.153846,-0.033760,0.001000,0.001000,0.001000,0.001000,0.001000
1003.173077,-0.034623,0.001000,0.001000,0.001000,0.001000,0.001000
1003.192308,-0.035467,0.001000,0.001000,0.001000,0.001000,0.001000
1003.211538,-0.036292,0.001000,0.001000,0.001000,0.001000,0.001000
1003.230769,-0.037096,0.001000,0.001000,0.001000,0.001000,0.001000
1003.250000,-0.037879,0.001000,0.001000,0.001000,0.001000,0.001000
1003.269231,-0.038641,0.001000,0.001000,0.001000,0.001000,0.001000
1003.288462,-0.039381,0.001000,0.001000,0.001000,0.001000,0.001000
1003.307692,-0.040100,0.001000,0.001000,0.001000,0.001000,0.001000
1003.326923,-0.040796,0.001000,0.001000,0.001000,0.001000,0.001000
1003.346154,-0.041469,0.001000,0.001000,0.001000,0.001000,0.001000
1003.365385,-0.042118,0.001000,0.001000,0.001000,0.001000,0.001000
1003.384615,-0.042744,0.001000,0.001000,0.001000,0.001000,0.001000
1003.403846,-0.043346,0.001000,0.001000,0.001000,0.001000,0.001000
1003.423077,-0.043924,0.001000,0.001000,0.001000,0.001000,0.001000
1003.442308,-0.044477,0.001000,0.001000,0.001000,0.001000,0.001000
1003.461538,-0.045006,0.001000,0.001000,0.001000,0.001000,0.001000
1003.480769,-0.045509,0.001000,0.001000,0.001000,0.001000,0.001000
1003.500000,-0.045986,0.001000,0.001000,0.001000,0.001000,0.001000
1003.519231,-0.046438,0.001000,0.001000,0.001000,0.001000,0.001000
1003.538462,-0.046864,0.001000,0.001000,0.001000,0.001000,0.001000
1003.557692,-0.047263,0.001000,0.001000,0.001000,0.001000,0.001000
1003.576923,-0.047636,0.001000,0.001000,0.001000,0.001000,0.001000
1003.596154,-0.047983,0.001000,0.001000,0.001000,0.001000,0.001000
1003.615385,-0.048302,0.001000,0.001000,0.001000,0.001000,0.001000
1003.634615,-0.048594,0.001000,0.001000,0.001000,0.001000,0.001000
1003.653846,-0.048859,0.001000,0.001000,0.001000,0.001000,0.001000
1003.673077,-0.049097,0.001000,0.001000,0.001000,0.001000,0.001000
1003.692308,-0.049307,0.001000,0.001000,0.001000,0.001000,0.001000
1003.711538,-0.049490,0.001000,0.001000,0.001000,0.001000,0.001000
1003.730769,-0.049645,0.001000,0.001000,0.001000,0.001000,0.001000
1003.750000,-0.049772,0.001000,0.001000,0.001000,0.001000,0.001000
1003.769231,-0.049871,0.001000,0.001000,0.001000,0.001000,0.001000
1003.788462,-0.049942,0.001000,0.001000,0.001000,0.001000,0.001000
1003.807692,-0.049985,0.001000,0.001000,0.001000,0.001000,0.001000
1003.826923,-0.050000,0.001000,0.001000,0.001000,0.001000,0.001000
1003.846154,-0.049987,0.001000,0.001000,0.001000,0.001000,0.001000
1003.865385,-0.049946,0.001000,0.001000,0.001000,0.001000,0.001000
1003.884615,-0.049877,0.001000,0.001000,0.001000,0.001000,0.001000
1003.903846,-0.049780,0.001000,0.001000,0.001000,0.001000,0.001000
1003.923077,-0.049656,0.001000,0.001000,0.001000,0.001000,0.001000
1003.942308,-0.049503,0.001000,0.001000,0.001000,0.001000,0.001000
1003.961538,-0.049323,0.001000,0.001000,0.001000,0.001000,0.001000
1003.980769,-0.049114,0.001000,0.001000,0.001000,0.001000,0.001000
1004.000000,-0.048879,0.001000,0.001000,0.001000,0.001000,0.001000
1004.019231,-0.048616,0.001000,0.001000,0.001000,0.001000,0.001000
1004.038462,-0.048326,0.001000,0.001000,0.001000,0.001000,0.001000
1004.057692,-0.048009,0.001000,0.001000,0.001000,0.001000,0.001000
1004.076923,-0.047664,0.001000,0.001000,0.001000,0.001000,0.001000
1004.096154,-0.047293,0.001000,0.001000,0.001000,0.001000,0.001000
1004.115385,-0.046896,0.001000,0.001000,0.001000,0.001000,0.001000
1004.134615,-0.046472,0.001000,0.001000,0.001000,0.001000,0.001000
1004.153846,-0.046023,0.001000,0.001000,0.001000,0.001000,0.001000
1004.173077,-0.045547,0.001000,0.001000,0.001000,0.001000,0.001000
1004.192308,-0.045046,0.001000,0.001000,0.001000,0.001000,0.001000
1004.211538,-0.044520,0.001000,0.001000,0.001000,0.001000,0.001000
1004.230769,-0.043968,0.001000,0.001000,0.001000,0.001000,0.001000
1004.250000,-0.043392,0.001000,0.001000,0.001000,0.001000,0.001000
1004.269231,-0.042792,0.001000,0.001000,0.001000,0.001000,0.001000
1004.288462,-0.042168,0.001000,0.001000,0.001000,0.001000,0.001000
1004.307692,-0.041520,0.001000,0.001000,0.001000,0.001000,0.001000
1004.326923,-0.040849,0.001000,0.001000,0.001000,0.001000,0.001000
1004.346154,-0.040155,0.001000,0.001000,0.001000,0.001000,0.001000
1004.365385,-0.039438,0.001000,0.001000,0.001000,0.001000,0.001000
1004.384615,-0.038700,0.001000,0.001000,0.001000,0.001000,0.001000
1004.403846,-0.037939,0.001000,0.001000,0.001000,0.001000,0.001000
1004.423077,-0.037158,0.001000,0.001000,0.001000,0.001000,0.001000
1004.442308,-0.036355,0.001000,0.001000,0.001000,0.001000,0.001000
1004.461538,-0.035533,0.001000,0.001000,0.001000,0.001000,0.001000
1004.480769,-0.034690,0.001000,0.001000,0.001000,0.001000,0.001000
1004.500000,-0.033828,0.001000,0.001000,0.001000,0.001000,0.001000
1004.519231,-0.032946,0.001000,0.001000,0.001000,0.001000,0.001000
1004.538462,-0.032047,0.001000,0.001000,0.001000,0.001000,0.001000
1004.557692,-0.031129,0.001000,0.001000,0.001000,0.001000,0.001000
1004.576923,-0.030194,0.001000,0.001000,0.001000,0.001000,0.001000
1004.596154,-0.029242,0.001000,0.001000,0.001000,0.001000,0.001000
1004.615385,-0.028274,0.001000,0.001000,0.001000,0.001000,0.001000
1004.634615,-0.027290,0.001000,0.001000,0.001000,0.001000,0.001000
1004.653846,-0.026290,0.001000,0.001000,0.001000,0.001000,0.001000
1004.673077,-0.025276,0.001000,0.001000,0.001000,0.001000,0.001000
1004.692308,-0.024248,0.001000,0.001000,0.001000,0.001000,0.001000
1004.711538,-0.023206,0.001000,0.001000,0.001000,0.001000,0.001000
1004.730769,-0.022151,0.001000,0.001000,0.001000,0.001000,0.001000
1004.750000,-0.021084,0.001000,0.001000,0.001000,0.001000,0.001000
1004.769231,-0.020004,0.001000,0.001000,0.001000,0.001000,0.001000
1004.788462,-0.018914,0.001000,0.001000,0.001000,0.001000,0.001000
1004.807692,-0.017813,0.001000,0.001000,0.001000,0.001000,0.001000
1004.826923,-0.016702,0.001000,0.001000,0.001000,0.001000,0.001000
1004.846154,-0.015582,0.001000,0.001000,0.001000,0.001000,0.001000
1004.865385,-0.014452,0.001000,0.001000,0.001000,0.001000,0.001000
1004.884615,-0.013315,0.001000,0.001000,0.001000,0.001000,0.001000
1004.903846,-0.012171,0.001000,0.001000,0.001000,0.001000,0.001000
1004.923077,-0.011019,0.001000,0.001000,0.001000,0.001000,0.001000
1004.942308,-0.009861,0.001000,0.001000,0.001000,0.001000,0.001000
1004.961538,-0.008698,0.001000,0.001000,0.001000,0.001000,0.001000
1004.980769,-0.007530,0.001000,0.001000,0.001000,0.001000,0.001000
1005.000000,-0.006358,0.001000,0.001000,0.001000,0.001000,0.001000
1005.019231,-0.005182,0.001000,0.001000,0.001000,0.001000,0.001000
1005.038462,-0.004003,0.001000,0.001000,0.001000,0.001000,0.001000
1005.057692,-0.002822,0.001000,0.001000,0.001000,0.001000,0.001000
1005.076923,-0.001640,0.001000,0.001000,0.001000,0.001000,0.001000
1005.096154,-0.000456,0.001000,0.001000,0.001000,0.001000,0.001000
1005.115385,0.000728,0.001000,0.001000,0.001000,0.001000,0.001000
1005.134615,0.001911,0.001000,0.001000,0.001000,0.001000,0.001000
1005.153846,0.003093,0.001000,0.001000,0.001000,0.001000,0.001000
1005.173077,0.004274,0.001000,0.001000,0.001000,0.001000,0.001000
1005.192308,0.005452,0.001000,0.001000,0.001000,0.001000,0.001000
1005.211538,0.006627,0.001000,0.001000,0.001000,0.001000,0.001000
1005.230769,0.007798,0.001000,0.001000,0.001000,0.001000,0.001000
1005.250000,0.008965,0.001000,0.001000,0.001000,0.001000,0.001000
1005.269231,0.010127,0.001000,0.001000,0.001000,0.001000,0.001000
1005.288462,0.011284,0.001000,0.001000,0.001000,0.001000,0.001000
1005.307692,0.012434,0.001000,0.001000,0.001000,0.001000,0.001000
1005.326923,0.013577,0.001000,0.001000,0.001000,0.001000,0.001000
1005.346154,0.014712,0.001000,0.001000,0.001000,0.001000,0.001000
1005.365385,0.015839,0.001000,0.001000,0.001000,0.001000,0.001000
1005.384615,0.016957,0.001000,0.001000,0.001000,0.001000,0.001000
1005.403846,0.018066,0.001000,0.001000,0.001000,0.001000,0.001000
1005.423077,0.019165,0.001000,0.001000,0.001000,0.001000,0.001000
1005.442308,0.020253,0.001000,0.001000,0.001000,0.001000,0.001000
1005.461538,0.021329,0.001000,0.001000,0.001000,0.001000,0.001000
1005.480769,0.022394,0.001000,0.001000,0.001000,0.001000,0.001000
1005.500000,0.023446,0.001000,0.001000,0.001000,0.001000,0.001000
1005.519231,0.024485,0.001000,0.001000,0.001000,0.001000,0.001000
1005.538462,0.025510,0.001000,0.001000,0.001000,0.001000,0.001000
1005.557692,0.026521,0.001000,0.001000,0.001000,0.001000,0.001000
1005.576923,0.027517,0.001000,0.001000,0.001000,0.001000,0.001000
1005.596154,0.028497,0.001000,0.001000,0.001000,0.001000,0.001000
1005.615385,0.029462,0.001000,0.001000,0.001000,0.001000,0.001000
1005.634615,0.030410,0.001000,0.001000,0.001000,0.001000,0.001000
1005.653846,0.031341,0.001000,0.001000,0.001000,0.001000,0.001000
1005.673077,0.032255,0.001000,0.001000,0.001000,0.001000,0.001000
1005.692308,0.033150,0.001000,0.001000,0.001000,0.001000,0.001000
1005.711538,0.034027,0.001000,0.001000,0.001000,0.001000,0.001000
1005.730769,0.034885,0.001000,0.001000,0.001000,0.001000,0.001000
1005.750000,0.035723,0.001000,0.001000,0.001000,0.001000,0.001000
1005.769231,0.036541,0.001000,0.001000,0.001000,0.001000,0.001000
1005.788462,0.037339,0.001000,0.001000,0.001000,0.001000,0.001000
1005.807692,0.038116,0.001000,0.001000,0.001000,0.001000,0.001000
1005.826923,0.038871,0.001000,0.001000,0.001000,0.001000,0.001000
1005.846154,0.039605,0.001000,0.001000,0.001000,0.001000,0.001000
1005.865385,0.040316,0.001000,0.001000,0.001000,0.001000,0.001000
1005.884615,0.041005,0.001000,0.001000,0.001000,0.001000,0.001000
1005.903846,0.041671,0.001000,0.001000,0.001000,0.001000,0.001000
1005.923077,0.042313,0.001000,0.001000,0.001000,0.001000,0.001000
1005.942308,0.042932,0.001000,0.001000,0.001000,0.001000,0.001000
1005.961538,0.043527,0.001000,0.001000,0.001000,0.001000,0.001000
1005.980769,0.044097,0.001000,0.001000,0.001000,0.001000,0.001000
1006.000000,0.044642,0.001000,0.001000,0.001000,0.001000,0.001000
1006.019231,0.045163,0.001000,0.001000,0.001000,0.001000,0.001000
1006.038462,0.045658,0.001000,0.001000,0.001000,0.001000,0.001000
1006.057692,0.046128,0.001000,0.001000,0.001000,0.001000,0.001000
1006.076923,0.046572,0.001000,0.001000,0.001000,0.001000,0.001000
1006.096154,0.046989,0.001000,0.001000,0.001000,0.001000,0.001000
1006.115385,0.047381,0.001000,0.001000,0.001000,0.001000,0.001000
1006.134615,0.047746,0.001000,0.001000,0.001000,0.001000,0.001000
1006.153846,0.048084,0.001000,0.001000,0.001000,0.001000,0.001000
1006.173077,0.048395,0.001000,0.001000,0.001000,0.001000,0.001000
1006.192308,0.048679,0.001000,0.001000,0.001000,0.001000,0.001000
1006.211538,0.048935,0.001000,0.001000,0.001000,0.001000,0.001000
1006.230769,0.049165,0.001000,0.001000,0.001000,0.001000,0.001000
1006.250000,0.049366,0.001000,0.001000,0.001000,0.001000,0.001000
1006.269231,0.049540,0.001000,0.001000,0.001000,0.001000,0.001000
1006.288462,0.049687,0.001000,0.001000,0.001000,0.001000,0.001000
1006.307692,0.049805,0.001000,0.001000,0.001000,0.001000,0.001000
1006.326923,0.049895,0.001000,0.001000,0.001000,0.001000,0.001000
1006.346154,0.049958,0.001000,0.001000,0.001000,0.001000,0.001000
1006.365385,0.049992,0.001000,0.001000,0.001000,0.001000,0.001000
1006.384615,0.049999,0.001000,0.001000,0.001000,0.001000,0.001000
1006.403846,0.049977,0.001000,0.001000,0.001000,0.001000,0.001000
1006.423077,0.049928,0.001000,0.001000,0.001000,0.001000,0.001000
1006.442308,0.049850,0.001000,0.001000,0.001000,0.001000,0.001000
1006.461538,0.049745,0.001000,0.001000,0.001000,0.001000,0.001000
1006.480769,0.049612,0.001000,0.001000,0.001000,0.001000,0.001000
1006.500000,0.049450,0.001000,0.001000,0.001000,0.001000,0.001000
1006.519231,0.049262,0.001000,0.001000,0.001000,0.001000,0.001000
1006.538462,0.049045,0.001000,0.001000,0.001000,0.001000,0.001000
1006.557692,0.048801,0.001000,0.001000,0.001000,0.001000,0.001000
1006.576923,0.048530,0.001000,0.001000,0.001000,0.001000,0.001000
1006.596154,0.048231,0.001000,0.001000,0.001000,0.001000,0.001000
1006.615385,0.047906,0.001000,0.001000,0.001000,0.001000,0.001000
1006.634615,0.047553,0.001000,0.001000,0.001000,0.001000,0.001000
1006.653846,0.047174,0.001000,0.001000,0.001000,0.001000,0.001000
1006.673077,0.046769,0.001000,0.001000,0.001000,0.001000,0.001000
1006.692308,0.046337,0.001000,0.001000,0.001000,0.001000,0.001000
1006.711538,0.045879,0.001000,0.001000,0.001000,0.001000,0.001000
1006.730769,0.045396,0.001000,0.001000,0.001000,0.001000,0.001000
1006.750000,0.044887,0.001000,0.001000,0.001000,0.001000,0.001000
1006.769231,0.044353,0.001000,0.001000,0.001000,0.001000,0.001000
1006.788462,0.043794,0.001000,0.001000,0.001000,0.001000,0.001000
1006.807692,0.043211,0.001000,0.001000,0.001000,0.001000,0.001000
1006.826923,0.042603,0.001000,0.001000,0.001000,0.001000,0.001000
1006.846154,0.041971,0.001000,0.001000,0.001000,0.001000,0.001000
1006.865385,0.041316,0.001000,0.001000,0.001000,0.001000,0.001000
1006.884615,0.040638,0.001000,0.001000,0.001000,0.001000,0.001000
1006.903846,0.039937,0.001000,0.001000,0.001000,0.001000,0.001000
1006.923077,0.039214,0.001000,0.001000,0.001000,0.001000,0.001000
1006.942308,0.038468,0.001000,0.001000,0.001000,0.001000,0.001000
1006.961538,0.037701,0.001000,0.001000,0.001000,0.001000,0.001000
1006.980769,0.036913,0.001000,0.001000,0.001000,0.001000,0.001000
1007.000000,0.036105,0.001000,0.001000,0.001000,0.001000,0.001000
1007.019231,0.035276,0.001000,0.001000,0.001000,0.001000,0.001000
1007.038462,0.034427,0.001000,0.001000,0.001000,0.001000,0.001000
1007.057692,0.033559,0.001000,0.001000,0.001000,0.001000,0.001000
1007.076923,0.032672,0.001000,0.001000,0.001000,0.001000,0.001000
1007.096154,0.031767,0.001000,0.001000,0.001000,0.001000,0.001000
1007.115385,0.030844,0.001000,0.001000,0.001000,0.001000,0.001000
1007.134615,0.029904,0.001000,0.001000,0.001000,0.001000,0.001000
1007.153846,0.028947,0.001000,0.001000,0.001000,0.001000,0.001000
1007.173077,0.027973,0.001000,0.001000,0.001000,0.001000,0.001000
1007.192308,0.026984,0.001000,0.001000,0.001000,0.001000,0.001000
1007.211538,0.025980,0.001000,0.001000,0.001000,0.001000,0.001000
1007.230769,0.024962,0.001000,0.001000,0.001000,0.001000,0.001000
1007.250000,0.023929,0.001000,0.001000,0.001000,0.001000,0.001000
1007.269231,0.022883,0.001000,0.001000,0.001000,0.001000,0.001000
1007.288462,0.021824,0.001000,0.001000,0.001000,0.001000,0.001000
1007.307692,0.020753,0.001000,0.001000,0.001000,0.001000,0.001000
1007.326923,0.019670,0.001000,0.001000,0.001000,0.001000,0.001000
1007.346154,0.018577,0.001000,0.001000,0.001000,0.001000,0.001000
1007.365385,0.017472,0.001000,0.001000,0.001000,0.001000,0.001000
1007.384615,0.016359,0.001000,0.001000,0.001000,0.001000,0.001000
1007.403846,0.015235,0.001000,0.001000,0.001000,0.001000,0.001000
1007.423077,0.014104,0.001000,0.001000,0.001000,0.001000,0.001000
1007.442308,0.012964,0.001000,0.001000,0.001000,0.001000,0.001000
1007.461538,0.011817,0.001000,0.001000,0.001000,0.001000,0.001000
1007.480769,0.010664,0.001000,0.001000,0.001000,0.001000,0.001000
1007.500000,0.009505,0.001000,0.001000,0.001000,0.001000,0.001000
1007.519231,0.008340,0.001000,0.001000,0.001000,0.001000,0.001000
1007.538462,0.007170,0.001000,0.001000,0.001000,0.001000,0.001000
1007.557692,0.005997,0.001000,0.001000,0.001000,0.001000,0.001000
1007.576923,0.004820,0.001000,0.001000,0.001000,0.001000,0.001000
1007.596154,0.003641,0.001000,0.001000,0.001000,0.001000,0.001000
1007.615385,0.002459,0.001000,0.001000,0.001000,0.001000,0.001000
1007.634615,0.001276,0.001000,0.001000,0.001000,0.001000,0.001000
1007.653846,0.000092,0.001000,0.001000,0.001000,0.001000,0.001000
1007.673077,-0.001091,0.001000,0.001000,0.001000,0.001000,0.001000
1007.692308,-0.002274,0.001000,0.001000,0.001000,0.001000,0.001000
1007.711538,-0.003456,0.001000,0.001000,0.001000,0.001000,0.001000
1007.730769,-0.004636,0.001000,0.001000,0.001000,0.001000,0.001000
1007.750000,-0.005813,0.001000,0.001000,0.001000,0.001000,0.001000
1007.769231,-0.006987,0.001000,0.001000,0.001000,0.001000,0.001000
1007.788462,-0.008157,0.001000,0.001000,0.001000,0.001000,0.001000
1007.807692,-0.009323,0.001000,0.001000,0.001000,0.001000,0.001000
1007.826923,-0.010483,0.001000,0.001000,0.001000,0.001000,0.001000
1007.846154,-0.011638,0.001000,0.001000,0.001000,0.001000,0.001000
1007.865385,-0.012786,0.001000,0.001000,0.001000,0.001000,0.001000
1007.884615,-0.013926,0.001000,0.001000,0.001000,0.001000,0.001000
1007.903846,-0.015059,0.001000,0.001000,0.001000,0.001000,0.001000
1007.923077,-0.016184,0.001000,0.001000,0.001000,0.001000,0.001000
1007.942308,-0.017299,0.001000,0.001000,0.001000,0.001000,0.001000
1007.961538,-0.018405,0.001000,0.001000,0.001000,0.001000,0.001000
1007.980769,-0.019500,0.001000,0.001000,0.001000,0.001000,0.001000
1008.000000,-0.020585,0.001000,0.001000,0.001000,0.001000,0.001000
1008.019231,-0.021658,0.001000,0.001000,0.001000,0.001000,0.001000
1008.038462,-0.022719,0.001000,0.001000,0.001000,0.001000,0.001000
1008.057692,-0.023767,0.001000,0.001000,0.001000,0.001000,0.001000
1008.076923,-0.024801,0.001000,0.001000,0.001000,0.001000,0.001000
1008.096154,-0.025822,0.001000,0.001000,0.001000,0.001000,0.001000
1008.115385,-0.026829,0.001000,0.001000,0.001000,0.001000,0.001000
1008.134615,-0.027820,0.001000,0.001000,0.001000,0.001000,0.001000
1008.153846,-0.028796,0.001000,0.001000,0.001000,0.001000,0.001000
1008.173077,-0.029755,0.001000,0.001000,0.001000,0.001000,0.001000
1008.192308,-0.030698,0.001000,0.001000,0.001000,0.001000,0.001000
1008.211538,-0.031624,0.001000,0.001000,0.001000,0.001000,0.001000
1008.230769,-0.032532,0.001000,0.001000,0.001000,0.001000,0.001000
1008.250000,-0.033422,0.001000,0.001000,0.001000,0.001000,0.001000
1008.269231,-0.034293,0.001000,0.001000,0.001000,0.001000,0.001000
1008.288462,-0.035144,0.001000,0.001000,0.001000,0.001000,0.001000
1008.307692,-0.035977,0.001000,0.001000,0.001000,0.001000,0.001000
1008.326923,-0.036788,0.001000,0.001000,0.001000,0.001000,0.001000
1008.346154,-0.037580,0.001000,0.001000,0.001000,0.001000,0.001000
1008.365385,-0.038350,0.001000,0.001000,0.001000,0.001000,0.001000
1008.384615,-0.039099,0.001000,0.001000,0.001000,0.001000,0.001000
1008.403846,-0.039826,0.001000,0.001000,0.001000,0.001000,0.001000
1008.423077,-0.040530,0.001000,0.001000,0.001000,0.001000,0.001000
1008.442308,-0.041212,0.001000,0.001000,0.001000,0.001000,0.001000
1008.461538,-0.041871,0.001000,0.001000,0.001000,0.001000,0.001000
1008.480769,-0.042506,0.001000,0.001000,0.001000,0.001000,0.001000
1008.500000,-0.043117,0.001000,0.001000,0.001000,0.001000,0.001000
1008.519231,-0.043704,0.001000,0.001000,0.001000,0.001000,0.001000
1008.538462,-0.044267,0.001000,0.001000,0.001000,0.001000,0.001000
1008.557692,-0.044805,0.001000,0.001000,0.001000,0.001000,0.001000
1008.576923,-0.045318,0.001000,0.001000,0.001000,0.001000,0.001000
1008.596154,-0.045805,0.001000,0.001000,0.001000,0.001000,0.001000
1008.615385,-0.046267,0.001000,0.001000,0.001000,0.001000,0.001000
1008.634615,-0.046703,0.001000,0.001000,0.001000,0.001000,0.001000
1008.653846,-0.047113,0.001000,0.001000,0.001000,0.001000,0.001000
1008.673077,-0.047496,0.001000,0.001000,0.001000,0.001000,0.001000
1008.692308,-0.047852,0.001000,0.001000,0.001000,0.001000,0.001000
1008.711538,-0.048182,0.001000,0.001000,0.001000,0.001000,0.001000
1008.730769,-0.048485,0.001000,0.001000,0.001000,0.001000,0.001000
1008.750000,-0.048760,0.001000,0.001000,0.001000,0.001000,0.001000
1008.769231,-0.049009,0.001000,0.001000,0.001000,0.001000,0.001000
1008.788462,-0.049230,0.001000,0.001000,0.001000,0.001000,0.001000
1008.807692,-0.049423,0.001000,0.001000,0.001000,0.001000,0.001000
1008.826923,-0.049588,0.001000,0.001000,0.001000,0.001000,0.001000
1008.846154,-0.049726,0.001000,0.001000,0.001000,0.001000,0.001000
1008.865385,-0.049836,0.001000,0.001000,0.001000,0.001000,0.001000
1008.884615,-0.049918,0.001000,0.001000,0.001000,0.001000,0.001000
1008.903846,-0.049972,0.001000,0.001000,0.001000,0.001000,0.001000
1008.923077,-0.049997,0.001000,0.001000,0.001000,0.001000,0.001000
1008.942308,-0.049995,0.001000,0.001000,0.001000,0.001000,0.001000
1008.961538,-0.049965,0.001000,0.001000,0.001000,0.001000,0.001000
1008.980769,-0.049907,0.001000,0.001000,0.001000,0.001000,0.001000
1009.000000,-0.049821,0.001000,0.001000,0.001000,0.001000,0.001000
1009.019231,-0.049707,0.001000,0.001000,0.001000,0.001000,0.001000
1009.038462,-0.049565,0.001000,0.001000,0.001000,0.001000,0.001000
1009.057692,-0.049395,0.001000,0.001000,0.001000,0.001000,0.001000
1009.076923,-0.049198,0.001000,0.001000,0.001000,0.001000,0.001000
1009.096154,-0.048973,0.001000,0.001000,0.001000,0.001000,0.001000
1009.115385,-0.048721,0.001000,0.001000,0.001000,0.001000,0.001000
1009.134615,-0.048441,0.001000,0.001000,0.001000,0.001000,0.001000
1009.153846,-0.048134,0.001000,0.001000,0.001000,0.001000,0.001000
1009.173077,-0.047800,0.001000,0.001000,0.001000,0.001000,0.001000
1009.192308,-0.047440,0.001000,0.001000,0.001000,0.001000,0.001000
1009.211538,-0.047052,0.001000,0.001000,0.001000,0.001000,0.001000
1009.230769,-0.046639,0.001000,0.001000,0.001000,0.001000,0.001000
1009.250000,-0.046199,0.001000,0.001000,0.001000,0.001000,0.001000
1009.269231,-0.045733,0.001000,0.001000,0.001000,0.001000,0.001000
1009.288462,-0.045242,0.001000,0.001000,0.001000,0.001000,0.001000
1009.307692,-0.044725,0.001000,0.001000,0.001000,0.001000,0.001000
1009.326923,-0.044184,0.001000,0.001000,0.001000,0.001000,0.001000
1009.346154,-0.043617,0.001000,0.001000,0.001000,0.001000,0.001000
1009.365385,-0.043026,0.001000,0.001000,0.001000,0.001000,0.001000
1009.384615,-0.042411,0.001000,0.001000,0.001000,0.001000,0.001000
1009.403846,-0.041773,0.001000,0.001000,0.001000,0.001000,0.001000
1009.423077,-0.041110,0.001000,0.001000,0.001000,0.001000,0.001000
1009.442308,-0.040425,0.001000,0.001000,0.001000,0.001000,0.001000
1009.461538,-0.039717,0.001000,0.001000,0.001000,0.001000,0.001000
1009.480769,-0.038987,0.001000,0.001000,0.001000,0.001000,0.001000
1009.500000,-0.038235,0.001000,0.001000,0.001000,0.001000,0.001000
1009.519231,-0.037461,0.001000,0.001000,0.001000,0.001000,0.001000
1009.538462,-0.036667,0.001000,0.001000,0.001000,0.001000,0.001000
1009.557692,-0.035852,0.001000,0.001000,0.001000,0.001000,0.001000
1009.576923,-0.035017,0.001000,0.001000,0.001000,0.001000,0.001000
1009.596154,-0.034162,0.001000,0.001000,0.001000,0.001000,0.001000
1009.615385,-0.033288,0.001000,0.001000,0.001000,0.001000,0.001000
1009.634615,-0.032396,0.001000,0.001000,0.001000,0.001000,0.001000
1009.653846,-0.031485,0.001000,0.001000,0.001000,0.001000,0.001000
1009.673077,-0.030557,0.001000,0.001000,0.001000,0.001000,0.001000
1009.692308,-0.029611,0.001000,0.001000,0.001000,0.001000,0.001000
1009.711538,-0.028649,0.001000,0.001000,0.001000,0.001000,0.001000
1009.730769,-0.027671,0.001000,0.001000,0.001000,0.001000,0.001000
1009.750000,-0.026677,0.001000,0.001000,0.001000,0.001000,0.001000
1009.769231,-0.025669,0.001000,0.001000,0.001000,0.001000,0.001000
1009.788462,-0.024646,0.001000,0.001000,0.001000,0.001000,0.001000
1009.807692,-0.023609,0.001000,0.001000,0.001000,0.001000,0.001000
1009.826923,-0.022559,0.001000,0.001000,0.001000,0.001000,0.001000
1009.846154,-0.021496,0.001000,0.001000,0.001000,0.001000,0.001000
1009.865385,-0.020422,0.001000,0.001000,0.001000,0.001000,0.001000
1009.884615,-0.019335,0.001000,0.001000,0.001000,0.001000,0.001000
1009.903846,-0.018238,0.001000,0.001000,0.001000,0.001000,0.001000
1009.923077,-0.017131,0.001000,0.001000,0.001000,0.001000,0.001000
1009.942308,-0.016014,0.001000,0.001000,0.001000,0.001000,0.001000
1009.961538,-0.014889,0.001000,0.001000,0.001000,0.001000,0.001000
1009.980769,-0.013754,0.001000,0.001000,0.001000,0.001000,0.001000
1010.000000,-0.012613,0.001000,0.001000,0.001000,0.001000,0.001000
1010.019231,-0.011464,0.001000,0.001000,0.001000,0.001000,0.001000
1010.038462,-0.010308,0.001000,0.001000,0.001000,0.001000,0.001000
1010.057692,-0.009147,0.001000,0.001000,0.001000,0.001000,0.001000
1010.076923,-0.007981,0.001000,0.001000,0.001000,0.001000,0.001000
1010.096154,-0.006810,0.001000,0.001000,0.001000,0.001000,0.001000
1010.115385,-0.005636,0.001000,0.001000,0.001000,0.001000,0.001000
1010.134615,-0.004458,0.001000,0.001000,0.001000,0.001000,0.001000
1010.153846,-0.003278,0.001000,0.001000,0.001000,0.001000,0.001000
1010.173077,-0.002096,0.001000,0.001000,0.001000,0.001000,0.001000
1010.192308,-0.000912,0.001000,0.001000,0.001000,0.001000,0.001000
1010.211538,0.000271,0.001000,0.001000,0.001000,0.001000,0.001000
1010.230769,0.001455,0.001000,0.001000,0.001000,0.001000,0.001000
1010.250000,0.002638,0.001000,0.001000,0.001000,0.001000,0.001000
1010.269231,0.003819,0.001000,0.001000,0.001000,0.001000,0.001000
1010.288462,0.004998,0.001000,0.001000,0.001000,0.001000,0.001000
1010.307692,0.006174,0.001000,0.001000,0.001000,0.001000,0.001000
1010.326923,0.007347,0.001000,0.001000,0.001000,0.001000,0.001000
1010.346154,0.008516,0.001000,0.001000,0.001000,0.001000,0.001000
1010.365385,0.009680,0.001000,0.001000,0.001000,0.001000,0.001000
1010.384615,0.010839,0.001000,0.001000,0.001000,0.001000,0.001000
1010.403846,0.011991,0.001000,0.001000,0.001000,0.001000,0.001000
1010.423077,0.013137,0.001000,0.001000,0.001000,0.001000,0.001000
1010.442308,0.014275,0.001000,0.001000,0.001000,0.001000,0.001000
1010.461538,0.015406,0.001000,0.001000,0.001000,0.001000,0.001000
1010.480769,0.016528,0.001000,0.001000,0.001000,0.001000,0.001000
1010.500000,0.017640,0.001000,0.001000,0.001000,0.001000,0.001000
1010.519231,0.018743,0.001000,0.001000,0.001000,0.001000,0.001000
1010.538462,0.019835,0.001000,0.001000,0.001000,0.001000,0.001000
1010.557692,0.020916,0.001000,0.001000,0.001000,0.001000,0.001000
1010.576923,0.021985,0.001000,0.001000,0.001000,0.001000,0.001000
1010.596154,0.023042,0.001000,0.001000,0.001000,0.001000,0.001000
1010.615385,0.024086,0.001000,0.001000,0.001000,0.001000,0.001000
1010.634615,0.025117,0.001000,0.001000,0.001000,0.001000,0.001000
1010.653846,0.026133,0.001000,0.001000,0.001000,0.001000,0.001000
1010.673077,0.027135,0.001000,0.001000,0.001000,0.001000,0.001000
1010.692308,0.028121,0.001000,0.001000,0.001000,0.001000,0.001000
1010.711538,0.029092,0.001000,0.001000,0.001000,0.001000,0.001000
1010.730769,0.030047,0.001000,0.001000,0.001000,0.001000,0.001000
1010.750000,0.030984,0.001000,0.001000,0.001000,0.001000,0.001000
1010.769231,0.031905,0.001000,0.001000,0.001000,0.001000,0.001000
1010.788462,0.032807,0.001000,0.001000,0.001000,0.001000,0.001000
1010.807692,0.033691,0.001000,0.001000,0.001000,0.001000,0.001000
1010.826923,0.034556,0.001000,0.001000,0.001000,0.001000,0.001000
1010.846154,0.035402,0.001000,0.001000,0.001000,0.001000,0.001000
1010.865385,0.036228,0.001000,0.001000,0.001000,0.001000,0.001000
1010.884615,0.037034,0.001000,0.001000,0.001000,0.001000,0.001000
1010.903846,0.037819,0.001000,0.001000,0.001000,0.001000,0.001000
1010.923077,0.038582,0.001000,0.001000,0.001000,0.001000,0.001000
1010.942308,0.039324,0.001000,0.001000,0.001000,0.001000,0.001000
1010.961538,0.040044,0.001000,0.001000,0.001000,0.001000,0.001000
1010.980769,0.040742,0.001000,0.001000,0.001000,0.001000,0.001000
1011.000000,0.041417,0.001000,0.001000,0.001000,0.001000,0.001000
1011.019231,0.042068,0.001000,0.001000,0.001000,0.001000,0.001000
1011.038462,0.042696,0.001000,0.001000,0.001000,0.001000,0.001000
1011.057692,0.043300,0.001000,0.001000,0.001000,0.001000,0.001000
1011.076923,0.043880,0.001000,0.001000,0.001000,0.001000,0.001000
1011.096154,0.044435,0.001000,0.001000,0.001000,0.001000,0.001000
1011.115385,0.044965,0.001000,0.001000,0.001000,0.001000,0.001000
1011.134615,0.045470,0.001000,0.001000,0.001000,0.001000,0.001000
1011.153846,0.045950,0.001000,0.001000,0.001000,0.001000,0.001000
1011.173077,0.046404,0.001000,0.001000,0.001000,0.001000,0.001000
1011.192308,0.046832,0.001000,0.001000,0.001000,0.001000,0.001000
1011.211538,0.047233,0.001000,0.001000,0.001000,0.001000,0.001000
1011.230769,0.047608,0.001000,0.001000,0.001000,0.001000,0.001000
1011.250000,0.047957,0.001000,0.001000,0.001000,0.001000,0.001000
1011.269231,0.048278,0.001000,0.001000,0.001000,0.001000,0.001000
1011.288462,0.048572,0.001000,0.001000,0.001000,0.001000,0.001000
1011.307692,0.048840,0.001000,0.001000,0.001000,0.001000,0.001000
1011.326923,0.049080,0.001000,0.001000,0.001000,0.001000,0.001000
1011.346154,0.049292,0.001000,0.001000,0.001000,0.001000,0.001000
1011.365385,0.049477,0.001000,0.001000,0.001000,0.001000,0.001000
1011.384615,0.049634,0.001000,0.001000,0.001000,0.001000,0.001000
1011.403846,0.049763,0.001000,0.001000,0.001000,0.001000,0.001000
1011.423077,0.049864,0.001000,0.001000,0.001000,0.001000,0.001000
1011.442308,0.049937,0.001000,0.001000,0.001000,0.001000,0.001000
1011.461538,0.049983,0.001000,0.001000,0.001000,0.001000,0.001000
1011.480769,0.050000,0.001000,0.001000,0.001000,0.001000,0.001000
1011.500000,0.049989,0.001000,0.001000,0.001000,0.001000,0.001000
1011.519231,0.049950,0.001000,0.001000,0.001000,0.001000,0.001000
1011.538462,0.049884,0.001000,0.001000,0.001000,0.001000,0.001000
1011.557692,0.049789,0.001000,0.001000,0.001000,0.001000,0.001000
1011.576923,0.049666,0.001000,0.001000,0.001000,0.001000,0.001000
1011.596154,0.049516,0.001000,0.001000,0.001000,0.001000,0.001000
1011.615385,0.049338,0.001000,0.001000,0.001000,0.001000,0.001000
1011.634615,0.049132,0.001000,0.001000,0.001000,0.001000,0.001000
1011.653846,0.048898,0.001000,0.001000,0.001000,0.001000,0.001000
1011.673077,0.048638,0.001000,0.001000,0.001000,0.001000,0.001000
1011.692308,0.048349,0.001000,0.001000,0.001000,0.001000,0.001000
1011.711538,0.048034,0.001000,0.001000,0.001000,0.001000,0.001000
1011.730769,0.047692,0.001000,0.001000,0.001000,0.001000,0.001000
1011.750000,0.047323,0.001000,0.001000,0.001000,0.001000,0.001000
1011.769231,0.046928,0.001000,0.001000,0.001000,0.001000,0.001000
1011.788462,0.046506,0.001000,0.001000,0.001000,0.001000,0.001000
1011.807692,0.046059,0.001000,0.001000,0.001000,0.001000,0.001000
1011.826923,0.045585,0.001000,0.001000,0.001000,0.001000,0.001000
1011.846154,0.045086,0.001000,0.001000,0.001000,0.001000,0.001000
1011.865385,0.044562,0.001000,0.001000,0.001000,0.001000,0.001000
1011.884615,0.044012,0.001000,0.001000,0.001000,0.001000,0.001000
1011.903846,0.043438,0.001000,0.001000,0.001000,0.001000,0.001000
1011.923077,0.042840,0.001000,0.001000,0.001000,0.001000,0.001000
1011.942308,0.042218,0.001000,0.001000,0.001000,0.001000,0.001000
1011.961538,0.041571,0.001000,0.001000,0.001000,0.001000,0.001000
1011.980769,0.040902,0.001000,0.001000,0.001000,0.001000,0.001000
1012.000000,0.040210,0.001000,0.001000,0.001000,0.001000,0.001000
1012.019231,0.039495,0.001000,0.001000,0.001000,0.001000,0.001000
1012.038462,0.038758,0.001000,0.001000,0.001000,0.001000,0.001000
1012.057692,0.038000,0.001000,0.001000,0.001000,0.001000,0.001000
1012.076923,0.037220,0.001000,0.001000,0.001000,0.001000,0.001000
1012.096154,0.036419,0.001000,0.001000,0.001000,0.001000,0.001000
1012.115385,0.035597,0.001000,0.001000,0.001000,0.001000,0.001000
1012.134615,0.034756,0.001000,0.001000,0.001000,0.001000,0.001000
1012.153846,0.033896,0.001000,0.001000,0.001000,0.001000,0.001000
1012.173077,0.033016,0.001000,0.001000,0.001000,0.001000,0.001000
1012.192308,0.032118,0.001000,0.001000,0.001000,0.001000,0.001000
1012.211538,0.031202,0.001000,0.001000,0.001000,0.001000,0.001000
1012.230769,0.030268,0.001000,0.001000,0.001000,0.001000,0.001000
1012.250000,0.029317,0.001000,0.001000,0.001000,0.001000,0.001000
1012.269231,0.028350,0.001000,0.001000,0.001000,0.001000,0.001000
1012.288462,0.027367,0.001000,0.001000,0.001000,0.001000,0.001000
1012.307692,0.026369,0.001000,0.001000,0.001000,0.001000,0.001000
1012.326923,0.025356,0.001000,0.001000,0.001000,0.001000,0.001000
1012.346154,0.024329,0.001000,0.001000,0.001000,0.001000,0.001000
1012.365385,0.023288,0.001000,0.001000,0.001000,0.001000,0.001000
1012.384615,0.022234,0.001000,0.001000,0.001000,0.001000,0.001000
1012.403846,0.021167,0.001000,0.001000,0.001000,0.001000,0.001000
1012.423077,0.020089,0.001000,0.001000,0.001000,0.001000,0.001000
1012.442308,0.018999,0.001000,0.001000,0.001000,0.001000,0.001000
1012.461538,0.017899,0.001000,0.001000,0.001000,0.001000,0.001000
1012.480769,0.016789,0.001000,0.001000,0.001000,0.001000,0.001000
1012.500000,0.015669,0.001000,0.001000,0.001000,0.001000,0.001000
1012.519231,0.014541,0.001000,0.001000,0.001000,0.001000,0.001000
1012.538462,0.013404,0.001000,0.001000,0.001000,0.001000,0.001000
1012.557692,0.012260,0.001000,0.001000,0.001000,0.001000,0.001000
1012.576923,0.011109,0.001000,0.001000,0.001000,0.001000,0.001000
1012.596154,0.009952,0.001000,0.001000,0.001000,0.001000,0.001000
1012.615385,0.008789,0.001000,0.001000,0.001000,0.001000,0.001000
1012.634615,0.007622,0.001000,0.001000,0.001000,0.001000,0.001000
1012.653846,0.006450,0.001000,0.001000,0.001000,0.001000,0.001000
1012.673077,0.005274,0.001000,0.001000,0.001000,0.001000,0.001000
1012.692308,0.004095,0.001000,0.001000,0.001000,0.001000,0.001000
1012.711538,0.002915,0.001000,0.001000,0.001000,0.001000,0.001000
1012.730769,0.001732,0.001000,0.001000,0.001000,0.001000,0.001000
1012.750000,0.000549,0.001000,0.001000,0.001000,0.001000,0.001000
1012.769231,-0.000635,0.001000,0.001000,0.001000,0.001000,0.001000
1012.788462,-0.001819,0.001000,0.001000,0.001000,0.001000,0.001000
1012.807692,-0.003001,0.001000,0.001000,0.001000,0.001000,0.001000
1012.826923,-0.004182,0.001000,0.001000,0.001000,0.001000,0.001000
1012.846154,-0.005360,0.001000,0.001000,0.001000,0.001000,0.001000
1012.865385,-0.006535,0.001000,0.001000,0.001000,0.001000,0.001000
1012.884615,-0.007707,0.001000,0.001000,0.001000,0.001000,0.001000
1012.903846,-0.008874,0.001000,0.001000,0.001000,0.001000,0.001000
1012.923077,-0.010037,0.001000,0.001000,0.001000,0.001000,0.001000
1012.942308,-0.011194,0.001000,0.001000,0.001000,0.001000,0.001000
1012.961538,-0.012344,0.001000,0.001000,0.001000,0.001000,0.001000
1012.980769,-0.013488,0.001000,0.001000,0.001000,0.001000,0.001000
1013.000000,-0.014624,0.001000,0.001000,0.001000,0.001000,0.001000
1013.019231,-0.015751,0.001000,0.001000,0.001000,0.001000,0.001000
1013.038462,-0.016870,0.001000,0.001000,0.001000,0.001000,0.001000
1013.057692,-0.017980,0.001000,0.001000,0.001000,0.001000,0.001000
1013.076923,-0.019079,0.001000,0.001000,0.001000,0.001000,0.001000
1013.096154,-0.020168,0.001000,0.001000,0.001000,0.001000,0.001000
1013.115385,-0.021246,0.001000,0.001000,0.001000,0.001000,0.001000
1013.134615,-0.022311,0.001000,0.001000,0.001000,0.001000,0.001000
1013.153846,-0.023364,0.001000,0.001000,0.001000,0.001000,0.001000
1013.173077,-0.024404,0.001000,0.001000,0.001000,0.001000,0.001000
1013.192308,-0.025430,0.001000,0.001000,0.001000,0.001000,0.001000
1013.211538,-0.026442,0.001000,0.001000,0.001000,0.001000,0.001000
1013.230769,-0.027440,0.001000,0.001000,0.001000,0.001000,0.001000
1013.250000,-0.028421,0.001000,0.001000,0.001000,0.001000,0.001000
1013.269231,-0.029387,0.001000,0.001000,0.001000,0.001000,0.001000
1013.288462,-0.030337,0.001000,0.001000,0.001000,0.001000,0.001000
1013.307692,-0.031269,0.001000,0.001000,0.001000,0.001000,0.001000
1013.326923,-0.032184,0.001000,0.001000,0.001000,0.001000,0.001000
1013.346154,-0.033081,0.001000,0.001000,0.001000,0.001000,0.001000
1013.365385,-0.033959,0.001000,0.001000,0.001000,0.001000,0.001000
1013.384615,-0.034818,0.001000,0.001000,0.001000,0.001000,0.001000
1013.403846,-0.035658,0.001000,0.001000,0.001000,0.001000,0.001000
1013.423077,-0.036478,0.001000,0.001000,0.001000,0.001000,0.001000
1013.442308,-0.037277,0.001000,0.001000,0.001000,0.001000,0.001000
1013.461538,-0.038056,0.001000,0.001000,0.001000,0.001000,0.001000
1013.480769,-0.038813,0.001000,0.001000,0.001000,0.001000,0.001000
1013.500000,-0.039548,0.001000,0.001000,0.001000,0.001000,0.001000
1013.519231,-0.040261,0.001000,0.001000,0.001000,0.001000,0.001000
1013.538462,-0.040952,0.001000,0.001000,0.001000,0.001000,0.001000
1013.557692,-0.041620,0.001000,0.001000,0.001000,0.001000,0.001000
1013.576923,-0.042264,0.001000,0.001000,0.001000,0.001000,0.001000
1013.596154,-0.042884,0.001000,0.001000,0.001000,0.001000,0.001000
1013.615385,-0.043481,0.001000,0.001000,0.001000,0.001000,0.001000
1013.634615,-0.044053,0.001000,0.001000,0.001000,0.001000,0.001000
1013.653846,-0.044601,0.001000,0.001000,0.001000,0.001000,0.001000
1013.673077,-0.045123,0.001000,0.001000,0.001000,0.001000,0.001000
1013.692308,-0.045621,0.001000,0.001000,0.001000,0.001000,0.001000
1013.711538,-0.046092,0.001000,0.001000,0.001000,0.001000,0.001000
1013.730769,-0.046538,0.001000,0.001000,0.001000,0.001000,0.001000
1013.750000,-0.046958,0.001000,0.001000,0.001000,0.001000,0.001000
1013.769231,-0.047351,0.001000,0.001000,0.001000,0.001000,0.001000
1013.788462,-0.047718,0.001000,0.001000,0.001000,0.001000,0.001000
1013.807692,-0.048058,0.001000,0.001000,0.001000,0.001000,0.001000
1013.826923,-0.048371,0.001000,0.001000,0.001000,0.001000,0.001000
1013.846154,-0.048658,0.001000,0.001000,0.001000,0.001000,0.001000
1013.865385,-0.048916,0.001000,0.001000,0.001000,0.001000,0.001000
1013.884615,-0.049148,0.001000,0.001000,0.001000,0.001000,0.001000
1013.903846,-0.049352,0.001000,0.001000,0.001000,0.001000,0.001000
1013.923077,-0.049528,0.001000,0.001000,0.001000,0.001000,0.001000
1013.942308,-0.049676,0.001000,0.001000,0.001000,0.001000,0.001000
1013.961538,-0.049797,0.001000,0.001000,0.001000,0.001000,0.001000
1013.980769,-0.049889,0.001000,0.001000,0.001000,0.001000,0.001000
1014.000000,-0.049954,0.001000,0.001000,0.001000,0.001000,0.001000
1014.019231,-0.049991,0.001000,0.001000,0.001000,0.001000,0.001000
1014.038462,-0.049999,0.001000,0.001000,0.001000,0.001000,0.001000
1014.057692,-0.049980,0.001000,0.001000,0.001000,0.001000,0.001000
1014.076923,-0.049933,0.001000,0.001000,0.001000,0.001000,0.001000
1014.096154,-0.049857,0.001000,0.001000,0.001000,0.001000,0.001000
1014.115385,-0.049754,0.001000,0.001000,0.001000,0.001000,0.001000
1014.134615,-0.049623,0.001000,0.001000,0.001000,0.001000,0.001000
1014.153846,-0.049464,0.001000,0.001000,0.001000,0.001000,0.001000
1014.173077,-0.049277,0.001000,0.001000,0.001000,0.001000,0.001000
1014.192308,-0.049063,0.001000,0.001000,0.001000,0.001000,0.001000
1014.211538,-0.048821,0.001000,0.001000,0.001000,0.001000,0.001000
1014.230769,-0.048552,0.001000,0.001000,0.001000,0.001000,0.001000
1014.250000,-0.048255,0.001000,0.001000,0.001000,0.001000,0.001000
1014.269231,-0.047932,0.001000,0.001000,0.001000,0.001000,0.001000
1014.288462,-0.047582,0.001000,0.001000,0.001000,0.001000,0.001000
1014.307692,-0.047205,0.001000,0.001000,0.001000,0.001000,0.001000
1014.326923,-0.046801,0.001000,0.001000,0.001000,0.001000,0.001000
1014.346154,-0.046372,0.001000,0.001000,0.001000,0.001000,0.001000
1014.365385,-0.045916,0.001000,0.001000,0.001000,0.001000,0.001000
1014.384615,-0.045434,0.001000,0.001000,0.001000,0.001000,0.001000
1014.403846,-0.044928,0.001000,0.001000,0.001000,0.001000,0.001000
1014.423077,-0.044395,0.001000,0.001000,0.001000,0.001000,0.001000
1014.442308,-0.043838,0.001000,0.001000,0.001000,0.001000,0.001000
1014.461538,-0.043257,0.001000,0.001000,0.001000,0.001000,0.001000
1014.480769,-0.042651,0.001000,0.001000,0.001000,0.001000,0.001000
1014.500000,-0.042021,0.001000,0.001000,0.001000,0.001000,0.001000
1014.519231,-0.041368,0.001000,0.001000,0.001000,0.001000,0.001000
1014.538462,-0.040692,0.001000,0.001000,0.001000,0.001000,0.001000
1014.557692,-0.039993,0.001000,0.001000,0.001000,0.001000,0.001000
1014.576923,-0.039271,0.001000,0.001000,0.001000,0.001000,0.001000
1014.596154,-0.038527,0.001000,0.001000,0.001000,0.001000,0.001000
1014.615385,-0.037762,0.001000,0.001000,0.001000,0.001000,0.001000
1014.634615,-0.036976,0.001000,0.001000,0.001000,0.001000,0.001000
1014.653846,-0.036168,0.001000,0.001000,0.001000,0.001000,0.001000
1014.673077,-0.035341,0.001000,0.001000,0.001000,0.001000,0.001000
1014.692308,-0.034494,0.001000,0.001000,0.001000,0.001000,0.001000
1014.711538,-0.033627,0.001000,0.001000,0.001000,0.001000,0.001000
1014.730769,-0.032742,0.001000,0.001000,0.001000,0.001000,0.001000
1014.750000,-0.031838,0.001000,0.001000,0.001000,0.001000,0.001000
1014.769231,-0.030917,0.001000,0.001000,0.001000,0.001000,0.001000
1014.788462,-0.029978,0.001000,0.001000,0.001000,0.001000,0.001000
1014.807692,-0.029022,0.001000,0.001000,0.001000,0.001000,0.001000
1014.826923,-0.028050,0.001000,0.001000,0.001000,0.001000,0.001000
1014.846154,-0.027062,0.001000,0.001000,0.001000,0.001000,0.001000
1014.865385,-0.026059,0.001000,0.001000,0.001000,0.001000,0.001000
1014.884615,-0.025042,0.001000,0.001000,0.001000,0.001000,0.001000
1014.903846,-0.024010,0.001000,0.001000,0.001000,0.001000,0.001000
1014.923077,-0.022965,0.001000,0.001000,0.001000,0.001000,0.001000
1014.942308,-0.021907,0.001000,0.001000,0.001000,0.001000,0.001000
1014.961538,-0.020837,0.001000,0.001000,0.001000,0.001000,0.001000
1014.980769,-0.019755,0.001000,0.001000,0.001000,0.001000,0.001000
1015.000000,-0.018662,0.001000,0.001000,0.001000,0.001000,0.001000
1015.019231,-0.017559,0.001000,0.001000,0.001000,0.001000,0.001000
1015.038462,-0.016446,0.001000,0.001000,0.001000,0.001000,0.001000
1015.057692,-0.015323,0.001000,0.001000,0.001000,0.001000,0.001000
1015.076923,-0.014192,0.001000,0.001000,0.001000,0.001000,0.001000
1015.096154,-0.013053,0.001000,0.001000,0.001000,0.001000,0.001000
1015.115385,-0.011907,0.001000,0.001000,0.001000,0.001000,0.001000
1015.134615,-0.010754,0.001000,0.001000,0.001000,0.001000,0.001000
1015.153846,-0.009595,0.001000,0.001000,0.001000,0.001000,0.001000
1015.173077,-0.008431,0.001000,0.001000,0.001000,0.001000,0.001000
1015.192308,-0.007262,0.001000,0.001000,0.001000,0.001000,0.001000
1015.211538,-0.006089,0.001000,0.001000,0.001000,0.001000,0.001000
1015.230769,-0.004912,0.001000,0.001000,0.001000,0.001000,0.001000
1015.250000,-0.003733,0.001000,0.001000,0.001000,0.001000,0.001000
1015.269231,-0.002551,0.001000,0.001000,0.001000,0.001000,0.001000
1015.288462,-0.001368,0.001000,0.001000,0.001000,0.001000,0.001000
1015.307692,-0.000185,0.001000,0.001000,0.001000,0.001000,0.001000
1015.326923,0.000999,0.001000,0.001000,0.001000,0.001000,0.001000
1015.346154,0.002182,0.001000,0.001000,0.001000,0.001000,0.001000
1015.365385,0.003364,0.001000,0.001000,0.001000,0.001000,0.001000
1015.384615,0.004544,0.001000,0.001000,0.001000,0.001000,0.001000
1015.403846,0.005722,0.001000,0.001000,0.001000,0.001000,0.001000
1015.423077,0.006896,0.001000,0.001000,0.001000,0.001000,0.001000
1015.442308,0.008066,0.001000,0.001000,0.001000,0.001000,0.001000
1015.461538,0.009232,0.001000,0.001000,0.001000,0.001000,0.001000
1015.480769,0.010393,0.001000,0.001000,0.001000,0.001000,0.001000
1015.500000,0.011548,0.001000,0.001000,0.001000,0.001000,0.001000
1015.519231,0.012696,0.001000,0.001000,0.001000,0.001000,0.001000
1015.538462,0.013838,0.001000,0.001000,0.001000,0.001000,0.001000
1015.557692,0.014971,0.001000,0.001000,0.001000,0.001000,0.001000
1015.576923,0.016096,0.001000,0.001000,0.001000,0.001000,0.001000
1015.596154,0.017212,0.001000,0.001000,0.001000,0.001000,0.001000
1015.615385,0.018319,0.001000,0.001000,0.001000,0.001000,0.001000
1015.634615,0.019415,0.001000,0.001000,0.001000,0.001000,0.001000
1015.653846,0.020501,0.001000,0.001000,0.001000,0.001000,0.001000
1015.673077,0.021574,0.001000,0.001000,0.001000,0.001000,0.001000
1015.692308,0.022636,0.001000,0.001000,0.001000,0.001000,0.001000
1015.711538,0.023685,0.001000,0.001000,0.001000,0.001000,0.001000
1015.730769,0.024721,0.001000,0.001000,0.001000,0.001000,0.001000
1015.750000,0.025743,0.001000,0.001000,0.001000,0.001000,0.001000
1015.769231,0.026751,0.001000,0.001000,0.001000,0.001000,0.001000
1015.788462,0.027743,0.001000,0.001000,0.001000,0.001000,0.001000
1015.807692,0.028720,0.001000,0.001000,0.001000,0.001000,0.001000
1015.826923,0.029681,0.001000,0.001000,0.001000,0.001000,0.001000
1015.846154,0.030625,0.001000,0.001000,0.001000,0.001000,0.001000
1015.865385,0.031552,0.001000,0.001000,0.001000,0.001000,0.001000
1015.884615,0.032462,0.001000,0.001000,0.001000,0.001000,0.001000
1015.903846,0.033353,0.001000,0.001000,0.001000,0.001000,0.001000
1015.923077,0.034225,0.001000,0.001000,0.001000,0.001000,0.001000
1015.942308,0.035079,0.001000,0.001000,0.001000,0.001000,0.001000
1015.961538,0.035912,0.001000,0.001000,0.001000,0.001000,0.001000
1015.980769,0.036726,0.001000,0.001000,0.001000,0.001000,0.001000
1016.000000,0.037519,0.001000,0.001000,0.001000,0.001000,0.001000
1016.019231,0.038291,0.001000,0.001000,0.001000,0.001000,0.001000
1016.038462,0.039041,0.001000,0.001000,0.001000,0.001000,0.001000
1016.057692,0.039770,0.001000,0.001000,0.001000,0.001000,0.001000
1016.076923,0.040476,0.001000,0.001000,0.001000,0.001000,0.001000
1016.096154,0.041160,0.001000,0.001000,0.001000,0.001000,0.001000
1016.115385,0.041820,0.001000,0.001000,0.001000,0.001000,0.001000
1016.134615,0.042457,0.001000,0.001000,0.001000,0.001000,0.001000
1016.153846,0.043070,0.001000,0.001000,0.001000,0.001000,0.001000
1016.173077,0.043660,0.001000,0.001000,0.001000,0.001000,0.001000
1016.192308,0.044224,0.001000,0.001000,0.001000,0.001000,0.001000
1016.211538,0.044764,0.001000,0.001000,0.001000,0.001000,0.001000
1016.230769,0.045279,0.001000,0.001000,0.001000,0.001000,0.001000
1016.250000,0.045768,0.001000,0.001000,0.001000,0.001000,0.001000
1016.269231,0.046232,0.001000,0.001000,0.001000,0.001000,0.001000
1016.288462,0.046670,0.001000,0.001000,0.001000,0.001000,0.001000
1016.307692,0.047082,0.001000,0.001000,0.001000,0.001000,0.001000
1016.326923,0.047467,0.001000,0.001000,0.001000,0.001000,0.001000
1016.346154,0.047825,0.001000,0.001000,0.001000,0.001000,0.001000
1016.365385,0.048157,0.001000,0.001000,0.001000,0.001000,0.001000
1016.384615,0.048462,0.001000,0.001000,0.001000,0.001000,0.001000
1016.403846,0.048740,0.001000,0.001000,0.001000,0.001000,0.001000
1016.423077,0.048990,0.001000,0.001000,0.001000,0.001000,0.001000
1016.442308,0.049213,0.001000,0.001000,0.001000,0.001000,0.001000
1016.461538,0.049409,0.001000,0.001000,0.001000,0.001000,0.001000
1016.480769,0.049576,0.001000,0.001000,0.001000,0.001000,0.001000
1016.500000,0.049716,0.001000,0.001000,0.001000,0.001000,0.001000
1016.519231,0.049828,0.001000,0.001000,0.001000,0.001000,0.001000
1016.538462,0.049912,0.001000,0.001000,0.001000,0.001000,0.001000
1016.557692,0.049968,0.001000,0.001000,0.001000,0.001000,0.001000
1016.576923,0.049996,0.001000,0.001000,0.001000,0.001000,0.001000
1016.596154,0.049997,0.001000,0.001000,0.001000,0.001000,0.001000
1016.615385,0.049969,0.001000,0.001000,0.001000,0.001000,0.001000
1016.634615,0.049913,0.001000,0.001000,0.001000,0.001000,0.001000
1016.653846,0.049829,0.001000,0.001000,0.001000,0.001000,0.001000
1016.673077,0.049717,0.001000,0.001000,0.001000,0.001000,0.001000
1016.692308,0.049577,0.001000,0.001000,0.001000,0.001000,0.001000
1016.711538,0.049410,0.001000,0.001000,0.001000,0.001000,0.001000
1016.730769,0.049214,0.001000,0.001000,0.001000,0.001000,0.001000
1016.750000,0.048992,0.001000,0.001000,0.001000,0.001000,0.001000
1016.769231,0.048741,0.001000,0.001000,0.001000,0.001000,0.001000
1016.788462,0.048464,0.001000,0.001000,0.001000,0.001000,0.001000
1016.807692,0.048159,0.001000,0.001000,0.001000,0.001000,0.001000
1016.826923,0.047827,0.001000,0.001000,0.001000,0.001000,0.001000
1016.846154,0.047469,0.001000,0.001000,0.001000,0.001000,0.001000
1016.865385,0.047083,0.001000,0.001000,0.001000,0.001000,0.001000
1016.884615,0.046672,0.001000,0.001000,0.001000,0.001000,0.001000
1016.903846,0.046234,0.001000,0.001000,0.001000,0.001000,0.001000
1016.923077,0.045771,0.001000,0.001000,0.001000,0.001000,0.001000
1016.942308,0.045281,0.001000,0.001000,0.001000,0.001000,0.001000
1016.961538,0.044767,0.001000,0.001000,0.001000,0.001000,0.001000
1016.980769,0.044227,0.001000,0.001000,0.001000,0.001000,0.001000
1017.000000,0.043662,0.001000,0.001000,0.001000,0.001000,0.001000
1017.019231,0.043073,0.001000,0.001000,0.001000,0.001000,0.001000
1017.038462,0.042460,0.001000,0.001000,0.001000,0.001000,0.001000
1017.057692,0.041823,0.001000,0.001000,0.001000,0.001000,0.001000
1017.076923,0.041163,0.001000,0.001000,0.001000,0.001000,0.001000
1017.096154,0.040479,0.001000,0.001000,0.001000,0.001000,0.001000
1017.115385,0.039773,0.001000,0.001000,0.001000,0.001000,0.001000
1017.134615,0.039045,0.001000,0.001000,0.001000,0.001000,0.001000
1017.153846,0.038294,0.001000,0.001000,0.001000,0.001000,0.001000
1017.173077,0.037523,0.001000,0.001000,0.001000,0.001000,0.001000
1017.192308,0.036730,0.001000,0.001000,0.001000,0.001000,0.001000
1017.211538,0.035916,0.001000,0.001000,0.001000,0.001000,0.001000
1017.230769,0.035083,0.001000,0.001000,0.001000,0.001000,0.001000
1017.250000,0.034230,0.001000,0.001000,0.001000,0.001000,0.001000
1017.269231,0.033357,0.001000,0.001000,0.001000,0.001000,0.001000
1017.288462,0.032466,0.001000,0.001000,0.001000,0.001000,0.001000
1017.307692,0.031557,0.001000,0.001000,0.001000,0.001000,0.001000
1017.326923,0.030630,0.001000,0.001000,0.001000,0.001000,0.001000
1017.346154,0.029686,0.001000,0.001000,0.001000,0.001000,0.001000
1017.365385,0.028725,0.001000,0.001000,0.001000,0.001000,0.001000
1017.384615,0.027748,0.001000,0.001000,0.001000,0.001000,0.001000
1017.403846,0.026755,0.001000,0.001000,0.001000,0.001000,0.001000
1017.423077,0.025748,0.001000,0.001000,0.001000,0.001000,0.001000
1017.442308,0.024726,0.001000,0.001000,0.001000,0.001000,0.001000
1017.461538,0.023690,0.001000,0.001000,0.001000,0.001000,0.001000
1017.480769,0.022641,0.001000,0.001000,0.001000,0.001000,0.001000
1017.500000,0.021580,0.001000,0.001000,0.001000,0.001000,0.001000
1017.519231,0.020506,0.001000,0.001000,0.001000,0.001000,0.001000
1017.538462,0.019421,0.001000,0.001000,0.001000,0.001000,0.001000
1017.557692,0.018324,0.001000,0.001000,0.001000,0.001000,0.001000
1017.576923,0.017218,0.001000,0.001000,0.001000,0.001000,0.001000
1017.596154,0.016102,0.001000,0.001000,0.001000,0.001000,0.001000
1017.615385,0.014977,0.001000,0.001000,0.001000,0.001000,0.001000
1017.634615,0.013843,0.001000,0.001000,0.001000,0.001000,0.001000
1017.653846,0.012702,0.001000,0.001000,0.001000,0.001000,0.001000
1017.673077,0.011554,0.001000,0.001000,0.001000,0.001000,0.001000
1017.692308,0.010399,0.001000,0.001000,0.001000,0.001000,0.001000
1017.711538,0.009238,0.001000,0.001000,0.001000,0.001000,0.001000
1017.730769,0.008072,0.001000,0.001000,0.001000,0.001000,0.001000
1017.750000,0.006902,0.001000,0.001000,0.001000,0.001000,0.001000
1017.769231,0.005727,0.001000,0.001000,0.001000,0.001000,0.001000
1017.788462,0.004550,0.001000,0.001000,0.001000,0.001000,0.001000
1017.807692,0.003370,0.001000,0.001000,0.001000,0.001000,0.001000
1017.826923,0.002188,0.001000,0.001000,0.001000,0.001000,0.001000
1017.846154,0.001005,0.001000,0.001000,0.001000,0.001000,0.001000
1017.865385,-0.000179,0.001000,0.001000,0.001000,0.001000,0.001000
1017.884615,-0.001363,0.001000,0.001000,0.001000,0.001000,0.001000
1017.903846,-0.002545,0.001000,0.001000,0.001000,0.001000,0.001000
1017.923077,-0.003727,0.001000,0.001000,0.001000,0.001000,0.001000
1017.942308,-0.004906,0.001000,0.001000,0.001000,0.001000,0.001000
1017.961538,-0.006083,0.001000,0.001000,0.001000,0.001000,0.001000
1017.980769,-0.007256,0.001000,0.001000,0.001000,0.001000,0.001000
1018.000000,-0.008425,0.001000,0.001000,0.001000,0.001000,0.001000
1018.019231,-0.009589,0.001000,0.001000,0.001000,0.001000,0.001000
1018.038462,-0.010748,0.001000,0.001000,0.001000,0.001000,0.001000
1018.057692,-0.011901,0.001000,0.001000,0.001000,0.001000,0.001000
1018.076923,-0.013048,0.001000,0.001000,0.001000,0.001000,0.001000
1018.096154,-0.014187,0.001000,0.001000,0.001000,0.001000,0.001000
1018.115385,-0.015318,0.001000,0.001000,0.001000,0.001000,0.001000
1018.134615,-0.016440,0.001000,0.001000,0.001000,0.001000,0.001000
1018.153846,-0.017554,0.001000,0.001000,0.001000,0.001000,0.001000
1018.173077,-0.018657,0.001000,0.001000,0.001000,0.001000,0.001000
1018.192308,-0.019750,0.001000,0.001000,0.001000,0.001000,0.001000
1018.211538,-0.020832,0.001000,0.001000,0.001000,0.001000,0.001000
1018.230769,-0.021902,0.001000,0.001000,0.001000,0.001000,0.001000
1018.250000,-0.022960,0.001000,0.001000,0.001000,0.001000,0.001000
1018.269231,-0.024005,0.001000,0.001000,0.001000,0.001000,0.001000
1018.288462,-0.025037,0.001000,0.001000,0.001000,0.001000,0.001000
1018.307692,-0.026054,0.001000,0.001000,0.001000,0.001000,0.001000
1018.326923,-0.027057,0.001000,0.001000,0.001000,0.001000,0.001000
1018.346154,-0.028045,0.001000,0.001000,0.001000,0.001000,0.001000
1018.365385,-0.029017,0.001000,0.001000,0.001000,0.001000,0.001000
1018.384615,-0.029973,0.001000,0.001000,0.001000,0.001000,0.001000
1018.403846,-0.030912,0.001000,0.001000,0.001000,0.001000,0.001000
1018.423077,-0.031834,0.001000,0.001000,0.001000,0.001000,0.001000
1018.442308,-0.032737,0.001000,0.001000,0.001000,0.001000,0.001000
1018.461538,-0.033623,0.001000,0.001000,0.001000,0.001000,0.001000
1018.480769,-0.034490,0.001000,0.001000,0.001000,0.001000,0.001000
1018.500000,-0.035337,0.001000,0.001000,0.001000,0.001000,0.001000
1018.519231,-0.036164,0.001000,0.001000,0.001000,0.001000,0.001000
1018.538462,-0.036972,0.001000,0.001000,0.001000,0.001000,0.001000
1018.557692,-0.037758,0.001000,0.001000,0.001000,0.001000,0.001000
1018.576923,-0.038524,0.001000,0.001000,0.001000,0.001000,0.001000
1018.596154,-0.039267,0.001000,0.001000,0.001000,0.001000,0.001000
1018.615385,-0.039989,0.001000,0.001000,0.001000,0.001000,0.001000
1018.634615,-0.040688,0.001000,0.001000,0.001000,0.001000,0.001000
1018.653846,-0.041365,0.001000,0.001000,0.001000,0.001000,0.001000
1018.673077,-0.042018,0.001000,0.001000,0.001000,0.001000,0.001000
1018.692308,-0.042648,0.001000,0.001000,0.001000,0.001000,0.001000
1018.711538,-0.043254,0.001000,0.001000,0.001000,0.001000,0.001000
1018.730769,-0.043836,0.001000,0.001000,0.001000,0.001000,0.001000
1018.750000,-0.044393,0.001000,0.001000,0.001000,0.001000,0.001000
1018.769231,-0.044925,0.001000,0.001000,0.001000,0.001000,0.001000
1018.788462,-0.045432,0.001000,0.001000,0.001000,0.001000,0.001000
1018.807692,-0.045913,0.001000,0.001000,0.001000,0.001000,0.001000
1018.826923,-0.046369,0.001000,0.001000,0.001000,0.001000,0.001000
1018.846154,-0.046799,0.001000,0.001000,0.001000,0.001000,0.001000
1018.865385,-0.047203,0.001000,0.001000,0.001000,0.001000,0.001000
1018.884615,-0.047580,0.001000,0.001000,0.001000,0.001000,0.001000
1018.903846,-0.047930,0.001000,0.001000,0.001000,0.001000,0.001000
1018.923077,-0.048254,0.001000,0.001000,0.001000,0.001000,0.001000
1018.942308,-0.048550,0.001000,0.001000,0.001000,0.001000,0.001000
1018.961538,-0.048820,0.001000,0.001000,0.001000,0.001000,0.001000
1018.980769,-0.049062,0.001000,0.001000,0.001000,0.001000,0.001000
1019.000000,-0.049276,0.001000,0.001000,0.001000,0.001000,0.001000
1019.019231,-0.049463,0.001000,0.001000,0.001000,0.001000,0.001000
1019.038462,-0.049622,0.001000,0.001000,0.001000,0.001000,0.001000
1019.057692,-0.049754,0.001000,0.001000,0.001000,0.001000,0.001000
1019.076923,-0.049857,0.001000,0.001000,0.001000,0.001000,0.001000
1019.096154,-0.049932,0.001000,0.001000,0.001000,0.001000,0.001000
1019.115385,-0.049980,0.001000,0.001000,0.001000,0.001000,0.001000
1019.134615,-0.049999,0.001000,0.001000,0.001000,0.001000,0.001000
1019.153846,-0.049991,0.001000,0.001000,0.001000,0.001000,0.001000
1019.173077,-0.049954,0.001000,0.001000,0.001000,0.001000,0.001000
1019.192308,-0.049890,0.001000,0.001000,0.001000,0.001000,0.001000
1019.211538,-0.049797,0.001000,0.001000,0.001000,0.001000,0.001000
1019.230769,-0.049677,0.001000,0.001000,0.001000,0.001000,0.001000
1019.250000,-0.049529,0.001000,0.001000,0.001000,0.001000,0.001000
1019.269231,-0.049352,0.001000,0.001000,0.001000,0.001000,0.001000
1019.288462,-0.049149,0.001000,0.001000,0.001000,0.001000,0.001000
1019.307692,-0.048918,0.001000,0.001000,0.001000,0.001000,0.001000
1019.326923,-0.048659,0.001000,0.001000,0.001000,0.001000,0.001000
1019.346154,-0.048373,0.001000,0.001000,0.001000,0.001000,0.001000
1019.365385,-0.048060,0.001000,0.001000,0.001000,0.001000,0.001000
1019.384615,-0.047720,0.001000,0.001000,0.001000,0.001000,0.001000
1019.403846,-0.047353,0.001000,0.001000,0.001000,0.001000,0.001000
1019.423077,-0.046960,0.001000,0.001000,0.001000,0.001000,0.001000
1019.442308,-0.046540,0.001000,0.001000,0.001000,0.001000,0.001000
1019.461538,-0.046094,0.001000,0.001000,0.001000,0.001000,0.001000
1019.480769,-0.045623,0.001000,0.001000,0.001000,0.001000,0.001000
1019.500000,-0.045126,0.001000,0.001000,0.001000,0.001000,0.001000
1019.519231,-0.044603,0.001000,0.001000,0.001000,0.001000,0.001000
1019.538462,-0.044056,0.001000,0.001000,0.001000,0.001000,0.001000
1019.557692,-0.043484,0.001000,0.001000,0.001000,0.001000,0.001000
1019.576923,-0.042887,0.001000,0.001000,0.001000,0.001000,0.001000
1019.596154,-0.042267,0.001000,0.001000,0.001000,0.001000,0.001000
1019.615385,-0.041623,0.001000,0.001000,0.001000,0.001000,0.001000
1019.634615,-0.040955,0.001000,0.001000,0.001000,0.001000,0.001000
1019.653846,-0.040265,0.001000,0.001000,0.001000,0.001000,0.001000
1019.673077,-0.039552,0.001000,0.001000,0.001000,0.001000,0.001000
1019.692308,-0.038816,0.001000,0.001000,0.001000,0.001000,0.001000
1019.711538,-0.038059,0.001000,0.001000,0.001000,0.001000,0.001000
1019.730769,-0.037281,0.001000,0.001000,0.001000,0.001000,0.001000
1019.750000,-0.036482,0.001000,0.001000,0.001000,0.001000,0.001000
1019.769231,-0.035662,0.001000,0.001000,0.001000,0.001000,0.001000
1019.788462,-0.034823,0.001000,0.001000,0.001000,0.001000,0.001000
1019.807692,-0.033964,0.001000,0.001000,0.001000,0.001000,0.001000
1019.826923,-0.033085,0.001000,0.001000,0.001000,0.001000,0.001000
1019.846154,-0.032189,0.001000,0.001000,0.001000,0.001000,0.001000
1019.865385,-0.031274,0.001000,0.001000,0.001000,0.001000,0.001000
1019.884615,-0.030341,0.001000,0.001000,0.001000,0.001000,0.001000
1019.903846,-0.029392,0.001000,0.001000,0.001000,0.001000,0.001000
1019.923077,-0.028426,0.001000,0.001000,0.001000,0.001000,0.001000
1019.942308,-0.027445,0.001000,0.001000,0.001000,0.001000,0.001000
1019.961538,-0.026447,0.001000,0.001000,0.001000,0.001000,0.001000
1019.980769,-0.025436,0.001000,0.001000,0.001000,0.001000,0.001000
1020.000000,-0.024409,0.001000,0.001000,0.001000,0.001000,0.001000
1020.019231,-0.023369,0.001000,0.001000,0.001000,0.001000,0.001000
1020.038462,-0.022316,0.001000,0.001000,0.001000,0.001000,0.001000
1020.057692,-0.021251,0.001000,0.001000,0.001000,0.001000,0.001000
1020.076923,-0.020174,0.001000,0.001000,0.001000,0.001000,0.001000
1020.096154,-0.019085,0.001000,0.001000,0.001000,0.001000,0.001000
1020.115385,-0.017985,0.001000,0.001000,0.001000,0.001000,0.001000
1020.134615,-0.016876,0.001000,0.001000,0.001000,0.001000,0.001000
1020.153846,-0.015757,0.001000,0.001000,0.001000,0.001000,0.001000
1020.173077,-0.014629,0.001000,0.001000,0.001000,0.001000,0.001000
1020.192308,-0.013493,0.001000,0.001000,0.001000,0.001000,0.001000
1020.211538,-0.012350,0.001000,0.001000,0.001000,0.001000,0.001000
1020.230769,-0.011199,0.001000,0.001000,0.001000,0.001000,0.001000
1020.250000,-0.010043,0.001000,0.001000,0.001000,0.001000,0.001000
1020.269231,-0.008880,0.001000,0.001000,0.001000,0.001000,0.001000
1020.288462,-0.007713,0.001000,0.001000,0.001000,0.001000,0.001000
1020.307692,-0.006541,0.001000,0.001000,0.001000,0.001000,0.001000
1020.326923,-0.005366,0.001000,0.001000,0.001000,0.001000,0.001000
1020.346154,-0.004187,0.001000,0.001000,0.001000,0.001000,0.001000
1020.365385,-0.003007,0.001000,0.001000,0.001000,0.001000,0.001000
1020.384615,-0.001824,0.001000,0.001000,0.001000,0.001000,0.001000
1020.403846,-0.000641,0.001000,0.001000,0.001000,0.001000,0.001000
1020.423077,0.000543,0.001000,0.001000,0.001000,0.001000,0.001000
1020.442308,0.001726,0.001000,0.001000,0.001000,0.001000,0.001000
1020.461538,0.002909,0.001000,0.001000,0.001000,0.001000,0.001000
1020.480769,0.004090,0.001000,0.001000,0.001000,0.001000,0.001000
1020.500000,0.005268,0.001000,0.001000,0.001000,0.001000,0.001000
1020.519231,0.006444,0.001000,0.001000,0.001000,0.001000,0.001000
1020.538462,0.007616,0.001000,0.001000,0.001000,0.001000,0.001000
1020.557692,0.008783,0.001000,0.001000,0.001000,0.001000,0.001000
1020.576923,0.009946,0.001000,0.001000,0.001000,0.001000,0.001000
1020.596154,0.011103,0.001000,0.001000,0.001000,0.001000,0.001000
1020.615385,0.012254,0.001000,0.001000,0.001000,0.001000,0.001000
1020.634615,0.013399,0.001000,0.001000,0.001000,0.001000,0.001000
1020.653846,0.014535,0.001000,0.001000,0.001000,0.001000,0.001000
1020.673077,0.015664,0.001000,0.001000,0.001000,0.001000,0.001000
1020.692308,0.016783,0.001000,0.001000,0.001000,0.001000,0.001000
1020.711538,0.017894,0.001000,0.001000,0.001000,0.001000,0.001000
1020.730769,0.018994,0.001000,0.001000,0.001000,0.001000,0.001000
1020.750000,0.020084,0.001000,0.001000,0.001000,0.001000,0.001000
1020.769231,0.021162,0.001000,0.001000,0.001000,0.001000,0.001000
1020.788462,0.022228,0.001000,0.001000,0.001000,0.001000,0.001000
1020.807692,0.023283,0.001000,0.001000,0.001000,0.001000,0.001000
1020.826923,0.024323,0.001000,0.001000,0.001000,0.001000,0.001000
1020.846154,0.025351,0.001000,0.001000,0.001000,0.001000,0.001000
1020.865385,0.026364,0.001000,0.001000,0.001000,0.001000,0.001000
1020.884615,0.027362,0.001000,0.001000,0.001000,0.001000,0.001000
1020.903846,0.028345,0.001000,0.001000,0.001000,0.001000,0.001000
1020.923077,0.029313,0.001000,0.001000,0.001000,0.001000,0.001000
1020.942308,0.030263,0.001000,0.001000,0.001000,0.001000,0.001000
1020.961538,0.031197,0.001000,0.001000,0.001000,0.001000,0.001000
1020.980769,0.032113,0.001000,0.001000,0.001000,0.001000,0.001000
1021.000000,0.033012,0.001000,0.001000,0.001000,0.001000,0.001000
1021.019231,0.033891,0.001000,0.001000,0.001000,0.001000,0.001000
1021.038462,0.034752,0.001000,0.001000,0.001000,0.001000,0.001000
1021.057692,0.035593,0.001000,0.001000,0.001000,0.001000,0.001000
1021.076923,0.036415,0.001000,0.001000,0.001000,0.001000,0.001000
1021.096154,0.037216,0.001000,0.001000,0.001000,0.001000,0.001000
1021.115385,0.037996,0.001000,0.001000,0.001000,0.001000,0.001000
1021.134615,0.038754,0.001000,0.001000,0.001000,0.001000,0.001000
1021.153846,0.039491,0.001000,0.001000,0.001000,0.001000,0.001000
1021.173077,0.040206,0.001000,0.001000,0.001000,0.001000,0.001000
1021.192308,0.040899,0.001000,0.001000,0.001000,0.001000,0.001000
1021.211538,0.041568,0.001000,0.001000,0.001000,0.001000,0.001000
1021.230769,0.042214,0.001000,0.001000,0.001000,0.001000,0.001000
1021.250000,0.042837,0.001000,0.001000,0.001000,0.001000,0.001000
1021.269231,0.043435,0.001000,0.001000,0.001000,0.001000,0.001000
1021.288462,0.044009,0.001000,0.001000,0.001000,0.001000,0.001000
1021.307692,0.044559,0.001000,0.001000,0.001000,0.001000,0.001000
1021.326923,0.045083,0.001000,0.001000,0.001000,0.001000,0.001000
1021.346154,0.045583,0.001000,0.001000,0.001000,0.001000,0.001000
1021.365385,0.046056,0.001000,0.001000,0.001000,0.001000,0.001000
1021.384615,0.046504,0.001000,0.001000,0.001000,0.001000,0.001000
1021.403846,0.046926,0.001000,0.001000,0.001000,0.001000,0.001000
1021.423077,0.047321,0.001000,0.001000,0.001000,0.001000,0.001000
1021.442308,0.047690,0.001000,0.001000,0.001000,0.001000,0.001000
1021.461538,0.048033,0.001000,0.001000,0.001000,0.001000,0.001000
1021.480769,0.048348,0.001000,0.001000,0.001000,0.001000,0.001000
1021.500000,0.048636,0.001000,0.001000,0.001000,0.001000,0.001000
1021.519231,0.048897,0.001000,0.001000,0.001000,0.001000,0.001000
1021.538462,0.049131,0.001000,0.001000,0.001000,0.001000,0.001000
1021.557692,0.049337,0.001000,0.001000,0.001000,0.001000,0.001000
1021.576923,0.049515,0.001000,0.001000,0.001000,0.001000,0.001000
1021.596154,0.049666,0.001000,0.001000,0.001000,0.001000,0.001000
1021.615385,0.049788,0.001000,0.001000,0.001000,0.001000,0.001000
1021.634615,0.049883,0.001000,0.001000,0.001000,0.001000,0.001000
1021.653846,0.049950,0.001000,0.001000,0.001000,0.001000,0.001000
1021.673077,0.049989,0.001000,0.001000,0.001000,0.001000,0.001000
1021.692308,0.050000,0.001000,0.001000,0.001000,0.001000,0.001000
1021.711538,0.049983,0.001000,0.001000,0.001000,0.001000,0.001000
1021.730769,0.049937,0.001000,0.001000,0.001000,0.001000,0.001000
1021.750000,0.049864,0.001000,0.001000,0.001000,0.001000,0.001000
1021.769231,0.049763,0.001000,0.001000,0.001000,0.001000,0.001000
1021.788462,0.049634,0.001000,0.001000,0.001000,0.001000,0.001000
1021.807692,0.049477,0.001000,0.001000,0.001000,0.001000,0.001000
1021.826923,0.049293,0.001000,0.001000,0.001000,0.001000,0.001000
1021.846154,0.049081,0.001000,0.001000,0.001000,0.001000,0.001000
1021.865385,0.048841,0.001000,0.001000,0.001000,0.001000,0.001000
1021.884615,0.048574,0.001000,0.001000,0.001000,0.001000,0.001000
1021.903846,0.048280,0.001000,0.001000,0.001000,0.001000,0.001000
1021.923077,0.047958,0.001000,0.001000,0.001000,0.001000,0.001000
1021.942308,0.047610,0.001000,0.001000,0.001000,0.001000,0.001000
1021.961538,0.047235,0.001000,0.001000,0.001000,0.001000,0.001000
1021.980769,0.046834,0.001000,0.001000,0.001000,0.001000,0.001000
1022.000000,0.046406,0.001000,0.001000,0.001000,0.001000,0.001000
1022.019231,0.045952,0.001000,0.001000,0.001000,0.001000,0.001000
1022.038462,0.045473,0.001000,0.001000,0.001000,0.001000,0.001000
1022.057692,0.044968,0.001000,0.001000,0.001000,0.001000,0.001000
1022.076923,0.044438,0.001000,0.001000,0.001000,0.001000,0.001000
1022.096154,0.043883,0.001000,0.001000,0.001000,0.001000,0.001000
1022.115385,0.043303,0.001000,0.001000,0.001000,0.001000,0.001000
1022.134615,0.042699,0.001000,0.001000,0.001000,0.001000,0.001000
1022.153846,0.042072,0.001000,0.001000,0.001000,0.001000,0.001000
1022.173077,0.041420,0.001000,0.001000,0.001000,0.001000,0.001000
1022.192308,0.040745,0.001000,0.001000,0.001000,0.001000,0.001000
1022.211538,0.040048,0.001000,0.001000,0.001000,0.001000,0.001000
1022.230769,0.039328,0.001000,0.001000,0.001000,0.001000,0.001000
1022.250000,0.038586,0.001000,0.001000,0.001000,0.001000,0.001000
1022.269231,0.037823,0.001000,0.001000,0.001000,0.001000,0.001000
1022.288462,0.037038,0.001000,0.001000,0.001000,0.001000,0.001000
1022.307692,0.036232,0.001000,0.001000,0.001000,0.001000,0.001000
1022.326923,0.035406,0.001000,0.001000,0.001000,0.001000,0.001000
1022.346154,0.034561,0.001000,0.001000,0.001000,0.001000,0.001000
1022.365385,0.033696,0.001000,0.001000,0.001000,0.001000,0.001000
1022.384615,0.032812,0.001000,0.001000,0.001000,0.001000,0.001000
1022.403846,0.031909,0.001000,0.001000,0.001000,0.001000,0.001000
1022.423077,0.030989,0.001000,0.001000,0.001000,0.001000,0.001000
1022.442308,0.030051,0.001000,0.001000,0.001000,0.001000,0.001000
1022.461538,0.029097,0.001000,0.001000,0.001000,0.001000,0.001000
1022.480769,0.028126,0.001000,0.001000,0.001000,0.001000,0.001000
1022.500000,0.027140,0.001000,0.001000,0.001000,0.001000,0.001000
1022.519231,0.026138,0.001000,0.001000,0.001000,0.001000,0.001000
1022.538462,0.025122,0.001000,0.001000,0.001000,0.001000,0.001000
1022.557692,0.024091,0.001000,0.001000,0.001000,0.001000,0.001000
1022.576923,0.023047,0.001000,0.001000,0.001000,0.001000,0.001000
1022.596154,0.021990,0.001000,0.001000,0.001000,0.001000,0.001000
1022.615385,0.020921,0.001000,0.001000,0.001000,0.001000,0.001000
1022.634615,0.019840,0.001000,0.001000,0.001000,0.001000,0.001000
1022.653846,0.018748,0.001000,0.001000,0.001000,0.001000,0.001000
1022.673077,0.017646,0.001000,0.001000,0.001000,0.001000,0.001000
1022.692308,0.016533,0.001000,0.001000,0.001000,0.001000,0.001000
1022.711538,0.015411,0.001000,0.001000,0.001000,0.001000,0.001000
1022.730769,0.014281,0.001000,0.001000,0.001000,0.001000,0.001000
1022.750000,0.013143,0.001000,0.001000,0.001000,0.001000,0.001000
1022.769231,0.011997,0.001000,0.001000,0.001000,0.001000,0.001000
1022.788462,0.010844,0.001000,0.001000,0.001000,0.001000,0.001000
1022.807692,0.009686,0.001000,0.001000,0.001000,0.001000,0.001000
1022.826923,0.008522,0.001000,0.001000,0.001000,0.001000,0.001000
1022.846154,0.007353,0.001000,0.001000,0.001000,0.001000,0.001000
1022.865385,0.006180,0.001000,0.001000,0.001000,0.001000,0.001000
1022.884615,0.005004,0.001000,0.001000,0.001000,0.001000,0.001000
1022.903846,0.003825,0.001000,0.001000,0.001000,0.001000,0.001000
1022.923077,0.002644,0.001000,0.001000,0.001000,0.001000,0.001000
1022.942308,0.001461,0.001000,0.001000,0.001000,0.001000,0.001000
1022.961538,0.000277,0.001000,0.001000,0.001000,0.001000,0.001000
1022.980769,-0.000906,0.001000,0.001000,0.001000,0.001000,0.001000
1023.000000,-0.002090,0.001000,0.001000,0.001000,0.001000,0.001000
1023.019231,-0.003272,0.001000,0.001000,0.001000,0.001000,0.001000
1023.038462,-0.004452,0.001000,0.001000,0.001000,0.001000,0.001000
1023.057692,-0.005630,0.001000,0.001000,0.001000,0.001000,0.001000
1023.076923,-0.006804,0.001000,0.001000,0.001000,0.001000,0.001000
1023.096154,-0.007975,0.001000,0.001000,0.001000,0.001000,0.001000
1023.115385,-0.009141,0.001000,0.001000,0.001000,0.001000,0.001000
1023.134615,-0.010302,0.001000,0.001000,0.001000,0.001000,0.001000
1023.153846,-0.011458,0.001000,0.001000,0.001000,0.001000,0.001000
1023.173077,-0.012607,0.001000,0.001000,0.001000,0.001000,0.001000
1023.192308,-0.013749,0.001000,0.001000,0.001000,0.001000,0.001000
1023.211538,-0.014883,0.001000,0.001000,0.001000,0.001000,0.001000
1023.230769,-0.016009,0.001000,0.001000,0.001000,0.001000,0.001000
1023.250000,-0.017126,0.001000,0.001000,0.001000,0.001000,0.001000
1023.269231,-0.018233,0.001000,0.001000,0.001000,0.001000,0.001000
1023.288462,-0.019330,0.001000,0.001000,0.001000,0.001000,0.001000
1023.307692,-0.020416,0.001000,0.001000,0.001000,0.001000,0.001000
1023.326923,-0.021491,0.001000,0.001000,0.001000,0.001000,0.001000
1023.346154,-0.022554,0.001000,0.001000,0.001000,0.001000,0.001000
1023.365385,-0.023604,0.001000,0.001000,0.001000,0.001000,0.001000
1023.384615,-0.024641,0.001000,0.001000,0.001000,0.001000,0.001000
1023.403846,-0.025664,0.001000,0.001000,0.001000,0.001000,0.001000
1023.423077,-0.026672,0.001000,0.001000,0.001000,0.001000,0.001000
1023.442308,-0.027666,0.001000,0.001000,0.001000,0.001000,0.001000
1023.461538,-0.028644,0.001000,0.001000,0.001000,0.001000,0.001000
1023.480769,-0.029606,0.001000,0.001000,0.001000,0.001000,0.001000
1023.500000,-0.030552,0.001000,0.001000,0.001000,0.001000,0.001000
1023.519231,-0.031480,0.001000,0.001000,0.001000,0.001000,0.001000
1023.538462,-0.032391,0.001000,0.001000,0.001000,0.001000,0.001000
1023.557692,-0.033284,0.001000,0.001000,0.001000,0.001000,0.001000
1023.576923,-0.034158,0.001000,0.001000,0.001000,0.001000,0.001000
1023.596154,-0.035013,0.001000,0.001000,0.001000,0.001000,0.001000
1023.615385,-0.035848,0.001000,0.001000,0.001000,0.001000,0.001000
1023.634615,-0.036663,0.001000,0.001000,0.001000,0.001000,0.001000
1023.653846,-0.037458,0.001000,0.001000,0.001000,0.001000,0.001000
1023.673077,-0.038231,0.001000,0.001000,0.001000,0.001000,0.001000
1023.692308,-0.038983,0.001000,0.001000,0.001000,0.001000,0.001000
1023.711538,-0.039714,0.001000,0.001000,0.001000,0.001000,0.001000
1023.730769,-0.040422,0.001000,0.001000,0.001000,0.001000,0.001000
1023.750000,-0.041107,0.001000,0.001000,0.001000,0.001000,0.001000
1023.769231,-0.041769,0.001000,0.001000,0.001000,0.001000,0.001000
1023.788462,-0.042408,0.001000,0.001000,0.001000,0.001000,0.001000
1023.807692,-0.043023,0.001000,0.001000,0.001000,0.001000,0.001000
1023.826923,-0.043614,0.001000,0.001000,0.001000,0.001000,0.001000
1023.846154,-0.044181,0.001000,0.001000,0.001000,0.001000,0.001000
1023.865385,-0.044723,0.001000,0.001000,0.001000,0.001000,0.001000
1023.884615,-0.045240,0.001000,0.001000,0.001000,0.001000,0.001000
1023.903846,-0.045731,0.001000,0.001000,0.001000,0.001000,0.001000
1023.923077,-0.046197,0.001000,0.001000,0.001000,0.001000,0.001000
1023.942308,-0.046637,0.001000,0.001000,0.001000,0.001000,0.001000
1023.961538,-0.047050,0.001000,0.001000,0.001000,0.001000,0.001000
1023.980769,-0.047438,0.001000,0.001000,0.001000,0.001000,0.001000
1024.000000,-0.047798,0.001000,0.001000,0.001000,0.001000,0.001000
1024.019231,-0.048132,0.001000,0.001000,0.001000,0.001000,0.001000
1024.038462,-0.048439,0.001000,0.001000,0.001000,0.001000,0.001000
1024.057692,-0.048719,0.001000,0.001000,0.001000,0.001000,0.001000
1024.076923,-0.048972,0.001000,0.001000,0.001000,0.001000,0.001000
1024.096154,-0.049197,0.001000,0.001000,0.001000,0.001000,0.001000
1024.115385,-0.049394,0.001000,0.001000,0.001000,0.001000,0.001000
1024.134615,-0.049564,0.001000,0.001000,0.001000,0.001000,0.001000
1024.153846,-0.049706,0.001000,0.001000,0.001000,0.001000,0.001000
1024.173077,-0.049820,0.001000,0.001000,0.001000,0.001000,0.001000
1024.192308,-0.049907,0.001000,0.001000,0.001000,0.001000,0.001000
1024.211538,-0.049965,0.001000,0.001000,0.001000,0.001000,0.001000
1024.230769,-0.049995,0.001000,0.001000,0.001000,0.001000,0.001000
1024.250000,-0.049998,0.001000,0.001000,0.001000,0.001000,0.001000
1024.269231,-0.049972,0.001000,0.001000,0.001000,0.001000,0.001000
1024.288462,-0.049918,0.001000,0.001000,0.001000,0.001000,0.001000
1024.307692,-0.049836,0.001000,0.001000,0.001000,0.001000,0.001000
1024.326923,-0.049727,0.001000,0.001000,0.001000,0.001000,0.001000
1024.346154,-0.049589,0.001000,0.001000,0.001000,0.001000,0.001000
1024.365385,-0.049424,0.001000,0.001000,0.001000,0.001000,0.001000
1024.384615,-0.049231,0.001000,0.001000,0.001000,0.001000,0.001000
1024.403846,-0.049010,0.001000,0.001000,0.001000,0.001000,0.001000
1024.423077,-0.048762,0.001000,0.001000,0.001000,0.001000,0.001000
1024.442308,-0.048486,0.001000,0.001000,0.001000,0.001000,0.001000
1024.461538,-0.048184,0.001000,0.001000,0.001000,0.001000,0.001000
1024.480769,-0.047854,0.001000,0.001000,0.001000,0.001000,0.001000
1024.500000,-0.047498,0.001000,0.001000,0.001000,0.001000,0.001000
1024.519231,-0.047115,0.001000,0.001000,0.001000,0.001000,0.001000
1024.538462,-0.046705,0.001000,0.001000,0.001000,0.001000,0.001000
1024.557692,-0.046269,0.001000,0.001000,0.001000,0.001000,0.001000
1024.576923,-0.045808,0.001000,0.001000,0.001000,0.001000,0.001000
1024.596154,-0.045320,0.001000,0.001000,0.001000,0.001000,0.001000
1024.615385,-0.044808,0.001000,0.001000,0.001000,0.001000,0.001000
1024.634615,-0.044270,0.001000,0.001000,0.001000,0.001000,0.001000
1024.653846,-0.043707,0.001000,0.001000,0.001000,0.001000,0.001000
1024.673077,-0.043120,0.001000,0.001000,0.001000,0.001000,0.001000
1024.692308,-0.042509,0.001000,0.001000,0.001000,0.001000,0.001000
1024.711538,-0.041874,0.001000,0.001000,0.001000,0.001000,0.001000
1024.730769,-0.041215,0.001000,0.001000,0.001000,0.001000,0.001000
1024.750000,-0.040534,0.001000,0.001000,0.001000,0.001000,0.001000
1024.769231,-0.039829,0.001000,0.001000,0.001000,0.001000,0.001000
1024.788462,-0.039102,0.001000,0.001000,0.001000,0.001000,0.001000
1024.807692,-0.038354,0.001000,0.001000,0.001000,0.001000,0.001000
1024.826923,-0.037584,0.001000,0.001000,0.001000,0.001000,0.001000
1024.846154,-0.036792,0.001000,0.001000,0.001000,0.001000,0.001000
1024.865385,-0.035981,0.001000,0.001000,0.001000,0.001000,0.001000
1024.884615,-0.035149,0.001000,0.001000,0.001000,0.001000,0.001000
1024.903846,-0.034297,0.001000,0.001000,0.001000,0.001000,0.001000
1024.923077,-0.033426,0.001000,0.001000,0.001000,0.001000,0.001000
1024.942308,-0.032536,0.001000,0.001000,0.001000,0.001000,0.001000
1024.961538,-0.031628,0.001000,0.001000,0.001000,0.001000,0.001000
1024.980769,-0.030703,0.001000,0.001000,0.001000,0.001000,0.001000
1025.000000,-0.029760,0.001000,0.001000,0.001000,0.001000,0.001000
1025.019231,-0.028800,0.001000,0.001000,0.001000,0.001000,0.001000
1025.038462,-0.027825,0.001000,0.001000,0.001000,0.001000,0.001000
1025.057692,-0.026834,0.001000,0.001000,0.001000,0.001000,0.001000
1025.076923,-0.025827,0.001000,0.001000,0.001000,0.001000,0.001000
1025.096154,-0.024806,0.001000,0.001000,0.001000,0.001000,0.001000
1025.115385,-0.023772,0.001000,0.001000,0.001000,0.001000,0.001000
1025.134615,-0.022724,0.001000,0.001000,0.001000,0.001000,0.001000
1025.153846,-0.021663,0.001000,0.001000,0.001000,0.001000,0.001000
1025.173077,-0.020590,0.001000,0.001000,0.001000,0.001000,0.001000
1025.192308,-0.019506,0.001000,0.001000,0.001000,0.001000,0.001000
1025.211538,-0.018410,0.001000,0.001000,0.001000,0.001000,0.001000
1025.230769,-0.017305,0.001000,0.001000,0.001000,0.001000,0.001000
1025.250000,-0.016189,0.001000,0.001000,0.001000,0.001000,0.001000
1025.269231,-0.015065,0.001000,0.001000,0.001000,0.001000,0.001000
1025.288462,-0.013932,0.001000,0.001000,0.001000,0.001000,0.001000
1025.307692,-0.012791,0.001000,0.001000,0.001000,0.001000,0.001000
1025.326923,-0.011643,0.001000,0.001000,0.001000,0.001000,0.001000
1025.346154,-0.010489,0.001000,0.001000,0.001000,0.001000,0.001000
1025.365385,-0.009329,0.001000,0.001000,0.001000,0.001000,0.001000
1025.384615,-0.008163,0.001000,0.001000,0.001000,0.001000,0.001000
1025.403846,-0.006993,0.001000,0.001000,0.001000,0.001000,0.001000
1025.423077,-0.005819,0.001000,0.001000,0.001000,0.001000,0.001000
1025.442308,-0.004642,0.001000,0.001000,0.001000,0.001000,0.001000
1025.461538,-0.003462,0.001000,0.001000,0.001000,0.001000,0.001000
1025.480769,-0.002280,0.001000,0.001000,0.001000,0.001000,0.001000
1025.500000,-0.001097,0.001000,0.001000,0.001000,0.001000,0.001000
1025.519231,0.000087,0.001000,0.001000,0.001000,0.001000,0.001000
1025.538462,0.001270,0.001000,0.001000,0.001000,0.001000,0.001000
1025.557692,0.002453,0.001000,0.001000,0.001000,0.001000,0.001000
1025.576923,0.003635,0.001000,0.001000,0.001000,0.001000,0.001000
1025.596154,0.004814,0.001000,0.001000,0.001000,0.001000,0.001000
1025.615385,0.005991,0.001000,0.001000,0.001000,0.001000,0.001000
1025.634615,0.007165,0.001000,0.001000,0.001000,0.001000,0.001000
1025.653846,0.008334,0.001000,0.001000,0.001000,0.001000,0.001000
1025.673077,0.009499,0.001000,0.001000,0.001000,0.001000,0.001000
1025.692308,0.010658,0.001000,0.001000,0.001000,0.001000,0.001000
1025.711538,0.011812,0.001000,0.001000,0.001000,0.001000,0.001000
1025.730769,0.012959,0.001000,0.001000,0.001000,0.001000,0.001000
1025.750000,0.014098,0.001000,0.001000,0.001000,0.001000,0.001000
1025.769231,0.015230,0.001000,0.001000,0.001000,0.001000,0.001000
1025.788462,0.016353,0.001000,0.001000,0.001000,0.001000,0.001000
1025.807692,0.017467,0.001000,0.001000,0.001000,0.001000,0.001000
1025.826923,0.018571,0.001000,0.001000,0.001000,0.001000,0.001000
1025.846154,0.019665,0.001000,0.001000,0.001000,0.001000,0.001000
1025.865385,0.020748,0.001000,0.001000,0.001000,0.001000,0.001000
1025.884615,0.021819,0.001000,0.001000,0.001000,0.001000,0.001000
1025.903846,0.022878,0.001000,0.001000,0.001000,0.001000,0.001000
1025.923077,0.023924,0.001000,0.001000,0.001000,0.001000,0.001000
1025.942308,0.024957,0.001000,0.001000,0.001000,0.001000,0.001000
1025.961538,0.025975,0.001000,0.001000,0.001000,0.001000,0.001000
1025.980769,0.026979,0.001000,0.001000,0.001000,0.001000,0.001000
1026.000000,0.027968,0.001000,0.001000,0.001000,0.001000,0.001000
1026.019231,0.028942,0.001000,0.001000,0.001000,0.001000,0.001000
1026.038462,0.029899,0.001000,0.001000,0.001000,0.001000,0.001000
1026.057692,0.030839,0.001000,0.001000,0.001000,0.001000,0.001000
1026.076923,0.031762,0.001000,0.001000,0.001000,0.001000,0.001000
1026.096154,0.032668,0.001000,0.001000,0.001000,0.001000,0.001000
1026.115385,0.033554,0.001000,0.001000,0.001000,0.001000,0.001000
1026.134615,0.034423,0.001000,0.001000,0.001000,0.001000,0.001000
1026.153846,0.035271,0.001000,0.001000,0.001000,0.001000,0.001000
1026.173077,0.036101,0.001000,0.001000,0.001000,0.001000,0.001000
1026.192308,0.036909,0.001000,0.001000,0.001000,0.001000,0.001000
1026.211538,0.037698,0.001000,0.001000,0.001000,0.001000,0.001000
1026.230769,0.038465,0.001000,0.001000,0.001000,0.001000,0.001000
1026.250000,0.039210,0.001000,0.001000,0.001000,0.001000,0.001000
1026.269231,0.039934,0.001000,0.001000,0.001000,0.001000,0.001000
1026.288462,0.040635,0.001000,0.001000,0.001000,0.001000,0.001000
1026.307692,0.041313,0.001000,0.001000,0.001000,0.001000,0.001000
1026.326923,0.041968,0.001000,0.001000,0.001000,0.001000,0.001000
1026.346154,0.042600,0.001000,0.001000,0.001000,0.001000,0.001000
1026.365385,0.043208,0.001000,0.001000,0.001000,0.001000,0.001000
1026.384615,0.043791,0.001000,0.001000,0.001000,0.001000,0.001000
1026.403846,0.044350,0.001000,0.001000,0.001000,0.001000,0.001000
1026.423077,0.044884,0.001000,0.001000,0.001000,0.001000,0.001000
1026.442308,0.045393,0.001000,0.001000,0.001000,0.001000,0.001000
1026.461538,0.045877,0.001000,0.001000,0.001000,0.001000,0.001000
1026.480769,0.046335,0.001000,0.001000,0.001000,0.001000,0.001000
1026.500000,0.046767,0.001000,0.001000,0.001000,0.001000,0.001000
1026.519231,0.047172,0.001000,0.001000,0.001000,0.001000,0.001000
1026.538462,0.047551,0.001000,0.001000,0.001000,0.001000,0.001000
1026.557692,0.047904,0.001000,0.001000,0.001000,0.001000,0.001000
1026.576923,0.048230,0.001000,0.001000,0.001000,0.001000,0.001000
1026.596154,0.048528,0.001000,0.001000,0.001000,0.001000,0.001000
1026.615385,0.048800,0.001000,0.001000,0.001000,0.001000,0.001000
1026.634615,0.049044,0.001000,0.001000,0.001000,0.001000,0.001000
1026.653846,0.049261,0.001000,0.001000,0.001000,0.001000,0.001000
1026.673077,0.049450,0.001000,0.001000,0.001000,0.001000,0.001000
1026.692308,0.049611,0.001000,0.001000,0.001000,0.001000,0.001000
1026.711538,0.049744,0.001000,0.001000,0.001000,0.001000,0.001000
1026.730769,0.049850,0.001000,0.001000,0.001000,0.001000,0.001000
1026.750000,0.049928,0.001000,0.001000,0.001000,0.001000,0.001000
1026.769231,0.049977,0.001000,0.001000,0.001000,0.001000,0.001000
1026.788462,0.049999,0.001000,0.001000,0.001000,0.001000,0.001000
1026.807692,0.049993,0.001000,0.001000,0.001000,0.001000,0.001000
1026.826923,0.049958,0.001000,0.001000,0.001000,0.001000,0.001000
1026.846154,0.049896,0.001000,0.001000,0.001000,0.001000,0.001000
1026.865385,0.049805,0.001000,0.001000,0.001000,0.001000,0.001000
1026.884615,0.049687,0.001000,0.001000,0.001000,0.001000,0.001000
1026.903846,0.049541,0.001000,0.001000,0.001000,0.001000,0.001000
1026.923077,0.049367,0.001000,0.001000,0.001000,0.001000,0.001000
1026.942308,0.049166,0.001000,0.001000,0.001000,0.001000,0.001000
1026.961538,0.048937,0.001000,0.001000,0.001000,0.001000,0.001000
1026.980769,0.048680,0.001000,0.001000,0.001000,0.001000,0.001000
1027.000000,0.048396,0.001000,0.001000,0.001000,0.001000,0.001000
1027.019231,0.048085,0.001000,0.001000,0.001000,0.001000,0.001000
1027.038462,0.047747,0.001000,0.001000,0.001000,0.001000,0.001000
1027.057692,0.047383,0.001000,0.001000,0.001000,0.001000,0.001000
1027.076923,0.046991,0.001000,0.001000,0.001000,0.001000,0.001000
1027.096154,0.046574,0.001000,0.001000,0.001000,0.001000,0.001000
1027.115385,0.046130,0.001000,0.001000,0.001000,0.001000,0.001000
1027.134615,0.045661,0.001000,0.001000,0.001000,0.001000,0.001000
1027.153846,0.045166,0.001000,0.001000,0.001000,0.001000,0.001000
1027.173077,0.044645,0.001000,0.001000,0.001000,0.001000,0.001000
1027.192308,0.044100,0.001000,0.001000,0.001000,0.001000,0.001000
1027.211538,0.043529,0.001000,0.001000,0.001000,0.001000,0.001000
1027.230769,0.042935,0.001000,0.001000,0.001000,0.001000,0.001000
1027.250000,0.042316,0.001000,0.001000,0.001000,0.001000,0.001000
1027.269231,0.041674,0.001000,0.001000,0.001000,0.001000,0.001000
1027.288462,0.041008,0.001000,0.001000,0.001000,0.001000,0.001000
1027.307692,0.040319,0.001000,0.001000,0.001000,0.001000,0.001000
1027.326923,0.039608,0.001000,0.001000,0.001000,0.001000,0.001000
1027.346154,0.038875,0.001000,0.001000,0.001000,0.001000,0.001000
1027.365385,0.038119,0.001000,0.001000,0.001000,0.001000,0.001000
1027.384615,0.037343,0.001000,0.001000,0.001000,0.001000,0.001000
1027.403846,0.036545,0.001000,0.001000,0.001000,0.001000,0.001000
1027.423077,0.035727,0.001000,0.001000,0.001000,0.001000,0.001000
1027.442308,0.034889,0.001000,0.001000,0.001000,0.001000,0.001000
1027.461538,0.034031,0.001000,0.001000,0.001000,0.001000,0.001000
1027.480769,0.033155,0.001000,0.001000,0.001000,0.001000,0.001000
1027.500000,0.032259,0.001000,0.001000,0.001000,0.001000,0.001000
1027.519231,0.031346,0.001000,0.001000,0.001000,0.001000,0.001000
1027.538462,0.030415,0.001000,0.001000,0.001000,0.001000,0.001000
1027.557692,0.029467,0.001000,0.001000,0.001000,0.001000,0.001000
1027.576923,0.028502,0.001000,0.001000,0.001000,0.001000,0.001000
1027.596154,0.027522,0.001000,0.001000,0.001000,0.001000,0.001000
1027.615385,0.026526,0.001000,0.001000,0.001000,0.001000,0.001000
1027.634615,0.025515,0.001000,0.001000,0.001000,0.001000,0.001000
1027.653846,0.024490,0.001000,0.001000,0.001000,0.001000,0.001000
1027.673077,0.023451,0.001000,0.001000,0.001000,0.001000,0.001000
1027.692308,0.022399,0.001000,0.001000,0.001000,0.001000,0.001000
1027.711538,0.021335,0.001000,0.001000,0.001000,0.001000,0.001000
1027.730769,0.020258,0.001000,0.001000,0.001000,0.001000,0.001000
1027.750000,0.019170,0.001000,0.001000,0.001000,0.001000,0.001000
1027.769231,0.018072,0.001000,0.001000,0.001000,0.001000,0.001000
1027.788462,0.016963,0.001000,0.001000,0.001000,0.001000,0.001000
1027.807692,0.015845,0.001000,0.001000,0.001000,0.001000,0.001000
1027.826923,0.014718,0.001000,0.001000,0.001000,0.001000,0.001000
1027.846154,0.013582,0.001000,0.001000,0.001000,0.001000,0.001000
1027.865385,0.012439,0.001000,0.001000,0.001000,0.001000,0.001000
1027.884615,0.011289,0.001000,0.001000,0.001000,0.001000,0.001000
1027.903846,0.010133,0.001000,0.001000,0.001000,0.001000,0.001000
1027.923077,0.008971,0.001000,0.001000,0.001000,0.001000,0.001000
1027.942308,0.007804,0.001000,0.001000,0.001000,0.001000,0.001000
1027.961538,0.006633,0.001000,0.001000,0.001000,0.001000,0.001000
1027.980769,0.005458,0.001000,0.001000,0.001000,0.001000,0.001000
1028.000000,0.004280,0.001000,0.001000,0.001000,0.001000,0.001000
1028.019231,0.003099,0.001000,0.001000,0.001000,0.001000,0.001000
1028.038462,0.001917,0.001000,0.001000,0.001000,0.001000,0.001000
1028.057692,0.000733,0.001000,0.001000,0.001000,0.001000,0.001000
1028.076923,-0.000450,0.001000,0.001000,0.001000,0.001000,0.001000
1028.096154,-0.001634,0.001000,0.001000,0.001000,0.001000,0.001000
1028.115385,-0.002816,0.001000,0.001000,0.001000,0.001000,0.001000
1028.134615,-0.003997,0.001000,0.001000,0.001000,0.001000,0.001000
1028.153846,-0.005176,0.001000,0.001000,0.001000,0.001000,0.001000
1028.173077,-0.006352,0.001000,0.001000,0.001000,0.001000,0.001000
1028.192308,-0.007524,0.001000,0.001000,0.001000,0.001000,0.001000
1028.211538,-0.008692,0.001000,0.001000,0.001000,0.001000,0.001000
1028.230769,-0.009856,0.001000,0.001000,0.001000,0.001000,0.001000
1028.250000,-0.011013,0.001000,0.001000,0.001000,0.001000,0.001000
1028.269231,-0.012165,0.001000,0.001000,0.001000,0.001000,0.001000
1028.288462,-0.013310,0.001000,0.001000,0.001000,0.001000,0.001000
1028.307692,-0.014447,0.001000,0.001000,0.001000,0.001000,0.001000
1028.326923,-0.015576,0.001000,0.001000,0.001000,0.001000,0.001000
1028.346154,-0.016696,0.001000,0.001000,0.001000,0.001000,0.001000
1028.365385,-0.017807,0.001000,0.001000,0.001000,0.001000,0.001000
1028.384615,-0.018908,0.001000,0.001000,0.001000,0.001000,0.001000
1028.403846,-0.019999,0.001000,0.001000,0.001000,0.001000,0.001000
1028.423077,-0.021078,0.001000,0.001000,0.001000,0.001000,0.001000
1028.442308,-0.022146,0.001000,0.001000,0.001000,0.001000,0.001000
1028.461538,-0.023201,0.001000,0.001000,0.001000,0.001000,0.001000
1028.480769,-0.024243,0.001000,0.001000,0.001000,0.001000,0.001000
1028.500000,-0.025271,0.001000,0.001000,0.001000,0.001000,0.001000
1028.519231,-0.026285,0.001000,0.001000,0.001000,0.001000,0.001000
1028.538462,-0.027285,0.001000,0.001000,0.001000,0.001000,0.001000
1028.557692,-0.028269,0.001000,0.001000,0.001000,0.001000,0.001000
1028.576923,-0.029238,0.001000,0.001000,0.001000,0.001000,0.001000
1028.596154,-0.030190,0.001000,0.001000,0.001000,0.001000,0.001000
1028.615385,-0.031125,0.001000,0.001000,0.001000,0.001000,0.001000
1028.634615,-0.032042,0.001000,0.001000,0.001000,0.001000,0.001000
1028.653846,-0.032942,0.001000,0.001000,0.001000,0.001000,0.001000
1028.673077,-0.033823,0.001000,0.001000,0.001000,0.001000,0.001000
1028.692308,-0.034686,0.001000,0.001000,0.001000,0.001000,0.001000
1028.711538,-0.035528,0.001000,0.001000,0.001000,0.001000,0.001000
1028.730769,-0.036351,0.001000,0.001000,0.001000,0.001000,0.001000
1028.750000,-0.037154,0.001000,0.001000,0.001000,0.001000,0.001000
1028.769231,-0.037936,0.001000,0.001000,0.001000,0.001000,0.001000
1028.788462,-0.038696,0.001000,0.001000,0.001000,0.001000,0.001000
1028.807692,-0.039435,0.001000,0.001000,0.001000,0.001000,0.001000
1028.826923,-0.040151,0.001000,0.001000,0.001000,0.001000,0.001000
1028.846154,-0.040846,0.001000,0.001000,0.001000,0.001000,0.001000
1028.865385,-0.041517,0.001000,0.001000,0.001000,0.001000,0.001000
1028.884615,-0.042165,0.001000,0.001000,0.001000,0.001000,0.001000
1028.903846,-0.042789,0.001000,0.001000,0.001000,0.001000,0.001000
1028.923077,-0.043389,0.001000,0.001000,0.001000,0.001000,0.001000
1028.942308,-0.043966,0.001000,0.001000,0.001000,0.001000,0.001000
1028.961538,-0.044517,0.001000,0.001000,0.001000,0.001000,0.001000
1028.980769,-0.045043,0.001000,0.001000,0.001000,0.001000,0.001000
1029.000000,-0.045545,0.001000,0.001000,0.001000,0.001000,0.001000
1029.019231,-0.046020,0.001000,0.001000,0.001000,0.001000,0.001000
1029.038462,-0.046470,0.001000,0.001000,0.001000,0.001000,0.001000
1029.057692,-0.046894,0.001000,0.001000,0.001000,0.001000,0.001000
1029.076923,-0.047292,0.001000,0.001000,0.001000,0.001000,0.001000
1029.096154,-0.047663,0.001000,0.001000,0.001000,0.001000,0.001000
1029.115385,-0.048007,0.001000,0.001000,0.001000,0.001000,0.001000
1029.134615,-0.048324,0.001000,0.001000,0.001000,0.001000,0.001000
1029.153846,-0.048615,0.001000,0.001000,0.001000,0.001000,0.001000
1029.173077,-0.048878,0.001000,0.001000,0.001000,0.001000,0.001000
1029.192308,-0.049113,0.001000,0.001000,0.001000,0.001000,0.001000
1029.211538,-0.049322,0.001000,0.001000,0.001000,0.001000,0.001000
1029.230769,-0.049502,0.001000,0.001000,0.001000,0.001000,0.001000
1029.250000,-0.049655,0.001000,0.001000,0.001000,0.001000,0.001000
1029.269231,-0.049780,0.001000,0.001000,0.001000,0.001000,0.001000
1029.288462,-0.049877,0.001000,0.001000,0.001000,0.001000,0.001000
1029.307692,-0.049946,0.001000,0.001000,0.001000,0.001000,0.001000
1029.326923,-0.049987,0.001000,0.001000,0.001000,0.001000,0.001000
1029.346154,-0.050000,0.001000,0.001000,0.001000,0.001000,0.001000
1029.365385,-0.049985,0.001000,0.001000,0.001000,0.001000,0.001000
1029.384615,-0.049942,0.001000,0.001000,0.001000,0.001000,0.001000
1029.403846,-0.049871,0.001000,0.001000,0.001000,0.001000,0.001000
1029.423077,-0.049772,0.001000,0.001000,0.001000,0.001000,0.001000
1029.442308,-0.049645,0.001000,0.001000,0.001000,0.001000,0.001000
1029.461538,-0.049491,0.001000,0.001000,0.001000,0.001000,0.001000
1029.480769,-0.049308,0.001000,0.001000,0.001000,0.001000,0.001000
1029.500000,-0.049098,0.001000,0.001000,0.001000,0.001000,0.001000
1029.519231,-0.048861,0.001000,0.001000,0.001000,0.001000,0.001000
1029.538462,-0.048596,0.001000,0.001000,0.001000,0.001000,0.001000
1029.557692,-0.048304,0.001000,0.001000,0.001000,0.001000,0.001000
1029.576923,-0.047984,0.001000,0.001000,0.001000,0.001000,0.001000
1029.596154,-0.047638,0.001000,0.001000,0.001000,0.001000,0.001000
1029.615385,-0.047265,0.001000,0.001000,0.001000,0.001000,0.001000
1029.634615,-0.046866,0.001000,0.001000,0.001000,0.001000,0.001000
1029.653846,-0.046440,0.001000,0.001000,0.001000,0.001000,0.001000
1029.673077,-0.045989,0.001000,0.001000,0.001000,0.001000,0.001000
1029.692308,-0.045511,0.001000,0.001000,0.001000,0.001000,0.001000
1029.711538,-0.045008,0.001000,0.001000,0.001000,0.001000,0.001000
1029.730769,-0.044480,0.001000,0.001000,0.001000,0.001000,0.001000
1029.750000,-0.043927,0.001000,0.001000,0.001000,0.001000,0.001000
1029.769231,-0.043349,0.001000,0.001000,0.001000,0.001000,0.001000
1029.788462,-0.042747,0.001000,0.001000,0.001000,0.001000,0.001000
1029.807692,-0.042121,0.001000,0.001000,0.001000,0.001000,0.001000
1029.826923,-0.041472,0.001000,0.001000,0.001000,0.001000,0.001000
1029.846154,-0.040799,0.001000,0.001000,0.001000,0.001000,0.001000
1029.865385,-0.040103,0.001000,0.001000,0.001000,0.001000,0.001000
1029.884615,-0.039385,0.001000,0.001000,0.001000,0.001000,0.001000
1029.903846,-0.038645,0.001000,0.001000,0.001000,0.001000,0.001000
1029.923077,-0.037883,0.001000,0.001000,0.001000,0.001000,0.001000
1029.942308,-0.037100,0.001000,0.001000,0.001000,0.001000,0.001000
1029.961538,-0.036296,0.001000,0.001000,0.001000,0.001000,0.001000
1029.980769,-0.035472,0.001000,0.001000,0.001000,0.001000,0.001000
1030.000000,0.000000,0.001000,0.001000,0.001000,0.001000,0.001000
1030.019231,0.001174,0.001000,0.001000,0.001000,0.001000,0.001000
1030.038462,0.002347,0.001000,0.001000,0.001000,0.001000,0.001000
1030.057692,0.003519,0.001000,0.001000,0.001000,0.001000,0.001000
1030.076923,0.004689,0.001000,0.001000,0.001000,0.001000,0.001000
1030.096154,0.005856,0.001000,0.001000,0.001000,0.001000,0.001000
1030.115385,0.007020,0.001000,0.001000,0.001000,0.001000,0.001000
1030.134615,0.008181,0.001000,0.001000,0.001000,0.001000,0.001000
1030.153846,0.009336,0.001000,0.001000,0.001000,0.001000,0.001000
1030.173077,0.010487,0.001000,0.001000,0.001000,0.001000,0.001000
1030.192308,0.011632,0.001000,0.001000,0.001000,0.001000,0.001000
1030.211538,0.012770,0.001000,0.001000,0.001000,0.001000,0.001000
1030.230769,0.013902,0.001000,0.001000,0.001000,0.001000,0.001000
1030.250000,0.015025,0.001000,0.001000,0.001000,0.001000,0.001000
1030.269231,0.016141,0.001000,0.001000,0.001000,0.001000,0.001000
1030.288462,0.017247,0.001000,0.001000,0.001000,0.001000,0.001000
1030.307692,0.018344,0.001000,0.001000,0.001000,0.001000,0.001000
1030.326923,0.019431,0.001000,0.001000,0.001000,0.001000,0.001000
1030.346154,0.020508,0.001000,0.001000,0.001000,0.001000,0.001000
1030.365385,0.021572,0.001000,0.001000,0.001000,0.001000,0.001000
1030.384615,0.022625,0.001000,0.001000,0.001000,0.001000,0.001000
1030.403846,0.023666,0.001000,0.001000,0.001000,0.001000,0.001000
1030.423077,0.024694,0.001000,0.001000,0.001000,0.001000,0.001000
1030.442308,0.025707,0.001000,0.001000,0.001000,0.001000,0.001000
1030.461538,0.026707,0.001000,0.001000,0.001000,0.001000,0.001000
1030.480769,0.027692,0.001000,0.001000,0.001000,0.001000,0.001000
1030.500000,0.028662,0.001000,0.001000,0.001000,0.001000,0.001000
1030.519231,0.029616,0.001000,0.001000,0.001000,0.001000,0.001000
1030.538462,0.030553,0.001000,0.001000,0.001000,0.001000,0.001000
1030.557692,0.031474,0.001000,0.001000,0.001000,0.001000,0.001000
1030.576923,0.032378,0.001000,0.001000,0.001000,0.001000,0.001000
1030.596154,0.033263,0.001000,0.001000,0.001000,0.001000,0.001000
1030.615385,0.034130,0.001000,0.001000,0.001000,0.001000,0.001000
1030.634615,0.034979,0.001000,0.001000,0.001000,0.001000,0.001000
1030.653846,0.035808,0.001000,0.001000,0.001000,0.001000,0.001000
1030.673077,0.036617,0.001000,0.001000,0.001000,0.001000,0.001000
1030.692308,0.037406,0.001000,0.001000,0.001000,0.001000,0.001000
1030.711538,0.038175,0.001000,0.001000,0.001000,0.001000,0.001000
1030.730769,0.038923,0.001000,0.001000,0.001000,0.001000,0.001000
1030.750000,0.039649,0.001000,0.001000,0.001000,0.001000,0.001000
1030.769231,0.040353,0.001000,0.001000,0.001000,0.001000,0.001000
1030.788462,0.041035,0.001000,0.001000,0.001000,0.001000,0.001000
1030.807692,0.041694,0.001000,0.001000,0.001000,0.001000,0.001000
1030.826923,0.042331,0.001000,0.001000,0.001000,0.001000,0.001000
1030.846154,0.042944,0.001000,0.001000,0.001000,0.001000,0.001000
1030.865385,0.043533,0.001000,0.001000,0.001000,0.001000,0.001000
1030.884615,0.044099,0.001000,0.001000,0.001000,0.001000,0.001000
1030.903846,0.044640,0.001000,0.001000,0.001000,0.001000,0.001000
1030.923077,0.045156,0.001000,0.001000,0.001000,0.001000,0.001000
1030.942308,0.045648,0.001000,0.001000,0.001000,0.001000,0.001000
1030.961538,0.046114,0.001000,0.001000,0.001000,0.001000,0.001000
1030.980769,0.046555,0.001000,0.001000,0.001000,0.001000,0.001000
1031.000000,0.046970,0.001000,0.001000,0.001000,0.001000,0.001000
1031.019231,0.047360,0.001000,0.001000,0.001000,0.001000,0.001000
1031.038462,0.047723,0.001000,0.001000,0.001000,0.001000,0.001000
1031.057692,0.048060,0.001000,0.001000,0.001000,0.001000,0.001000
1031.076923,0.048371,0.001000,0.001000,0.001000,0.001000,0.001000
1031.096154,0.048655,0.001000,0.001000,0.001000,0.001000,0.001000
1031.115385,0.048912,0.001000,0.001000,0.001000,0.001000,0.001000
1031.134615,0.049142,0.001000,0.001000,0.001000,0.001000,0.001000
1031.153846,0.049345,0.001000,0.001000,0.001000,0.001000,0.001000
1031.173077,0.049521,0.001000,0.001000,0.001000,0.001000,0.001000
1031.192308,0.049669,0.001000,0.001000,0.001000,0.001000,0.001000
1031.211538,0.049790,0.001000,0.001000,0.001000,0.001000,0.001000
1031.230769,0.049884,0.001000,0.001000,0.001000,0.001000,0.001000
1031.250000,0.049950,0.001000,0.001000,0.001000,0.001000,0.001000
1031.269231,0.049989,0.001000,0.001000,0.001000,0.001000,0.001000
1031.288462,0.050000,0.001000,0.001000,0.001000,0.001000,0.001000
1031.307692,0.049983,0.001000,0.001000,0.001000,0.001000,0.001000
1031.326923,0.049939,0.001000,0.001000,0.001000,0.001000,0.001000
1031.346154,0.049868,0.001000,0.001000,0.001000,0.001000,0.001000
1031.365385,0.049769,0.001000,0.001000,0.001000,0.001000,0.001000
1031.384615,0.049642,0.001000,0.001000,0.001000,0.001000,0.001000
1031.403846,0.049488,0.001000,0.001000,0.001000,0.001000,0.001000
1031.423077,0.049307,0.001000,0.001000,0.001000,0.001000,0.001000
1031.442308,0.049099,0.001000,0.001000,0.001000,0.001000,0.001000
1031.461538,0.048864,0.001000,0.001000,0.001000,0.001000,0.001000
1031.480769,0.048601,0.001000,0.001000,0.001000,0.001000,0.001000
1031.500000,0.048312,0.001000,0.001000,0.001000,0.001000,0.001000
1031.519231,0.047997,0.001000,0.001000,0.001000,0.001000,0.001000
1031.538462,0.047654,0.001000,0.001000,0.001000,0.001000,0.001000
1031.557692,0.047286,0.001000,0.001000,0.001000,0.001000,0.001000
1031.576923,0.046892,0.001000,0.001000,0.001000,0.001000,0.001000
1031.596154,0.046471,0.001000,0.001000,0.001000,0.001000,0.001000
1031.615385,0.046025,0.001000,0.001000,0.001000,0.001000,0.001000
1031.634615,0.045554,0.001000,0.001000,0.001000,0.001000,0.001000
1031.653846,0.045057,0.001000,0.001000,0.001000,0.001000,0.001000
1031.673077,0.044536,0.001000,0.001000,0.001000,0.001000,0.001000
1031.692308,0.043990,0.001000,0.001000,0.001000,0.001000,0.001000
1031.711538,0.043420,0.001000,0.001000,0.001000,0.001000,0.001000
1031.730769,0.042826,0.001000,0.001000,0.001000,0.001000,0.001000
1031.750000,0.042209,0.001000,0.001000,0.001000,0.001000,0.001000
1031.769231,0.041568,0.001000,0.001000,0.001000,0.001000,0.001000
1031.788462,0.040904,0.001000,0.001000,0.001000,0.001000,0.001000
1031.807692,0.040217,0.001000,0.001000,0.001000,0.001000,0.001000
1031.826923,0.039509,0.001000,0.001000,0.001000,0.001000,0.001000
1031.846154,0.038779,0.001000,0.001000,0.001000,0.001000,0.001000
1031.865385,0.038027,0.001000,0.001000,0.001000,0.001000,0.001000
1031.884615,0.037254,0.001000,0.001000,0.001000,0.001000,0.001000
1031.903846,0.036461,0.001000,0.001000,0.001000,0.001000,0.001000
1031.923077,0.035648,0.001000,0.001000,0.001000,0.001000,0.001000
1031.942308,0.034815,0.001000,0.001000,0.001000,0.001000,0.001000
1031.961538,0.033963,0.001000,0.001000,0.001000,0.001000,0.001000
1031.980769,0.033092,0.001000,0.001000,0.001000,0.001000,0.001000
1032.000000,0.032203,0.001000,0.001000,0.001000,0.001000,0.001000
1032.019231,0.031296,0.001000,0.001000,0.001000,0.001000,0.001000
1032.038462,0.030372,0.001000,0.001000,0.001000,0.001000,0.001000
1032.057692,0.029431,0.001000,0.001000,0.001000,0.001000,0.001000
1032.076923,0.028474,0.001000,0.001000,0.001000,0.001000,0.001000
1032.096154,0.027501,0.001000,0.001000,0.001000,0.001000,0.001000
1032.115385,0.026513,0.001000,0.001000,0.001000,0.001000,0.001000
1032.134615,0.025511,0.001000,0.001000,0.001000,0.001000,0.001000
1032.153846,0.024494,0.001000,0.001000,0.001000,0.001000,0.001000
1032.173077,0.023464,0.001000,0.001000,0.001000,0.001000,0.001000
1032.192308,0.022421,0.001000,0.001000,0.001000,0.001000,0.001000
1032.211538,0.021366,0.001000,0.001000,0.001000,0.001000,0.001000
1032.230769,0.020299,0.001000,0.001000,0.001000,0.001000,0.001000
1032.250000,0.019220,0.001000,0.001000,0.001000,0.001000,0.001000
1032.269231,0.018131,0.001000,0.001000,0.001000,0.001000,0.001000
1032.288462,0.017032,0.001000,0.001000,0.001000,0.001000,0.001000
1032.307692,0.015924,0.001000,0.001000,0.001000,0.001000,0.001000
1032.326923,0.014807,0.001000,0.001000,0.001000,0.001000,0.001000
1032.346154,0.013682,0.001000,0.001000,0.001000,0.001000,0.001000
1032.365385,0.012549,0.001000,0.001000,0.001000,0.001000,0.001000
1032.384615,0.011409,0.001000,0.001000,0.001000,0.001000,0.001000
1032.403846,0.010263,0.001000,0.001000,0.001000,0.001000,0.001000
1032.423077,0.009112,0.001000,0.001000,0.001000,0.001000,0.001000
1032.442308,0.007955,0.001000,0.001000,0.001000,0.001000,0.001000
1032.461538,0.006794,0.001000,0.001000,0.001000,0.001000,0.001000
1032.480769,0.005629,0.001000,0.001000,0.001000,0.001000,0.001000
1032.500000,0.004461,0.001000,0.001000,0.001000,0.001000,0.001000
1032.519231,0.003291,0.001000,0.001000,0.001000,0.001000,0.001000
1032.538462,0.002118,0.001000,0.001000,0.001000,0.001000,0.001000
1032.557692,0.000945,0.001000,0.001000,0.001000,0.001000,0.001000
1032.576923,-0.000229,0.001000,0.001000,0.001000,0.001000,0.001000
1032.596154,-0.001403,0.001000,0.001000,0.001000,0.001000,0.001000
1032.615385,-0.002576,0.001000,0.001000,0.001000,0.001000,0.001000
1032.634615,-0.003747,0.001000,0.001000,0.001000,0.001000,0.001000
1032.653846,-0.004917,0.001000,0.001000,0.001000,0.001000,0.001000
1032.673077,-0.006083,0.001000,0.001000,0.001000,0.001000,0.001000
1032.692308,-0.007247,0.001000,0.001000,0.001000,0.001000,0.001000
1032.711538,-0.008406,0.001000,0.001000,0.001000,0.001000,0.001000
1032.730769,-0.009561,0.001000,0.001000,0.001000,0.001000,0.001000
1032.750000,-0.010711,0.001000,0.001000,0.001000,0.001000,0.001000
1032.769231,-0.011854,0.001000,0.001000,0.001000,0.001000,0.001000
1032.788462,-0.012991,0.001000,0.001000,0.001000,0.001000,0.001000
1032.807692,-0.014121,0.001000,0.001000,0.001000,0.001000,0.001000
1032.826923,-0.015243,0.001000,0.001000,0.001000,0.001000,0.001000
1032.846154,-0.016357,0.001000,0.001000,0.001000,0.001000,0.001000
1032.865385,-0.017462,0.001000,0.001000,0.001000,0.001000,0.001000
1032.884615,-0.018557,0.001000,0.001000,0.001000,0.001000,0.001000
1032.903846,-0.019642,0.001000,0.001000,0.001000,0.001000,0.001000
1032.923077,-0.020716,0.001000,0.001000,0.001000,0.001000,0.001000
1032.942308,-0.021779,0.001000,0.001000,0.001000,0.001000,0.001000
1032.961538,-0.022829,0.001000,0.001000,0.001000,0.001000,0.001000
1032.980769,-0.023867,0.001000,0.001000,0.001000,0.001000,0.001000
1033.000000,-0.024892,0.001000,0.001000,0.001000,0.001000,0.001000
1033.019231,-0.025903,0.001000,0.001000,0.001000,0.001000,0.001000
1033.038462,-0.026900,0.001000,0.001000,0.001000,0.001000,0.001000
1033.057692,-0.027882,0.001000,0.001000,0.001000,0.001000,0.001000
1033.076923,-0.028849,0.001000,0.001000,0.001000,0.001000,0.001000
1033.096154,-0.029800,0.001000,0.001000,0.001000,0.001000,0.001000
1033.115385,-0.030734,0.001000,0.001000,0.001000,0.001000,0.001000
1033.134615,-0.031652,0.001000,0.001000,0.001000,0.001000,0.001000
1033.153846,-0.032552,0.001000,0.001000,0.001000,0.001000,0.001000
1033.173077,-0.033434,0.001000,0.001000,0.001000,0.001000,0.001000
1033.192308,-0.034297,0.001000,0.001000,0.001000,0.001000,0.001000
1033.211538,-0.035142,0.001000,0.001000,0.001000,0.001000,0.001000
1033.230769,-0.035967,0.001000,0.001000,0.001000,0.001000,0.001000
1033.250000,-0.036773,0.001000,0.001000,0.001000,0.001000,0.001000
1033.269231,-0.037558,0.001000,0.001000,0.001000,0.001000,0.001000
1033.288462,-0.038322,0.001000,0.001000,0.001000,0.001000,0.001000
1033.307692,-0.039066,0.001000,0.001000,0.001000,0.001000,0.001000
1033.326923,-0.039788,0.001000,0.001000,0.001000,0.001000,0.001000
1033.346154,-0.040488,0.001000,0.001000,0.001000,0.001000,0.001000
1033.365385,-0.041165,0.001000,0.001000,0.001000,0.001000,0.001000
1033.384615,-0.041820,0.001000,0.001000,0.001000,0.001000,0.001000
1033.403846,-0.042452,0.001000,0.001000,0.001000,0.001000,0.001000
1033.423077,-0.043061,0.001000,0.001000,0.001000,0.001000,0.001000
1033.442308,-0.043645,0.001000,0.001000,0.001000,0.001000,0.001000
1033.461538,-0.044206,0.001000,0.001000,0.001000,0.001000,0.001000
1033.480769,-0.044742,0.001000,0.001000,0.001000,0.001000,0.001000
1033.500000,-0.045254,0.001000,0.001000,0.001000,0.001000,0.001000
1033.519231,-0.045741,0.001000,0.001000,0.001000,0.001000,0.001000
1033.538462,-0.046202,0.001000,0.001000,0.001000,0.001000,0.001000
1033.557692,-0.046638,0.001000,0.001000,0.001000,0.001000,0.001000
1033.576923,-0.047048,0.001000,0.001000,0.001000,0.001000,0.001000
1033.596154,-0.047433,0.001000,0.001000,0.001000,0.001000,0.001000
1033.615385,-0.047791,0.001000,0.001000,0.001000,0.001000,0.001000
1033.634615,-0.048123,0.001000,0.001000,0.001000,0.001000,0.001000
1033.653846,-0.048428,0.001000,0.001000,0.001000,0.001000,0.001000
1033.673077,-0.048707,0.001000,0.001000,0.001000,0.001000,0.001000
1033.692308,-0.048959,0.001000,0.001000,0.001000,0.001000,0.001000
1033.711538,-0.049184,0.001000,0.001000,0.001000,0.001000,0.001000
1033.730769,-0.049381,0.001000,0.001000,0.001000,0.001000,0.001000
1033.750000,-0.049552,0.001000,0.001000,0.001000,0.001000,0.001000
1033.769231,-0.049695,0.001000,0.001000,0.001000,0.001000,0.001000
1033.788462,-0.049811,0.001000,0.001000,0.001000,0.001000,0.001000
1033.807692,-0.049899,0.001000,0.001000,0.001000,0.001000,0.001000
1033.826923,-0.049960,0.001000,0.001000,0.001000,0.001000,0.001000
1033.846154,-0.049993,0.001000,0.001000,0.001000,0.001000,0.001000
1033.865385,-0.049999,0.001000,0.001000,0.001000,0.001000,0.001000
1033.884615,-0.049977,0.001000,0.001000,0.001000,0.001000,0.001000
1033.903846,-0.049928,0.001000,0.001000,0.001000,0.001000,0.001000
1033.923077,-0.049851,0.001000,0.001000,0.001000,0.001000,0.001000
1033.942308,-0.049746,0.001000,0.001000,0.001000,0.001000,0.001000
1033.961538,-0.049614,0.001000,0.001000,0.001000,0.001000,0.001000
1033.980769,-0.049455,0.001000,0.001000,0.001000,0.001000,0.001000
1034.000000,-0.049269,0.001000,0.001000,0.001000,0.001000,0.001000
1034.019231,-0.049055,0.001000,0.001000,0.001000,0.001000,0.001000
1034.038462,-0.048815,0.001000,0.001000,0.001000,0.001000,0.001000
1034.057692,-0.048547,0.001000,0.001000,0.001000,0.001000,0.001000
1034.076923,-0.048253,0.001000,0.001000,0.001000,0.001000,0.001000
1034.096154,-0.047932,0.001000,0.001000,0.001000,0.001000,0.001000
1034.115385,-0.047585,0.001000,0.001000,0.001000,0.001000,0.001000
1034.134615,-0.047211,0.001000,0.001000,0.001000,0.001000,0.001000
1034.153846,-0.046812,0.001000,0.001000,0.001000,0.001000,0.001000
1034.173077,-0.046386,0.001000,0.001000,0.001000,0.001000,0.001000
1034.192308,-0.045935,0.001000,0.001000,0.001000,0.001000,0.001000
1034.211538,-0.045459,0.001000,0.001000,0.001000,0.001000,0.001000
1034.230769,-0.044958,0.001000,0.001000,0.001000,0.001000,0.001000
1034.250000,-0.044432,0.001000,0.001000,0.001000,0.001000,0.001000
1034.269231,-0.043881,0.001000,0.001000,0.001000,0.001000,0.001000
1034.288462,-0.043306,0.001000,0.001000,0.001000,0.001000,0.001000
1034.307692,-0.042708,0.001000,0.001000,0.001000,0.001000,0.001000
1034.326923,-0.042085,0.001000,0.001000,0.001000,0.001000,0.001000
1034.346154,-0.041440,0.001000,0.001000,0.001000,0.001000,0.001000
1034.365385,-0.040772,0.001000,0.001000,0.001000,0.001000,0.001000
1034.384615,-0.040081,0.001000,0.001000,0.001000,0.001000,0.001000
1034.403846,-0.039368,0.001000,0.001000,0.001000,0.001000,0.001000
1034.423077,-0.038634,0.001000,0.001000,0.001000,0.001000,0.001000
1034.442308,-0.037878,0.001000,0.001000,0.001000,0.001000,0.001000
1034.461538,-0.037101,0.001000,0.001000,0.001000,0.001000,0.001000
1034.480769,-0.036304,0.001000,0.001000,0.001000,0.001000,0.001000
1034.500000,-0.035487,0.001000,0.001000,0.001000,0.001000,0.001000
1034.519231,-0.034650,0.001000,0.001000,0.001000,0.001000,0.001000
1034.538462,-0.033795,0.001000,0.001000,0.001000,0.001000,0.001000
1034.557692,-0.032920,0.001000,0.001000,0.001000,0.001000,0.001000
1034.576923,-0.032027,0.001000,0.001000,0.001000,0.001000,0.001000
1034.596154,-0.031117,0.001000,0.001000,0.001000,0.001000,0.001000
1034.615385,-0.030190,0.001000,0.001000,0.001000,0.001000,0.001000
1034.634615,-0.029246,0.001000,0.001000,0.001000,0.001000,0.001000
1034.653846,-0.028286,0.001000,0.001000,0.001000,0.001000,0.001000
1034.673077,-0.027310,0.001000,0.001000,0.001000,0.001000,0.001000
