timestamp,ax,ay,az,gx,gy,gz
1000.000000,0.000000,0.001000,0.001000,0.001000,0.001000,0.001000
1000.019231,0.001292,0.001000,0.001000,0.001000,0.001000,0.001000
1000.038462,0.002583,0.001000,0.001000,0.001000,0.001000,0.001000
1000.057692,0.003872,0.001000,0.001000,0.001000,0.001000,0.001000
1000.076923,0.005159,0.001000,0.001000,0.001000,0.001000,0.001000
1000.096154,0.006442,0.001000,0.001000,0.001000,0.001000,0.001000
1000.115385,0.007721,0.001000,0.001000,0.001000,0.001000,0.001000
1000.134615,0.008994,0.001000,0.001000,0.001000,0.001000,0.001000
1000.153846,0.010262,0.001000,0.001000,0.001000,0.001000,0.001000
1000.173077,0.011523,0.001000,0.001000,0.001000,0.001000,0.001000
1000.192308,0.012776,0.001000,0.001000,0.001000,0.001000,0.001000
1000.211538,0.014021,0.001000,0.001000,0.001000,0.001000,0.001000
1000.230769,0.015256,0.001000,0.001000,0.001000,0.001000,0.001000
1000.250000,0.016481,0.001000,0.001000,0.001000,0.001000,0.001000
1000.269231,0.017695,0.001000,0.001000,0.001000,0.001000,0.001000
1000.288462,0.018898,0.001000,0.001000,0.001000,0.001000,0.001000
1000.307692,0.020087,0.001000,0.001000,0.001000,0.001000,0.001000
1000.326923,0.021264,0.001000,0.001000,0.001000,0.001000,0.001000
1000.346154,0.022426,0.001000,0.001000,0.001000,0.001000,0.001000
1000.365385,0.023573,0.001000,0.001000,0.001000,0.001000,0.001000
1000.384615,0.024704,0.001000,0.001000,0.001000,0.001000,0.001000
1000.403846,0.025819,0.001000,0.001000,0.001000,0.001000,0.001000
1000.423077,0.026917,0.001000,0.001000,0.001000,0.001000,0.001000
1000.442308,0.027996,0.001000,0.001000,0.001000,0.001000,0.001000
1000.461538,0.029057,0.001000,0.001000,0.001000,0.001000,0.001000
1000.480769,0.030099,0.001000,0.001000,0.001000,0.001000,0.001000
1000.500000,0.031120,0.001000,0.001000,0.001000,0.001000,0.001000
1000.519231,0.032121,0.001000,0.001000,0.001000,0.001000,0.001000
1000.538462,0.033100,0.001000,0.001000,0.001000,0.001000,0.001000
1000.557692,0.034057,0.001000,0.001000,0.001000,0.001000,0.001000
1000.576923,0.034992,0.001000,0.001000,0.001000,0.001000,0.001000
1000.596154,0.035903,0.001000,0.001000,0.001000,0.001000,0.001000
1000.615385,0.036790,0.001000,0.001000,0.001000,0.001000,0.001000
1000.634615,0.037652,0.001000,0.001000,0.001000,0.001000,0.001000
1000.653846,0.038490,0.001000,0.001000,0.001000,0.001000,0.001000
1000.673077,0.039302,0.001000,0.001000,0.001000,0.001000,0.001000
1000.692308,0.040087,0.001000,0.001000,0.001000,0.001000,0.001000
1000.711538,0.040846,0.001000,0.001000,0.001000,0.001000,0.001000
1000.730769,0.041577,0.001000,0.001000,0.001000,0.001000,0.001000
1000.750000,0.042281,0.001000,0.001000,0.001000,0.001000,0.001000
1000.769231,0.042956,0.001000,0.001000,0.001000,0.001000,0.001000
1000.788462,0.043603,0.001000,0.001000,0.001000,0.001000,0.001000
1000.807692,0.044221,0.001000,0.001000,0.001000,0.001000,0.001000
1000.826923,0.044809,0.001000,0.001000,0.001000,0.001000,0.001000
1000.846154,0.045367,0.001000,0.001000,0.001000,0.001000,0.001000
1000.865385,0.045895,0.001000,0.001000,0.001000,0.001000,0.001000
1000.884615,0.046392,0.001000,0.001000,0.001000,0.001000,0.001000
1000.903846,0.046859,0.001000,0.001000,0.001000,0.001000,0.001000
1000.923077,0.047294,0.001000,0.001000,0.001000,0.001000,0.001000
1000.942308,0.047697,0.001000,0.001000,0.001000,0.001000,0.001000
1000.961538,0.048069,0.001000,0.001000,0.001000,0.001000,0.001000
1000.980769,0.048408,0.001000,0.001000,0.001000,0.001000,0.001000
1001.000000,0.048715,0.001000,0.001000,0.001000,0.001000,0.001000
1001.019231,0.048990,0.001000,0.001000,0.001000,0.001000,0.001000
1001.038462,0.049232,0.001000,0.001000,0.001000,0.001000,0.001000
1001.057692,0.049441,0.001000,0.001000,0.001000,0.001000,0.001000
1001.076923,0.049617,0.001000,0.001000,0.001000,0.001000,0.001000
1001.096154,0.049760,0.001000,0.001000,0.001000,0.001000,0.001000
1001.115385,0.049870,0.001000,0.001000,0.001000,0.001000,0.001000
1001.134615,0.049946,0.001000,0.001000,0.001000,0.001000,0.001000
1001.153846,0.049990,0.001000,0.001000,0.001000,0.001000,0.001000
1001.173077,0.049999,0.001000,0.001000,0.001000,0.001000,0.001000
1001.192308,0.049976,0.001000,0.001000,0.001000,0.001000,0.001000
1001.211538,0.049919,0.001000,0.001000,0.001000,0.001000,0.001000
1001.230769,0.049828,0.001000,0.001000,0.001000,0.001000,0.001000
1001.250000,0.049705,0.001000,0.001000,0.001000,0.001000,0.001000
1001.269231,0.049548,0.001000,0.001000,0.001000,0.001000,0.001000
1001.288462,0.049358,0.001000,0.001000,0.001000,0.001000,0.001000
1001.307692,0.049135,0.001000,0.001000,0.001000,0.001000,0.001000
1001.326923,0.048880,0.001000,0.001000,0.001000,0.001000,0.001000
1001.346154,0.048591,0.001000,0.001000,0.001000,0.001000,0.001000
1001.365385,0.048271,0.001000,0.001000,0.001000,0.001000,0.001000
1001.384615,0.047918,0.001000,0.001000,0.001000,0.001000,0.001000
1001.403846,0.047533,0.001000,0.001000,0.001000,0.001000,0.001000
1001.423077,0.047116,0.001000,0.001000,0.001000,0.001000,0.001000
1001.442308,0.046668,0.001000,0.001000,0.001000,0.001000,0.001000
1001.461538,0.046189,0.001000,0.001000,0.001000,0.001000,0.001000
1001.480769,0.045679,0.001000,0.001000,0.001000,0.001000,0.001000
1001.500000,0.045138,0.001000,0.001000,0.001000,0.001000,0.001000
1001.519231,0.044568,0.001000,0.001000,0.001000,0.001000,0.001000
1001.538462,0.043967,0.001000,0.001000,0.001000,0.001000,0.001000
1001.557692,0.043337,0.001000,0.001000,0.001000,0.001000,0.001000
1001.576923,0.042679,0.001000,0.001000,0.001000,0.001000,0.001000
1001.596154,0.041991,0.001000,0.001000,0.001000,0.001000,0.001000
1001.615385,0.041276,0.001000,0.001000,0.001000,0.001000,0.001000
1001.634615,0.040533,0.001000,0.001000,0.001000,0.001000,0.001000
1001.653846,0.039763,0.001000,0.001000,0.001000,0.001000,0.001000
1001.673077,0.038967,0.001000,0.001000,0.001000,0.001000,0.001000
1001.692308,0.038144,0.001000,0.001000,0.001000,0.001000,0.001000
1001.711538,0.037296,0.001000,0.001000,0.001000,0.001000,0.001000
1001.730769,0.036424,0.001000,0.001000,0.001000,0.001000,0.001000
1001.750000,0.035527,0.001000,0.001000,0.001000,0.001000,0.001000
1001.769231,0.034606,0.001000,0.001000,0.001000,0.001000,0.001000
1001.788462,0.033662,0.001000,0.001000,0.001000,0.001000,0.001000
1001.807692,0.032695,0.001000,0.001000,0.001000,0.001000,0.001000
1001.826923,0.031707,0.001000,0.001000,0.001000,0.001000,0.001000
1001.846154,0.030698,0.001000,0.001000,0.001000,0.001000,0.001000
1001.865385,0.029668,0.001000,0.001000,0.001000,0.001000,0.001000
1001.884615,0.028618,0.001000,0.001000,0.001000,0.001000,0.001000
1001.903846,0.027549,0.001000,0.001000,0.001000,0.001000,0.001000
1001.923077,0.026462,0.001000,0.001000,0.001000,0.001000,0.001000
1001.942308,0.025357,0.001000,0.001000,0.001000,0.001000,0.001000
1001.961538,0.024235,0.001000,0.001000,0.001000,0.001000,0.001000
1001.980769,0.023097,0.001000,0.001000,0.001000,0.001000,0.001000
1002.000000,0.021944,0.001000,0.001000,0.001000,0.001000,0.001000
1002.019231,0.020776,0.001000,0.001000,0.001000,0.001000,0.001000
1002.038462,0.019594,0.001000,0.001000,0.001000,0.001000,0.001000
1002.057692,0.018399,0.001000,0.001000,0.001000,0.001000,0.001000
1002.076923,0.017191,0.001000,0.001000,0.001000,0.001000,0.001000
1002.096154,0.015973,0.001000,0.001000,0.001000,0.001000,0.001000
1002.115385,0.014743,0.001000,0.001000,0.001000,0.001000,0.001000
1002.134615,0.013504,0.001000,0.001000,0.001000,0.001000,0.001000
1002.153846,0.012256,0.001000,0.001000,0.001000,0.001000,0.001000
1002.173077,0.010999,0.001000,0.001000,0.001000,0.001000,0.001000
1002.192308,0.009735,0.001000,0.001000,0.001000,0.001000,0.001000
1002.211538,0.008465,0.001000,0.001000,0.001000,0.001000,0.001000
1002.230769,0.007189,0.001000,0.001000,0.001000,0.001000,0.001000
1002.250000,0.005908,0.001000,0.001000,0.001000,0.001000,0.001000
1002.269231,0.004623,0.001000,0.001000,0.001000,0.001000,0.001000
1002.288462,0.003336,0.001000,0.001000,0.001000,0.001000,0.001000
1002.307692,0.002046,0.001000,0.001000,0.001000,0.001000,0.001000
1002.326923,0.000754,0.001000,0.001000,0.001000,0.001000,0.001000
1002.346154,-0.000538,0.001000,0.001000,0.001000,0.001000,0.001000
1002.365385,-0.001829,0.001000,0.001000,0.001000,0.001000,0.001000
1002.384615,-0.003120,0.001000,0.001000,0.001000,0.001000,0.001000
1002.403846,-0.004408,0.001000,0.001000,0.001000,0.001000,0.001000
1002.423077,-0.005693,0.001000,0.001000,0.001000,0.001000,0.001000
1002.442308,-0.006975,0.001000,0.001000,0.001000,0.001000,0.001000
1002.461538,-0.008252,0.001000,0.001000,0.001000,0.001000,0.001000
1002.480769,-0.009523,0.001000,0.001000,0.001000,0.001000,0.001000
1002.500000,-0.010788,0.001000,0.001000,0.001000,0.001000,0.001000
1002.519231,-0.012046,0.001000,0.001000,0.001000,0.001000,0.001000
1002.538462,-0.013295,0.001000,0.001000,0.001000,0.001000,0.001000
1002.557692,-0.014536,0.001000,0.001000,0.001000,0.001000,0.001000
1002.576923,-0.015767,0.001000,0.001000,0.001000,0.001000,0.001000
1002.596154,-0.016988,0.001000,0.001000,0.001000,0.001000,0.001000
1002.615385,-0.018197,0.001000,0.001000,0.001000,0.001000,0.001000
1002.634615,-0.019394,0.001000,0.001000,0.001000,0.001000,0.001000
1002.653846,-0.020579,0.001000,0.001000,0.001000,0.001000,0.001000
1002.673077,-0.021749,0.001000,0.001000,0.001000,0.001000,0.001000
1002.692308,-0.022905,0.001000,0.001000,0.001000,0.001000,0.001000
1002.711538,-0.024046,0.001000,0.001000,0.001000,0.001000,0.001000
1002.730769,-0.025170,0.001000,0.001000,0.001000,0.001000,0.001000
1002.750000,-0.026278,0.001000,0.001000,0.001000,0.001000,0.001000
1002.769231,-0.027368,0.001000,0.001000,0.001000,0.001000,0.001000
1002.788462,-0.028440,0.001000,0.001000,0.001000,0.001000,0.001000
1002.807692,-0.029493,0.001000,0.001000,0.001000,0.001000,0.001000
1002.826923,-0.030526,0.001000,0.001000,0.001000,0.001000,0.001000
1002.846154,-0.031539,0.001000,0.001000,0.001000,0.001000,0.001000
1002.865385,-0.032531,0.001000,0.001000,0.001000,0.001000,0.001000
1002.884615,-0.033501,0.001000,0.001000,0.001000,0.001000,0.001000
1002.903846,-0.034449,0.001000,0.001000,0.001000,0.001000,0.001000
1002.923077,-0.035374,0.001000,0.001000,0.001000,0.001000,0.001000
1002.942308,-0.036275,0.001000,0.001000,0.001000,0.001000,0.001000
1002.961538,-0.037152,0.001000,0.001000,0.001000,0.001000,0.001000
1002.980769,-0.038004,0.001000,0.001000,0.001000,0.001000,0.001000
1003.000000,-0.038831,0.001000,0.001000,0.001000,0.001000,0.001000
1003.019231,-0.039632,0.001000,0.001000,0.001000,0.001000,0.001000
1003.038462,-0.040406,0.001000,0.001000,0.001000,0.001000,0.001000
1003.057692,-0.041153,0.001000,0.001000,0.001000,0.001000,0.001000
1003.076923,-0.041873,0.001000,0.001000,0.001000,0.001000,0.001000
1003.096154,-0.042565,0.001000,0.001000,0.001000,0.001000,0.001000
1003.115385,-0.043229,0.001000,0.001000,0.001000,0.001000,0.001000
1003.134615,-0.043864,0.001000,0.001000,0.001000,0.001000,0.001000
1003.153846,-0.044469,0.001000,0.001000,0.001000,0.001000,0.001000
1003.173077,-0.045045,0.001000,0.001000,0.001000,0.001000,0.001000
1003.192308,-0.045590,0.001000,0.001000,0.001000,0.001000,0.001000
1003.211538,-0.046106,0.001000,0.001000,0.001000,0.001000,0.001000
1003.230769,-0.046590,0.001000,0.001000,0.001000,0.001000,0.001000
1003.250000,-0.047043,0.001000,0.001000,0.001000,0.001000,0.001000
1003.269231,-0.047465,0.001000,0.001000,0.001000,0.001000,0.001000
1003.288462,-0.047856,0.001000,0.001000,0.001000,0.001000,0.001000
1003.307692,-0.048214,0.001000,0.001000,0.001000,0.001000,0.001000
1003.326923,-0.048540,0.001000,0.001000,0.001000,0.001000,0.001000
1003.346154,-0.048834,0.001000,0.001000,0.001000,0.001000,0.001000
1003.365385,-0.049095,0.001000,0.001000,0.001000,0.001000,0.001000
1003.384615,-0.049323,0.001000,0.001000,0.001000,0.001000,0.001000
1003.403846,-0.049518,0.001000,0.001000,0.001000,0.001000,0.001000
1003.423077,-0.049681,0.001000,0.001000,0.001000,0.001000,0.001000
1003.442308,-0.049810,0.001000,0.001000,0.001000,0.001000,0.001000
1003.461538,-0.049906,0.001000,0.001000,0.001000,0.001000,0.001000
1003.480769,-0.049968,0.001000,0.001000,0.001000,0.001000,0.001000
1003.500000,-0.049998,0.001000,0.001000,0.001000,0.001000,0.001000
1003.519231,-0.049993,0.001000,0.001000,0.001000,0.001000,0.001000
1003.538462,-0.049956,0.001000,0.001000,0.001000,0.001000,0.001000
1003.557692,-0.049885,0.001000,0.001000,0.001000,0.001000,0.001000
1003.576923,-0.049781,0.001000,0.001000,0.001000,0.001000,0.001000
1003.596154,-0.049643,0.001000,0.001000,0.001000,0.001000,0.001000
1003.615385,-0.049473,0.001000,0.001000,0.001000,0.001000,0.001000
1003.634615,-0.049269,0.001000,0.001000,0.001000,0.001000,0.001000
1003.653846,-0.049033,0.001000,0.001000,0.001000,0.001000,0.001000
1003.673077,-0.048764,0.001000,0.001000,0.001000,0.001000,0.001000
1003.692308,-0.048462,0.001000,0.001000,0.001000,0.001000,0.001000
1003.711538,-0.048128,0.001000,0.001000,0.001000,0.001000,0.001000
1003.730769,-0.047761,0.001000,0.001000,0.001000,0.001000,0.001000
1003.750000,-0.047363,0.001000,0.001000,0.001000,0.001000,0.001000
1003.769231,-0.046934,0.001000,0.001000,0.001000,0.001000,0.001000
1003.788462,-0.046472,0.001000,0.001000,0.001000,0.001000,0.001000
1003.807692,-0.045980,0.001000,0.001000,0.001000,0.001000,0.001000
1003.826923,-0.045458,0.001000,0.001000,0.001000,0.001000,0.001000
1003.846154,-0.044904,0.001000,0.001000,0.001000,0.001000,0.001000
1003.865385,-0.044321,0.001000,0.001000,0.001000,0.001000,0.001000
1003.884615,-0.043709,0.001000,0.001000,0.001000,0.001000,0.001000
1003.903846,-0.043067,0.001000,0.001000,0.001000,0.001000,0.001000
1003.923077,-0.042396,0.001000,0.001000,0.001000,0.001000,0.001000
1003.942308,-0.041697,0.001000,0.001000,0.001000,0.001000,0.001000
1003.961538,-0.040970,0.001000,0.001000,0.001000,0.001000,0.001000
1003.980769,-0.040216,0.001000,0.001000,0.001000,0.001000,0.001000
1004.000000,-0.039435,0.001000,0.001000,0.001000,0.001000,0.001000
1004.019231,-0.038628,0.001000,0.001000,0.001000,0.001000,0.001000
1004.038462,-0.037795,0.001000,0.001000,0.001000,0.001000,0.001000
1004.057692,-0.036936,0.001000,0.001000,0.001000,0.001000,0.001000
1004.076923,-0.036053,0.001000,0.001000,0.001000,0.001000,0.001000
1004.096154,-0.035146,0.001000,0.001000,0.001000,0.001000,0.001000
1004.115385,-0.034216,0.001000,0.001000,0.001000,0.001000,0.001000
1004.134615,-0.033262,0.001000,0.001000,0.001000,0.001000,0.001000
1004.153846,-0.032287,0.001000,0.001000,0.001000,0.001000,0.001000
1004.173077,-0.031289,0.001000,0.001000,0.001000,0.001000,0.001000
1004.192308,-0.030271,0.001000,0.001000,0.001000,0.001000,0.001000
1004.211538,-0.029233,0.001000,0.001000,0.001000,0.001000,0.001000
1004.230769,-0.028175,0.001000,0.001000,0.001000,0.001000,0.001000
1004.250000,-0.027099,0.001000,0.001000,0.001000,0.001000,0.001000
1004.269231,-0.026004,0.001000,0.001000,0.001000,0.001000,0.001000
1004.288462,-0.024892,0.001000,0.001000,0.001000,0.001000,0.001000
1004.307692,-0.023763,0.001000,0.001000,0.001000,0.001000,0.001000
1004.326923,-0.022619,0.001000,0.001000,0.001000,0.001000,0.001000
1004.346154,-0.021459,0.001000,0.001000,0.001000,0.001000,0.001000
1004.365385,-0.020285,0.001000,0.001000,0.001000,0.001000,0.001000
1004.384615,-0.019098,0.001000,0.001000,0.001000,0.001000,0.001000
1004.403846,-0.017898,0.001000,0.001000,0.001000,0.001000,0.001000
1004.423077,-0.016685,0.001000,0.001000,0.001000,0.001000,0.001000
1004.442308,-0.015462,0.001000,0.001000,0.001000,0.001000,0.001000
1004.461538,-0.014228,0.001000,0.001000,0.001000,0.001000,0.001000
1004.480769,-0.012985,0.001000,0.001000,0.001000,0.001000,0.001000
1004.500000,-0.011733,0.001000,0.001000,0.001000,0.001000,0.001000
1004.519231,-0.010474,0.001000,0.001000,0.001000,0.001000,0.001000
1004.538462,-0.009207,0.001000,0.001000,0.001000,0.001000,0.001000
1004.557692,-0.007934,0.001000,0.001000,0.001000,0.001000,0.001000
1004.576923,-0.006656,0.001000,0.001000,0.001000,0.001000,0.001000
1004.596154,-0.005374,0.001000,0.001000,0.001000,0.001000,0.001000
1004.615385,-0.004088,0.001000,0.001000,0.001000,0.001000,0.001000
1004.634615,-0.002799,0.001000,0.001000,0.001000,0.001000,0.001000
1004.653846,-0.001508,0.001000,0.001000,0.001000,0.001000,0.001000
1004.673077,-0.000216,0.001000,0.001000,0.001000,0.001000,0.001000
1004.692308,0.001075,0.001000,0.001000,0.001000,0.001000,0.001000
1004.711538,0.002367,0.001000,0.001000,0.001000,0.001000,0.001000
1004.730769,0.003656,0.001000,0.001000,0.001000,0.001000,0.001000
1004.750000,0.004943,0.001000,0.001000,0.001000,0.001000,0.001000
1004.769231,0.006227,0.001000,0.001000,0.001000,0.001000,0.001000
1004.788462,0.007507,0.001000,0.001000,0.001000,0.001000,0.001000
1004.807692,0.008781,0.001000,0.001000,0.001000,0.001000,0.001000
1004.826923,0.010050,0.001000,0.001000,0.001000,0.001000,0.001000
1004.846154,0.011312,0.001000,0.001000,0.001000,0.001000,0.001000
1004.865385,0.012567,0.001000,0.001000,0.001000,0.001000,0.001000
1004.884615,0.013813,0.001000,0.001000,0.001000,0.001000,0.001000
1004.903846,0.015050,0.001000,0.001000,0.001000,0.001000,0.001000
1004.923077,0.016277,0.001000,0.001000,0.001000,0.001000,0.001000
1004.942308,0.017493,0.001000,0.001000,0.001000,0.001000,0.001000
1004.961538,0.018697,0.001000,0.001000,0.001000,0.001000,0.001000
1004.980769,0.019889,0.001000,0.001000,0.001000,0.001000,0.001000
1005.000000,0.021067,0.001000,0.001000,0.001000,0.001000,0.001000
1005.019231,0.022232,0.001000,0.001000,0.001000,0.001000,0.001000
1005.038462,0.023382,0.001000,0.001000,0.001000,0.001000,0.001000
1005.057692,0.024516,0.001000,0.001000,0.001000,0.001000,0.001000
1005.076923,0.025633,0.001000,0.001000,0.001000,0.001000,0.001000
1005.096154,0.026734,0.001000,0.001000,0.001000,0.001000,0.001000
1005.115385,0.027817,0.001000,0.001000,0.001000,0.001000,0.001000
1005.134615,0.028881,0.001000,0.001000,0.001000,0.001000,0.001000
1005.153846,0.029926,0.001000,0.001000,0.001000,0.001000,0.001000
1005.173077,0.030951,0.001000,0.001000,0.001000,0.001000,0.001000
1005.192308,0.031955,0.001000,0.001000,0.001000,0.001000,0.001000
1005.211538,0.032938,0.001000,0.001000,0.001000,0.001000,0.001000
1005.230769,0.033899,0.001000,0.001000,0.001000,0.001000,0.001000
1005.250000,0.034837,0.001000,0.001000,0.001000,0.001000,0.001000
1005.269231,0.035752,0.001000,0.001000,0.001000,0.001000,0.001000
1005.288462,0.036643,0.001000,0.001000,0.001000,0.001000,0.001000
1005.307692,0.037510,0.001000,0.001000,0.001000,0.001000,0.001000
1005.326923,0.038351,0.001000,0.001000,0.001000,0.001000,0.001000
1005.346154,0.039167,0.001000,0.001000,0.001000,0.001000,0.001000
1005.365385,0.039957,0.001000,0.001000,0.001000,0.001000,0.001000
1005.384615,0.040720,0.001000,0.001000,0.001000,0.001000,0.001000
1005.403846,0.041457,0.001000,0.001000,0.001000,0.001000,0.001000
1005.423077,0.042165,0.001000,0.001000,0.001000,0.001000,0.001000
1005.442308,0.042845,0.001000,0.001000,0.001000,0.001000,0.001000
1005.461538,0.043497,0.001000,0.001000,0.001000,0.001000,0.001000
1005.480769,0.044119,0.001000,0.001000,0.001000,0.001000,0.001000
1005.500000,0.044712,0.001000,0.001000,0.001000,0.001000,0.001000
1005.519231,0.045276,0.001000,0.001000,0.001000,0.001000,0.001000
1005.538462,0.045809,0.001000,0.001000,0.001000,0.001000,0.001000
1005.557692,0.046311,0.001000,0.001000,0.001000,0.001000,0.001000
1005.576923,0.046783,0.001000,0.001000,0.001000,0.001000,0.001000
1005.596154,0.047223,0.001000,0.001000,0.001000,0.001000,0.001000
1005.615385,0.047632,0.001000,0.001000,0.001000,0.001000,0.001000
1005.634615,0.048009,0.001000,0.001000,0.001000,0.001000,0.001000
1005.653846,0.048354,0.001000,0.001000,0.001000,0.001000,0.001000
1005.673077,0.048666,0.001000,0.001000,0.001000,0.001000,0.001000
1005.692308,0.048946,0.001000,0.001000,0.001000,0.001000,0.001000
1005.711538,0.049194,0.001000,0.001000,0.001000,0.001000,0.001000
1005.730769,0.049408,0.001000,0.001000,0.001000,0.001000,0.001000
1005.750000,0.049590,0.001000,0.001000,0.001000,0.001000,0.001000
1005.769231,0.049739,0.001000,0.001000,0.001000,0.001000,0.001000
1005.788462,0.049854,0.001000,0.001000,0.001000,0.001000,0.001000
1005.807692,0.049936,0.001000,0.001000,0.001000,0.001000,0.001000
1005.826923,0.049985,0.001000,0.001000,0.001000,0.001000,0.001000
1005.846154,0.050000,0.001000,0.001000,0.001000,0.001000,0.001000
1005.865385,0.049982,0.001000,0.001000,0.001000,0.001000,0.001000
1005.884615,0.049931,0.001000,0.001000,0.001000,0.001000,0.001000
1005.903846,0.049846,0.001000,0.001000,0.001000,0.001000,0.001000
1005.923077,0.049728,0.001000,0.001000,0.001000,0.001000,0.001000
1005.942308,0.049577,0.001000,0.001000,0.001000,0.001000,0.001000
1005.961538,0.049392,0.001000,0.001000,0.001000,0.001000,0.001000
1005.980769,0.049175,0.001000,0.001000,0.001000,0.001000,0.001000
1006.000000,0.048925,0.001000,0.001000,0.001000,0.001000,0.001000
1006.019231,0.048642,0.001000,0.001000,0.001000,0.001000,0.001000
1006.038462,0.048327,0.001000,0.001000,0.001000,0.001000,0.001000
1006.057692,0.047979,0.001000,0.001000,0.001000,0.001000,0.001000
1006.076923,0.047600,0.001000,0.001000,0.001000,0.001000,0.001000
1006.096154,0.047188,0.001000,0.001000,0.001000,0.001000,0.001000
1006.115385,0.046745,0.001000,0.001000,0.001000,0.001000,0.001000
1006.134615,0.046271,0.001000,0.001000,0.001000,0.001000,0.001000
1006.153846,0.045766,0.001000,0.001000,0.001000,0.001000,0.001000
1006.173077,0.045231,0.001000,0.001000,0.001000,0.001000,0.001000
1006.192308,0.044665,0.001000,0.001000,0.001000,0.001000,0.001000
1006.211538,0.044070,0.001000,0.001000,0.001000,0.001000,0.001000
1006.230769,0.043445,0.001000,0.001000,0.001000,0.001000,0.001000
1006.250000,0.042791,0.001000,0.001000,0.001000,0.001000,0.001000
1006.269231,0.042108,0.001000,0.001000,0.001000,0.001000,0.001000
1006.288462,0.041398,0.001000,0.001000,0.001000,0.001000,0.001000
1006.307692,0.040660,0.001000,0.001000,0.001000,0.001000,0.001000
1006.326923,0.039894,0.001000,0.001000,0.001000,0.001000,0.001000
1006.346154,0.039102,0.001000,0.001000,0.001000,0.001000,0.001000
1006.365385,0.038284,0.001000,0.001000,0.001000,0.001000,0.001000
1006.384615,0.037440,0.001000,0.001000,0.001000,0.001000,0.001000
1006.403846,0.036572,0.001000,0.001000,0.001000,0.001000,0.001000
1006.423077,0.035678,0.001000,0.001000,0.001000,0.001000,0.001000
1006.442308,0.034762,0.001000,0.001000,0.001000,0.001000,0.001000
1006.461538,0.033821,0.001000,0.001000,0.001000,0.001000,0.001000
1006.480769,0.032859,0.001000,0.001000,0.001000,0.001000,0.001000
1006.500000,0.031874,0.001000,0.001000,0.001000,0.001000,0.001000
1006.519231,0.030868,0.001000,0.001000,0.001000,0.001000,0.001000
1006.538462,0.029842,0.001000,0.001000,0.001000,0.001000,0.001000
1006.557692,0.028795,0.001000,0.001000,0.001000,0.001000,0.001000
1006.576923,0.027729,0.001000,0.001000,0.001000,0.001000,0.001000
1006.596154,0.026645,0.001000,0.001000,0.001000,0.001000,0.001000
1006.615385,0.025543,0.001000,0.001000,0.001000,0.001000,0.001000
1006.634615,0.024424,0.001000,0.001000,0.001000,0.001000,0.001000
1006.653846,0.023289,0.001000,0.001000,0.001000,0.001000,0.001000
1006.673077,0.022138,0.001000,0.001000,0.001000,0.001000,0.001000
1006.692308,0.020972,0.001000,0.001000,0.001000,0.001000,0.001000
1006.711538,0.019793,0.001000,0.001000,0.001000,0.001000,0.001000
1006.730769,0.018600,0.001000,0.001000,0.001000,0.001000,0.001000
1006.750000,0.017394,0.001000,0.001000,0.001000,0.001000,0.001000
1006.769231,0.016178,0.001000,0.001000,0.001000,0.001000,0.001000
1006.788462,0.014950,0.001000,0.001000,0.001000,0.001000,0.001000
1006.807692,0.013712,0.001000,0.001000,0.001000,0.001000,0.001000
1006.826923,0.012465,0.001000,0.001000,0.001000,0.001000,0.001000
1006.846154,0.011210,0.001000,0.001000,0.001000,0.001000,0.001000
1006.865385,0.009947,0.001000,0.001000,0.001000,0.001000,0.001000
1006.884615,0.008678,0.001000,0.001000,0.001000,0.001000,0.001000
1006.903846,0.007403,0.001000,0.001000,0.001000,0.001000,0.001000
1006.923077,0.006123,0.001000,0.001000,0.001000,0.001000,0.001000
1006.942308,0.004839,0.001000,0.001000,0.001000,0.001000,0.001000
1006.961538,0.003552,0.001000,0.001000,0.001000,0.001000,0.001000
1006.980769,0.002262,0.001000,0.001000,0.001000,0.001000,0.001000
1007.000000,0.000971,0.001000,0.001000,0.001000,0.001000,0.001000
1007.019231,-0.000321,0.001000,0.001000,0.001000,0.001000,0.001000
1007.038462,-0.001613,0.001000,0.001000,0.001000,0.001000,0.001000
1007.057692,-0.002904,0.001000,0.001000,0.001000,0.001000,0.001000
1007.076923,-0.004192,0.001000,0.001000,0.001000,0.001000,0.001000
1007.096154,-0.005478,0.001000,0.001000,0.001000,0.001000,0.001000
1007.115385,-0.006760,0.001000,0.001000,0.001000,0.001000,0.001000
1007.134615,-0.008038,0.001000,0.001000,0.001000,0.001000,0.001000
1007.153846,-0.009310,0.001000,0.001000,0.001000,0.001000,0.001000
1007.173077,-0.010576,0.001000,0.001000,0.001000,0.001000,0.001000
1007.192308,-0.011835,0.001000,0.001000,0.001000,0.001000,0.001000
1007.211538,-0.013087,0.001000,0.001000,0.001000,0.001000,0.001000
1007.230769,-0.014329,0.001000,0.001000,0.001000,0.001000,0.001000
1007.250000,-0.015562,0.001000,0.001000,0.001000,0.001000,0.001000
1007.269231,-0.016784,0.001000,0.001000,0.001000,0.001000,0.001000
1007.288462,-0.017995,0.001000,0.001000,0.001000,0.001000,0.001000
1007.307692,-0.019195,0.001000,0.001000,0.001000,0.001000,0.001000
1007.326923,-0.020381,0.001000,0.001000,0.001000,0.001000,0.001000
1007.346154,-0.021554,0.001000,0.001000,0.001000,0.001000,0.001000
1007.365385,-0.022712,0.001000,0.001000,0.001000,0.001000,0.001000
1007.384615,-0.023856,0.001000,0.001000,0.001000,0.001000,0.001000
1007.403846,-0.024983,0.001000,0.001000,0.001000,0.001000,0.001000
1007.423077,-0.026094,0.001000,0.001000,0.001000,0.001000,0.001000
1007.442308,-0.027187,0.001000,0.001000,0.001000,0.001000,0.001000
1007.461538,-0.028262,0.001000,0.001000,0.001000,0.001000,0.001000
1007.480769,-0.029318,0.001000,0.001000,0.001000,0.001000,0.001000
1007.500000,-0.030355,0.001000,0.001000,0.001000,0.001000,0.001000
1007.519231,-0.031371,0.001000,0.001000,0.001000,0.001000,0.001000
1007.538462,-0.032367,0.001000,0.001000,0.001000,0.001000,0.001000
1007.557692,-0.033340,0.001000,0.001000,0.001000,0.001000,0.001000
1007.576923,-0.034292,0.001000,0.001000,0.001000,0.001000,0.001000
1007.596154,-0.035221,0.001000,0.001000,0.001000,0.001000,0.001000
1007.615385,-0.036126,0.001000,0.001000,0.001000,0.001000,0.001000
1007.634615,-0.037007,0.001000,0.001000,0.001000,0.001000,0.001000
1007.653846,-0.037863,0.001000,0.001000,0.001000,0.001000,0.001000
1007.673077,-0.038694,0.001000,0.001000,0.001000,0.001000,0.001000
1007.692308,-0.039499,0.001000,0.001000,0.001000,0.001000,0.001000
1007.711538,-0.040278,0.001000,0.001000,0.001000,0.001000,0.001000
1007.730769,-0.041030,0.001000,0.001000,0.001000,0.001000,0.001000
1007.750000,-0.041755,0.001000,0.001000,0.001000,0.001000,0.001000
1007.769231,-0.042451,0.001000,0.001000,0.001000,0.001000,0.001000
1007.788462,-0.043120,0.001000,0.001000,0.001000,0.001000,0.001000
1007.807692,-0.043759,0.001000,0.001000,0.001000,0.001000,0.001000
1007.826923,-0.044370,0.001000,0.001000,0.001000,0.001000,0.001000
1007.846154,-0.044950,0.001000,0.001000,0.001000,0.001000,0.001000
1007.865385,-0.045501,0.001000,0.001000,0.001000,0.001000,0.001000
1007.884615,-0.046021,0.001000,0.001000,0.001000,0.001000,0.001000
1007.903846,-0.046511,0.001000,0.001000,0.001000,0.001000,0.001000
1007.923077,-0.046970,0.001000,0.001000,0.001000,0.001000,0.001000
1007.942308,-0.047397,0.001000,0.001000,0.001000,0.001000,0.001000
1007.961538,-0.047792,0.001000,0.001000,0.001000,0.001000,0.001000
1007.980769,-0.048156,0.001000,0.001000,0.001000,0.001000,0.001000
1008.000000,-0.048488,0.001000,0.001000,0.001000,0.001000,0.001000
1008.019231,-0.048787,0.001000,0.001000,0.001000,0.001000,0.001000
1008.038462,-0.049053,0.001000,0.001000,0.001000,0.001000,0.001000
1008.057692,-0.049287,0.001000,0.001000,0.001000,0.001000,0.001000
1008.076923,-0.049488,0.001000,0.001000,0.001000,0.001000,0.001000
1008.096154,-0.049656,0.001000,0.001000,0.001000,0.001000,0.001000
1008.115385,-0.049791,0.001000,0.001000,0.001000,0.001000,0.001000
1008.134615,-0.049892,0.001000,0.001000,0.001000,0.001000,0.001000
1008.153846,-0.049960,0.001000,0.001000,0.001000,0.001000,0.001000
1008.173077,-0.049995,0.001000,0.001000,0.001000,0.001000,0.001000
1008.192308,-0.049997,0.001000,0.001000,0.001000,0.001000,0.001000
1008.211538,-0.049965,0.001000,0.001000,0.001000,0.001000,0.001000
1008.230769,-0.049899,0.001000,0.001000,0.001000,0.001000,0.001000
1008.250000,-0.049801,0.001000,0.001000,0.001000,0.001000,0.001000
1008.269231,-0.049669,0.001000,0.001000,0.001000,0.001000,0.001000
1008.288462,-0.049504,0.001000,0.001000,0.001000,0.001000,0.001000
1008.307692,-0.049306,0.001000,0.001000,0.001000,0.001000,0.001000
1008.326923,-0.049075,0.001000,0.001000,0.001000,0.001000,0.001000
1008.346154,-0.048811,0.001000,0.001000,0.001000,0.001000,0.001000
1008.365385,-0.048515,0.001000,0.001000,0.001000,0.001000,0.001000
1008.384615,-0.048186,0.001000,0.001000,0.001000,0.001000,0.001000
1008.403846,-0.047825,0.001000,0.001000,0.001000,0.001000,0.001000
1008.423077,-0.047432,0.001000,0.001000,0.001000,0.001000,0.001000
1008.442308,-0.047008,0.001000,0.001000,0.001000,0.001000,0.001000
1008.461538,-0.046552,0.001000,0.001000,0.001000,0.001000,0.001000
1008.480769,-0.046065,0.001000,0.001000,0.001000,0.001000,0.001000
1008.500000,-0.045547,0.001000,0.001000,0.001000,0.001000,0.001000
1008.519231,-0.044999,0.001000,0.001000,0.001000,0.001000,0.001000
1008.538462,-0.044421,0.001000,0.001000,0.001000,0.001000,0.001000
1008.557692,-0.043813,0.001000,0.001000,0.001000,0.001000,0.001000
1008.576923,-0.043176,0.001000,0.001000,0.001000,0.001000,0.001000
1008.596154,-0.042510,0.001000,0.001000,0.001000,0.001000,0.001000
1008.615385,-0.041816,0.001000,0.001000,0.001000,0.001000,0.001000
1008.634615,-0.041094,0.001000,0.001000,0.001000,0.001000,0.001000
1008.653846,-0.040344,0.001000,0.001000,0.001000,0.001000,0.001000
1008.673077,-0.039568,0.001000,0.001000,0.001000,0.001000,0.001000
1008.692308,-0.038765,0.001000,0.001000,0.001000,0.001000,0.001000
1008.711538,-0.037936,0.001000,0.001000,0.001000,0.001000,0.001000
1008.730769,-0.037082,0.001000,0.001000,0.001000,0.001000,0.001000
1008.750000,-0.036203,0.001000,0.001000,0.001000,0.001000,0.001000
1008.769231,-0.035300,0.001000,0.001000,0.001000,0.001000,0.001000
1008.788462,-0.034373,0.001000,0.001000,0.001000,0.001000,0.001000
1008.807692,-0.033423,0.001000,0.001000,0.001000,0.001000,0.001000
1008.826923,-0.032451,0.001000,0.001000,0.001000,0.001000,0.001000
1008.846154,-0.031458,0.001000,0.001000,0.001000,0.001000,0.001000
1008.865385,-0.030443,0.001000,0.001000,0.001000,0.001000,0.001000
1008.884615,-0.029408,0.001000,0.001000,0.001000,0.001000,0.001000
1008.903846,-0.028354,0.001000,0.001000,0.001000,0.001000,0.001000
1008.923077,-0.027280,0.001000,0.001000,0.001000,0.001000,0.001000
1008.942308,-0.026189,0.001000,0.001000,0.001000,0.001000,0.001000
1008.961538,-0.025079,0.001000,0.001000,0.001000,0.001000,0.001000
1008.980769,-0.023954,0.001000,0.001000,0.001000,0.001000,0.001000
1009.000000,-0.022812,0.001000,0.001000,0.001000,0.001000,0.001000
1009.019231,-0.021655,0.001000,0.001000,0.001000,0.001000,0.001000
1009.038462,-0.020483,0.001000,0.001000,0.001000,0.001000,0.001000
1009.057692,-0.019298,0.001000,0.001000,0.001000,0.001000,0.001000
1009.076923,-0.018100,0.001000,0.001000,0.001000,0.001000,0.001000
1009.096154,-0.016889,0.001000,0.001000,0.001000,0.001000,0.001000
1009.115385,-0.015668,0.001000,0.001000,0.001000,0.001000,0.001000
1009.134615,-0.014436,0.001000,0.001000,0.001000,0.001000,0.001000
1009.153846,-0.013194,0.001000,0.001000,0.001000,0.001000,0.001000
1009.173077,-0.011944,0.001000,0.001000,0.001000,0.001000,0.001000
1009.192308,-0.010685,0.001000,0.001000,0.001000,0.001000,0.001000
1009.211538,-0.009420,0.001000,0.001000,0.001000,0.001000,0.001000
1009.230769,-0.008148,0.001000,0.001000,0.001000,0.001000,0.001000
1009.250000,-0.006871,0.001000,0.001000,0.001000,0.001000,0.001000
1009.269231,-0.005589,0.001000,0.001000,0.001000,0.001000,0.001000
1009.288462,-0.004303,0.001000,0.001000,0.001000,0.001000,0.001000
1009.307692,-0.003015,0.001000,0.001000,0.001000,0.001000,0.001000
1009.326923,-0.001724,0.001000,0.001000,0.001000,0.001000,0.001000
1009.346154,-0.000433,0.001000,0.001000,0.001000,0.001000,0.001000
1009.365385,0.000859,0.001000,0.001000,0.001000,0.001000,0.001000
1009.384615,0.002150,0.001000,0.001000,0.001000,0.001000,0.001000
1009.403846,0.003440,0.001000,0.001000,0.001000,0.001000,0.001000
1009.423077,0.004728,0.001000,0.001000,0.001000,0.001000,0.001000
1009.442308,0.006012,0.001000,0.001000,0.001000,0.001000,0.001000
1009.461538,0.007293,0.001000,0.001000,0.001000,0.001000,0.001000
1009.480769,0.008568,0.001000,0.001000,0.001000,0.001000,0.001000
1009.500000,0.009838,0.001000,0.001000,0.001000,0.001000,0.001000
1009.519231,0.011101,0.001000,0.001000,0.001000,0.001000,0.001000
1009.538462,0.012357,0.001000,0.001000,0.001000,0.001000,0.001000
1009.557692,0.013605,0.001000,0.001000,0.001000,0.001000,0.001000
1009.576923,0.014843,0.001000,0.001000,0.001000,0.001000,0.001000
1009.596154,0.016072,0.001000,0.001000,0.001000,0.001000,0.001000
1009.615385,0.017290,0.001000,0.001000,0.001000,0.001000,0.001000
1009.634615,0.018496,0.001000,0.001000,0.001000,0.001000,0.001000
1009.653846,0.019690,0.001000,0.001000,0.001000,0.001000,0.001000
1009.673077,0.020871,0.001000,0.001000,0.001000,0.001000,0.001000
1009.692308,0.022038,0.001000,0.001000,0.001000,0.001000,0.001000
1009.711538,0.023190,0.001000,0.001000,0.001000,0.001000,0.001000
1009.730769,0.024327,0.001000,0.001000,0.001000,0.001000,0.001000
1009.750000,0.025447,0.001000,0.001000,0.001000,0.001000,0.001000
1009.769231,0.026551,0.001000,0.001000,0.001000,0.001000,0.001000
1009.788462,0.027637,0.001000,0.001000,0.001000,0.001000,0.001000
1009.807692,0.028704,0.001000,0.001000,0.001000,0.001000,0.001000
1009.826923,0.029752,0.001000,0.001000,0.001000,0.001000,0.001000
1009.846154,0.030780,0.001000,0.001000,0.001000,0.001000,0.001000
1009.865385,0.031788,0.001000,0.001000,0.001000,0.001000,0.001000
1009.884615,0.032775,0.001000,0.001000,0.001000,0.001000,0.001000
1009.903846,0.033739,0.001000,0.001000,0.001000,0.001000,0.001000
1009.923077,0.034681,0.001000,0.001000,0.001000,0.001000,0.001000
1009.942308,0.035600,0.001000,0.001000,0.001000,0.001000,0.001000
1009.961538,0.036495,0.001000,0.001000,0.001000,0.001000,0.001000
1009.980769,0.037366,0.001000,0.001000,0.001000,0.001000,0.001000
1010.000000,0.038212,0.001000,0.001000,0.001000,0.001000,0.001000
1010.019231,0.039032,0.001000,0.001000,0.001000,0.001000,0.001000
1010.038462,0.039827,0.001000,0.001000,0.001000,0.001000,0.001000
1010.057692,0.040595,0.001000,0.001000,0.001000,0.001000,0.001000
1010.076923,0.041335,0.001000,0.001000,0.001000,0.001000,0.001000
1010.096154,0.042048,0.001000,0.001000,0.001000,0.001000,0.001000
1010.115385,0.042733,0.001000,0.001000,0.001000,0.001000,0.001000
1010.134615,0.043390,0.001000,0.001000,0.001000,0.001000,0.001000
1010.153846,0.044017,0.001000,0.001000,0.001000,0.001000,0.001000
1010.173077,0.044615,0.001000,0.001000,0.001000,0.001000,0.001000
1010.192308,0.045183,0.001000,0.001000,0.001000,0.001000,0.001000
1010.211538,0.045721,0.001000,0.001000,0.001000,0.001000,0.001000
1010.230769,0.046229,0.001000,0.001000,0.001000,0.001000,0.001000
1010.250000,0.046706,0.001000,0.001000,0.001000,0.001000,0.001000
1010.269231,0.047151,0.001000,0.001000,0.001000,0.001000,0.001000
1010.288462,0.047565,0.001000,0.001000,0.001000,0.001000,0.001000
1010.307692,0.047948,0.001000,0.001000,0.001000,0.001000,0.001000
1010.326923,0.048298,0.001000,0.001000,0.001000,0.001000,0.001000
1010.346154,0.048616,0.001000,0.001000,0.001000,0.001000,0.001000
1010.365385,0.048902,0.001000,0.001000,0.001000,0.001000,0.001000
1010.384615,0.049155,0.001000,0.001000,0.001000,0.001000,0.001000
1010.403846,0.049375,0.001000,0.001000,0.001000,0.001000,0.001000
1010.423077,0.049562,0.001000,0.001000,0.001000,0.001000,0.001000
1010.442308,0.049716,0.001000,0.001000,0.001000,0.001000,0.001000
1010.461538,0.049837,0.001000,0.001000,0.001000,0.001000,0.001000
1010.480769,0.049925,0.001000,0.001000,0.001000,0.001000,0.001000
1010.500000,0.049979,0.001000,0.001000,0.001000,0.001000,0.001000
1010.519231,0.050000,0.001000,0.001000,0.001000,0.001000,0.001000
1010.538462,0.049987,0.001000,0.001000,0.001000,0.001000,0.001000
1010.557692,0.049941,0.001000,0.001000,0.001000,0.001000,0.001000
1010.576923,0.049862,0.001000,0.001000,0.001000,0.001000,0.001000
1010.596154,0.049750,0.001000,0.001000,0.001000,0.001000,0.001000
1010.615385,0.049604,0.001000,0.001000,0.001000,0.001000,0.001000
1010.634615,0.049425,0.001000,0.001000,0.001000,0.001000,0.001000
1010.653846,0.049214,0.001000,0.001000,0.001000,0.001000,0.001000
1010.673077,0.048969,0.001000,0.001000,0.001000,0.001000,0.001000
1010.692308,0.048692,0.001000,0.001000,0.001000,0.001000,0.001000
1010.711538,0.048382,0.001000,0.001000,0.001000,0.001000,0.001000
1010.730769,0.048040,0.001000,0.001000,0.001000,0.001000,0.001000
1010.750000,0.047665,0.001000,0.001000,0.001000,0.001000,0.001000
1010.769231,0.047259,0.001000,0.001000,0.001000,0.001000,0.001000
1010.788462,0.046822,0.001000,0.001000,0.001000,0.001000,0.001000
1010.807692,0.046353,0.001000,0.001000,0.001000,0.001000,0.001000
1010.826923,0.045853,0.001000,0.001000,0.001000,0.001000,0.001000
1010.846154,0.045323,0.001000,0.001000,0.001000,0.001000,0.001000
1010.865385,0.044762,0.001000,0.001000,0.001000,0.001000,0.001000
1010.884615,0.044172,0.001000,0.001000,0.001000,0.001000,0.001000
1010.903846,0.043552,0.001000,0.001000,0.001000,0.001000,0.001000
1010.923077,0.042902,0.001000,0.001000,0.001000,0.001000,0.001000
1010.942308,0.042225,0.001000,0.001000,0.001000,0.001000,0.001000
1010.961538,0.041519,0.001000,0.001000,0.001000,0.001000,0.001000
1010.980769,0.040785,0.001000,0.001000,0.001000,0.001000,0.001000
1011.000000,0.040024,0.001000,0.001000,0.001000,0.001000,0.001000
1011.019231,0.039237,0.001000,0.001000,0.001000,0.001000,0.001000
1011.038462,0.038423,0.001000,0.001000,0.001000,0.001000,0.001000
1011.057692,0.037583,0.001000,0.001000,0.001000,0.001000,0.001000
1011.076923,0.036719,0.001000,0.001000,0.001000,0.001000,0.001000
1011.096154,0.035830,0.001000,0.001000,0.001000,0.001000,0.001000
1011.115385,0.034917,0.001000,0.001000,0.001000,0.001000,0.001000
1011.134615,0.033980,0.001000,0.001000,0.001000,0.001000,0.001000
1011.153846,0.033022,0.001000,0.001000,0.001000,0.001000,0.001000
1011.173077,0.032040,0.001000,0.001000,0.001000,0.001000,0.001000
1011.192308,0.031038,0.001000,0.001000,0.001000,0.001000,0.001000
1011.211538,0.030015,0.001000,0.001000,0.001000,0.001000,0.001000
1011.230769,0.028972,0.001000,0.001000,0.001000,0.001000,0.001000
1011.250000,0.027909,0.001000,0.001000,0.001000,0.001000,0.001000
1011.269231,0.026828,0.001000,0.001000,0.001000,0.001000,0.001000
1011.288462,0.025729,0.001000,0.001000,0.001000,0.001000,0.001000
1011.307692,0.024613,0.001000,0.001000,0.001000,0.001000,0.001000
1011.326923,0.023480,0.001000,0.001000,0.001000,0.001000,0.001000
1011.346154,0.022332,0.001000,0.001000,0.001000,0.001000,0.001000
1011.365385,0.021169,0.001000,0.001000,0.001000,0.001000,0.001000
1011.384615,0.019991,0.001000,0.001000,0.001000,0.001000,0.001000
1011.403846,0.018800,0.001000,0.001000,0.001000,0.001000,0.001000
1011.423077,0.017597,0.001000,0.001000,0.001000,0.001000,0.001000
1011.442308,0.016382,0.001000,0.001000,0.001000,0.001000,0.001000
1011.461538,0.015156,0.001000,0.001000,0.001000,0.001000,0.001000
1011.480769,0.013920,0.001000,0.001000,0.001000,0.001000,0.001000
1011.500000,0.012675,0.001000,0.001000,0.001000,0.001000,0.001000
1011.519231,0.011421,0.001000,0.001000,0.001000,0.001000,0.001000
1011.538462,0.010159,0.001000,0.001000,0.001000,0.001000,0.001000
1011.557692,0.008891,0.001000,0.001000,0.001000,0.001000,0.001000
1011.576923,0.007617,0.001000,0.001000,0.001000,0.001000,0.001000
1011.596154,0.006338,0.001000,0.001000,0.001000,0.001000,0.001000
1011.615385,0.005054,0.001000,0.001000,0.001000,0.001000,0.001000
1011.634615,0.003767,0.001000,0.001000,0.001000,0.001000,0.001000
1011.653846,0.002478,0.001000,0.001000,0.001000,0.001000,0.001000
1011.673077,0.001187,0.001000,0.001000,0.001000,0.001000,0.001000
1011.692308,-0.000105,0.001000,0.001000,0.001000,0.001000,0.001000
1011.711538,-0.001397,0.001000,0.001000,0.001000,0.001000,0.001000
1011.730769,-0.002687,0.001000,0.001000,0.001000,0.001000,0.001000
1011.750000,-0.003977,0.001000,0.001000,0.001000,0.001000,0.001000
1011.769231,-0.005263,0.001000,0.001000,0.001000,0.001000,0.001000
1011.788462,-0.006546,0.001000,0.001000,0.001000,0.001000,0.001000
1011.807692,-0.007824,0.001000,0.001000,0.001000,0.001000,0.001000
1011.826923,-0.009098,0.001000,0.001000,0.001000,0.001000,0.001000
1011.846154,-0.010365,0.001000,0.001000,0.001000,0.001000,0.001000
1011.865385,-0.011625,0.001000,0.001000,0.001000,0.001000,0.001000
1011.884615,-0.012878,0.001000,0.001000,0.001000,0.001000,0.001000
1011.903846,-0.014121,0.001000,0.001000,0.001000,0.001000,0.001000
1011.923077,-0.015356,0.001000,0.001000,0.001000,0.001000,0.001000
1011.942308,-0.016580,0.001000,0.001000,0.001000,0.001000,0.001000
1011.961538,-0.017793,0.001000,0.001000,0.001000,0.001000,0.001000
1011.980769,-0.018995,0.001000,0.001000,0.001000,0.001000,0.001000
1012.000000,-0.020183,0.001000,0.001000,0.001000,0.001000,0.001000
1012.019231,-0.021358,0.001000,0.001000,0.001000,0.001000,0.001000
1012.038462,-0.022519,0.001000,0.001000,0.001000,0.001000,0.001000
1012.057692,-0.023665,0.001000,0.001000,0.001000,0.001000,0.001000
1012.076923,-0.024795,0.001000,0.001000,0.001000,0.001000,0.001000
1012.096154,-0.025909,0.001000,0.001000,0.001000,0.001000,0.001000
1012.115385,-0.027005,0.001000,0.001000,0.001000,0.001000,0.001000
1012.134615,-0.028083,0.001000,0.001000,0.001000,0.001000,0.001000
1012.153846,-0.029143,0.001000,0.001000,0.001000,0.001000,0.001000
1012.173077,-0.030182,0.001000,0.001000,0.001000,0.001000,0.001000
1012.192308,-0.031202,0.001000,0.001000,0.001000,0.001000,0.001000
1012.211538,-0.032201,0.001000,0.001000,0.001000,0.001000,0.001000
1012.230769,-0.033179,0.001000,0.001000,0.001000,0.001000,0.001000
1012.250000,-0.034134,0.001000,0.001000,0.001000,0.001000,0.001000
1012.269231,-0.035067,0.001000,0.001000,0.001000,0.001000,0.001000
1012.288462,-0.035976,0.001000,0.001000,0.001000,0.001000,0.001000
1012.307692,-0.036861,0.001000,0.001000,0.001000,0.001000,0.001000
1012.326923,-0.037721,0.001000,0.001000,0.001000,0.001000,0.001000
1012.346154,-0.038557,0.001000,0.001000,0.001000,0.001000,0.001000
1012.365385,-0.039366,0.001000,0.001000,0.001000,0.001000,0.001000
1012.384615,-0.040150,0.001000,0.001000,0.001000,0.001000,0.001000
1012.403846,-0.040906,0.001000,0.001000,0.001000,0.001000,0.001000
1012.423077,-0.041635,0.001000,0.001000,0.001000,0.001000,0.001000
1012.442308,-0.042337,0.001000,0.001000,0.001000,0.001000,0.001000
1012.461538,-0.043010,0.001000,0.001000,0.001000,0.001000,0.001000
1012.480769,-0.043654,0.001000,0.001000,0.001000,0.001000,0.001000
1012.500000,-0.044270,0.001000,0.001000,0.001000,0.001000,0.001000
1012.519231,-0.044855,0.001000,0.001000,0.001000,0.001000,0.001000
1012.538462,-0.045411,0.001000,0.001000,0.001000,0.001000,0.001000
1012.557692,-0.045936,0.001000,0.001000,0.001000,0.001000,0.001000
1012.576923,-0.046431,0.001000,0.001000,0.001000,0.001000,0.001000
1012.596154,-0.046895,0.001000,0.001000,0.001000,0.001000,0.001000
1012.615385,-0.047327,0.001000,0.001000,0.001000,0.001000,0.001000
1012.634615,-0.047728,0.001000,0.001000,0.001000,0.001000,0.001000
1012.653846,-0.048097,0.001000,0.001000,0.001000,0.001000,0.001000
1012.673077,-0.048434,0.001000,0.001000,0.001000,0.001000,0.001000
1012.692308,-0.048739,0.001000,0.001000,0.001000,0.001000,0.001000
1012.711538,-0.049011,0.001000,0.001000,0.001000,0.001000,0.001000
1012.730769,-0.049250,0.001000,0.001000,0.001000,0.001000,0.001000
1012.750000,-0.049457,0.001000,0.001000,0.001000,0.001000,0.001000
1012.769231,-0.049630,0.001000,0.001000,0.001000,0.001000,0.001000
1012.788462,-0.049770,0.001000,0.001000,0.001000,0.001000,0.001000
1012.807692,-0.049877,0.001000,0.001000,0.001000,0.001000,0.001000
1012.826923,-0.049951,0.001000,0.001000,0.001000,0.001000,0.001000
1012.846154,-0.049992,0.001000,0.001000,0.001000,0.001000,0.001000
1012.865385,-0.049999,0.001000,0.001000,0.001000,0.001000,0.001000
1012.884615,-0.049972,0.001000,0.001000,0.001000,0.001000,0.001000
1012.903846,-0.049913,0.001000,0.001000,0.001000,0.001000,0.001000
1012.923077,-0.049820,0.001000,0.001000,0.001000,0.001000,0.001000
1012.942308,-0.049693,0.001000,0.001000,0.001000,0.001000,0.001000
1012.961538,-0.049534,0.001000,0.001000,0.001000,0.001000,0.001000
1012.980769,-0.049341,0.001000,0.001000,0.001000,0.001000,0.001000
1013.000000,-0.049116,0.001000,0.001000,0.001000,0.001000,0.001000
1013.019231,-0.048857,0.001000,0.001000,0.001000,0.001000,0.001000
1013.038462,-0.048567,0.001000,0.001000,0.001000,0.001000,0.001000
1013.057692,-0.048243,0.001000,0.001000,0.001000,0.001000,0.001000
1013.076923,-0.047888,0.001000,0.001000,0.001000,0.001000,0.001000
1013.096154,-0.047500,0.001000,0.001000,0.001000,0.001000,0.001000
1013.115385,-0.047081,0.001000,0.001000,0.001000,0.001000,0.001000
1013.134615,-0.046630,0.001000,0.001000,0.001000,0.001000,0.001000
1013.153846,-0.046149,0.001000,0.001000,0.001000,0.001000,0.001000
1013.173077,-0.045636,0.001000,0.001000,0.001000,0.001000,0.001000
1013.192308,-0.045093,0.001000,0.001000,0.001000,0.001000,0.001000
1013.211538,-0.044520,0.001000,0.001000,0.001000,0.001000,0.001000
1013.230769,-0.043917,0.001000,0.001000,0.001000,0.001000,0.001000
1013.250000,-0.043285,0.001000,0.001000,0.001000,0.001000,0.001000
1013.269231,-0.042624,0.001000,0.001000,0.001000,0.001000,0.001000
1013.288462,-0.041934,0.001000,0.001000,0.001000,0.001000,0.001000
1013.307692,-0.041217,0.001000,0.001000,0.001000,0.001000,0.001000
1013.326923,-0.040472,0.001000,0.001000,0.001000,0.001000,0.001000
1013.346154,-0.039700,0.001000,0.001000,0.001000,0.001000,0.001000
1013.365385,-0.038901,0.001000,0.001000,0.001000,0.001000,0.001000
1013.384615,-0.038076,0.001000,0.001000,0.001000,0.001000,0.001000
1013.403846,-0.037227,0.001000,0.001000,0.001000,0.001000,0.001000
1013.423077,-0.036352,0.001000,0.001000,0.001000,0.001000,0.001000
1013.442308,-0.035453,0.001000,0.001000,0.001000,0.001000,0.001000
1013.461538,-0.034530,0.001000,0.001000,0.001000,0.001000,0.001000
1013.480769,-0.033584,0.001000,0.001000,0.001000,0.001000,0.001000
1013.500000,-0.032616,0.001000,0.001000,0.001000,0.001000,0.001000
1013.519231,-0.031626,0.001000,0.001000,0.001000,0.001000,0.001000
1013.538462,-0.030615,0.001000,0.001000,0.001000,0.001000,0.001000
1013.557692,-0.029583,0.001000,0.001000,0.001000,0.001000,0.001000
1013.576923,-0.028532,0.001000,0.001000,0.001000,0.001000,0.001000
1013.596154,-0.027461,0.001000,0.001000,0.001000,0.001000,0.001000
1013.615385,-0.026373,0.001000,0.001000,0.001000,0.001000,0.001000
1013.634615,-0.025266,0.001000,0.001000,0.001000,0.001000,0.001000
1013.653846,-0.024143,0.001000,0.001000,0.001000,0.001000,0.001000
1013.673077,-0.023004,0.001000,0.001000,0.001000,0.001000,0.001000
1013.692308,-0.021849,0.001000,0.001000,0.001000,0.001000,0.001000
1013.711538,-0.020680,0.001000,0.001000,0.001000,0.001000,0.001000
1013.730769,-0.019497,0.001000,0.001000,0.001000,0.001000,0.001000
1013.750000,-0.018301,0.001000,0.001000,0.001000,0.001000,0.001000
1013.769231,-0.017093,0.001000,0.001000,0.001000,0.001000,0.001000
1013.788462,-0.015873,0.001000,0.001000,0.001000,0.001000,0.001000
1013.807692,-0.014643,0.001000,0.001000,0.001000,0.001000,0.001000
1013.826923,-0.013403,0.001000,0.001000,0.001000,0.001000,0.001000
1013.846154,-0.012154,0.001000,0.001000,0.001000,0.001000,0.001000
1013.865385,-0.010897,0.001000,0.001000,0.001000,0.001000,0.001000
1013.884615,-0.009632,0.001000,0.001000,0.001000,0.001000,0.001000
1013.903846,-0.008361,0.001000,0.001000,0.001000,0.001000,0.001000
1013.923077,-0.007085,0.001000,0.001000,0.001000,0.001000,0.001000
1013.942308,-0.005804,0.001000,0.001000,0.001000,0.001000,0.001000
1013.961538,-0.004519,0.001000,0.001000,0.001000,0.001000,0.001000
1013.980769,-0.003231,0.001000,0.001000,0.001000,0.001000,0.001000
1014.000000,-0.001941,0.001000,0.001000,0.001000,0.001000,0.001000
1014.019231,-0.000649,0.001000,0.001000,0.001000,0.001000,0.001000
1014.038462,0.000643,0.001000,0.001000,0.001000,0.001000,0.001000
1014.057692,0.001934,0.001000,0.001000,0.001000,0.001000,0.001000
1014.076923,0.003224,0.001000,0.001000,0.001000,0.001000,0.001000
1014.096154,0.004512,0.001000,0.001000,0.001000,0.001000,0.001000
1014.115385,0.005797,0.001000,0.001000,0.001000,0.001000,0.001000
1014.134615,0.007079,0.001000,0.001000,0.001000,0.001000,0.001000
1014.153846,0.008355,0.001000,0.001000,0.001000,0.001000,0.001000
1014.173077,0.009626,0.001000,0.001000,0.001000,0.001000,0.001000
1014.192308,0.010890,0.001000,0.001000,0.001000,0.001000,0.001000
1014.211538,0.012147,0.001000,0.001000,0.001000,0.001000,0.001000
1014.230769,0.013396,0.001000,0.001000,0.001000,0.001000,0.001000
1014.250000,0.014637,0.001000,0.001000,0.001000,0.001000,0.001000
1014.269231,0.015867,0.001000,0.001000,0.001000,0.001000,0.001000
1014.288462,0.017087,0.001000,0.001000,0.001000,0.001000,0.001000
1014.307692,0.018295,0.001000,0.001000,0.001000,0.001000,0.001000
1014.326923,0.019491,0.001000,0.001000,0.001000,0.001000,0.001000
1014.346154,0.020674,0.001000,0.001000,0.001000,0.001000,0.001000
1014.365385,0.021843,0.001000,0.001000,0.001000,0.001000,0.001000
1014.384615,0.022998,0.001000,0.001000,0.001000,0.001000,0.001000
1014.403846,0.024138,0.001000,0.001000,0.001000,0.001000,0.001000
1014.423077,0.025261,0.001000,0.001000,0.001000,0.001000,0.001000
1014.442308,0.026367,0.001000,0.001000,0.001000,0.001000,0.001000
1014.461538,0.027456,0.001000,0.001000,0.001000,0.001000,0.001000
1014.480769,0.028526,0.001000,0.001000,0.001000,0.001000,0.001000
1014.500000,0.029578,0.001000,0.001000,0.001000,0.001000,0.001000
1014.519231,0.030609,0.001000,0.001000,0.001000,0.001000,0.001000
1014.538462,0.031621,0.001000,0.001000,0.001000,0.001000,0.001000
1014.557692,0.032611,0.001000,0.001000,0.001000,0.001000,0.001000
1014.576923,0.033579,0.001000,0.001000,0.001000,0.001000,0.001000
1014.596154,0.034525,0.001000,0.001000,0.001000,0.001000,0.001000
1014.615385,0.035448,0.001000,0.001000,0.001000,0.001000,0.001000
1014.634615,0.036347,0.001000,0.001000,0.001000,0.001000,0.001000
1014.653846,0.037222,0.001000,0.001000,0.001000,0.001000,0.001000
1014.673077,0.038072,0.001000,0.001000,0.001000,0.001000,0.001000
1014.692308,0.038897,0.001000,0.001000,0.001000,0.001000,0.001000
1014.711538,0.039696,0.001000,0.001000,0.001000,0.001000,0.001000
1014.730769,0.040468,0.001000,0.001000,0.001000,0.001000,0.001000
1014.750000,0.041213,0.001000,0.001000,0.001000,0.001000,0.001000
1014.769231,0.041931,0.001000,0.001000,0.001000,0.001000,0.001000
1014.788462,0.042620,0.001000,0.001000,0.001000,0.001000,0.001000
1014.807692,0.043282,0.001000,0.001000,0.001000,0.001000,0.001000
1014.826923,0.043914,0.001000,0.001000,0.001000,0.001000,0.001000
1014.846154,0.044517,0.001000,0.001000,0.001000,0.001000,0.001000
1014.865385,0.045090,0.001000,0.001000,0.001000,0.001000,0.001000
1014.884615,0.045633,0.001000,0.001000,0.001000,0.001000,0.001000
1014.903846,0.046146,0.001000,0.001000,0.001000,0.001000,0.001000
1014.923077,0.046628,0.001000,0.001000,0.001000,0.001000,0.001000
1014.942308,0.047079,0.001000,0.001000,0.001000,0.001000,0.001000
1014.961538,0.047498,0.001000,0.001000,0.001000,0.001000,0.001000
1014.980769,0.047886,0.001000,0.001000,0.001000,0.001000,0.001000
1015.000000,0.048242,0.001000,0.001000,0.001000,0.001000,0.001000
1015.019231,0.048565,0.001000,0.001000,0.001000,0.001000,0.001000
1015.038462,0.048856,0.001000,0.001000,0.001000,0.001000,0.001000
1015.057692,0.049115,0.001000,0.001000,0.001000,0.001000,0.001000
1015.076923,0.049340,0.001000,0.001000,0.001000,0.001000,0.001000
1015.096154,0.049533,0.001000,0.001000,0.001000,0.001000,0.001000
1015.115385,0.049692,0.001000,0.001000,0.001000,0.001000,0.001000
1015.134615,0.049819,0.001000,0.001000,0.001000,0.001000,0.001000
1015.153846,0.049912,0.001000,0.001000,0.001000,0.001000,0.001000
1015.173077,0.049972,0.001000,0.001000,0.001000,0.001000,0.001000
1015.192308,0.049999,0.001000,0.001000,0.001000,0.001000,0.001000
1015.211538,0.049992,0.001000,0.001000,0.001000,0.001000,0.001000
1015.230769,0.049951,0.001000,0.001000,0.001000,0.001000,0.001000
1015.250000,0.049878,0.001000,0.001000,0.001000,0.001000,0.001000
1015.269231,0.049771,0.001000,0.001000,0.001000,0.001000,0.001000
1015.288462,0.049631,0.001000,0.001000,0.001000,0.001000,0.001000
1015.307692,0.049458,0.001000,0.001000,0.001000,0.001000,0.001000
1015.326923,0.049251,0.001000,0.001000,0.001000,0.001000,0.001000
1015.346154,0.049012,0.001000,0.001000,0.001000,0.001000,0.001000
1015.365385,0.048740,0.001000,0.001000,0.001000,0.001000,0.001000
1015.384615,0.048436,0.001000,0.001000,0.001000,0.001000,0.001000
1015.403846,0.048099,0.001000,0.001000,0.001000,0.001000,0.001000
1015.423077,0.047730,0.001000,0.001000,0.001000,0.001000,0.001000
1015.442308,0.047330,0.001000,0.001000,0.001000,0.001000,0.001000
1015.461538,0.046897,0.001000,0.001000,0.001000,0.001000,0.001000
1015.480769,0.046434,0.001000,0.001000,0.001000,0.001000,0.001000
1015.500000,0.045939,0.001000,0.001000,0.001000,0.001000,0.001000
1015.519231,0.045414,0.001000,0.001000,0.001000,0.001000,0.001000
1015.538462,0.044858,0.001000,0.001000,0.001000,0.001000,0.001000
1015.557692,0.044273,0.001000,0.001000,0.001000,0.001000,0.001000
1015.576923,0.043657,0.001000,0.001000,0.001000,0.001000,0.001000
1015.596154,0.043013,0.001000,0.001000,0.001000,0.001000,0.001000
1015.615385,0.042340,0.001000,0.001000,0.001000,0.001000,0.001000
1015.634615,0.041639,0.001000,0.001000,0.001000,0.001000,0.001000
1015.653846,0.040910,0.001000,0.001000,0.001000,0.001000,0.001000
1015.673077,0.040154,0.001000,0.001000,0.001000,0.001000,0.001000
1015.692308,0.039370,0.001000,0.001000,0.001000,0.001000,0.001000
1015.711538,0.038561,0.001000,0.001000,0.001000,0.001000,0.001000
1015.730769,0.037726,0.001000,0.001000,0.001000,0.001000,0.001000
1015.750000,0.036865,0.001000,0.001000,0.001000,0.001000,0.001000
1015.769231,0.035980,0.001000,0.001000,0.001000,0.001000,0.001000
1015.788462,0.035071,0.001000,0.001000,0.001000,0.001000,0.001000
1015.807692,0.034139,0.001000,0.001000,0.001000,0.001000,0.001000
1015.826923,0.033184,0.001000,0.001000,0.001000,0.001000,0.001000
1015.846154,0.032206,0.001000,0.001000,0.001000,0.001000,0.001000
1015.865385,0.031207,0.001000,0.001000,0.001000,0.001000,0.001000
1015.884615,0.030188,0.001000,0.001000,0.001000,0.001000,0.001000
1015.903846,0.029148,0.001000,0.001000,0.001000,0.001000,0.001000
1015.923077,0.028089,0.001000,0.001000,0.001000,0.001000,0.001000
1015.942308,0.027011,0.001000,0.001000,0.001000,0.001000,0.001000
1015.961538,0.025914,0.001000,0.001000,0.001000,0.001000,0.001000
1015.980769,0.024801,0.001000,0.001000,0.001000,0.001000,0.001000
1016.000000,0.023671,0.001000,0.001000,0.001000,0.001000,0.001000
1016.019231,0.022525,0.001000,0.001000,0.001000,0.001000,0.001000
1016.038462,0.021364,0.001000,0.001000,0.001000,0.001000,0.001000
1016.057692,0.020189,0.001000,0.001000,0.001000,0.001000,0.001000
1016.076923,0.019001,0.001000,0.001000,0.001000,0.001000,0.001000
1016.096154,0.017800,0.001000,0.001000,0.001000,0.001000,0.001000
1016.115385,0.016586,0.001000,0.001000,0.001000,0.001000,0.001000
1016.134615,0.015362,0.001000,0.001000,0.001000,0.001000,0.001000
1016.153846,0.014128,0.001000,0.001000,0.001000,0.001000,0.001000
1016.173077,0.012884,0.001000,0.001000,0.001000,0.001000,0.001000
1016.192308,0.011631,0.001000,0.001000,0.001000,0.001000,0.001000
1016.211538,0.010371,0.001000,0.001000,0.001000,0.001000,0.001000
1016.230769,0.009104,0.001000,0.001000,0.001000,0.001000,0.001000
1016.250000,0.007831,0.001000,0.001000,0.001000,0.001000,0.001000
1016.269231,0.006552,0.001000,0.001000,0.001000,0.001000,0.001000
1016.288462,0.005270,0.001000,0.001000,0.001000,0.001000,0.001000
1016.307692,0.003983,0.001000,0.001000,0.001000,0.001000,0.001000
1016.326923,0.002694,0.001000,0.001000,0.001000,0.001000,0.001000
1016.346154,0.001403,0.001000,0.001000,0.001000,0.001000,0.001000
1016.365385,0.000112,0.001000,0.001000,0.001000,0.001000,0.001000
1016.384615,-0.001180,0.001000,0.001000,0.001000,0.001000,0.001000
1016.403846,-0.002471,0.001000,0.001000,0.001000,0.001000,0.001000
1016.423077,-0.003761,0.001000,0.001000,0.001000,0.001000,0.001000
1016.442308,-0.005048,0.001000,0.001000,0.001000,0.001000,0.001000
1016.461538,-0.006331,0.001000,0.001000,0.001000,0.001000,0.001000
1016.480769,-0.007610,0.001000,0.001000,0.001000,0.001000,0.001000
1016.500000,-0.008885,0.001000,0.001000,0.001000,0.001000,0.001000
1016.519231,-0.010153,0.001000,0.001000,0.001000,0.001000,0.001000
1016.538462,-0.011414,0.001000,0.001000,0.001000,0.001000,0.001000
1016.557692,-0.012668,0.001000,0.001000,0.001000,0.001000,0.001000
1016.576923,-0.013914,0.001000,0.001000,0.001000,0.001000,0.001000
1016.596154,-0.015150,0.001000,0.001000,0.001000,0.001000,0.001000
1016.615385,-0.016376,0.001000,0.001000,0.001000,0.001000,0.001000
1016.634615,-0.017591,0.001000,0.001000,0.001000,0.001000,0.001000
1016.653846,-0.018794,0.001000,0.001000,0.001000,0.001000,0.001000
1016.673077,-0.019985,0.001000,0.001000,0.001000,0.001000,0.001000
1016.692308,-0.021163,0.001000,0.001000,0.001000,0.001000,0.001000
1016.711538,-0.022326,0.001000,0.001000,0.001000,0.001000,0.001000
1016.730769,-0.023474,0.001000,0.001000,0.001000,0.001000,0.001000
1016.750000,-0.024607,0.001000,0.001000,0.001000,0.001000,0.001000
1016.769231,-0.025723,0.001000,0.001000,0.001000,0.001000,0.001000
1016.788462,-0.026823,0.001000,0.001000,0.001000,0.001000,0.001000
1016.807692,-0.027904,0.001000,0.001000,0.001000,0.001000,0.001000
1016.826923,-0.028966,0.001000,0.001000,0.001000,0.001000,0.001000
1016.846154,-0.030010,0.001000,0.001000,0.001000,0.001000,0.001000
1016.865385,-0.031033,0.001000,0.001000,0.001000,0.001000,0.001000
1016.884615,-0.032035,0.001000,0.001000,0.001000,0.001000,0.001000
1016.903846,-0.033017,0.001000,0.001000,0.001000,0.001000,0.001000
1016.923077,-0.033976,0.001000,0.001000,0.001000,0.001000,0.001000
1016.942308,-0.034912,0.001000,0.001000,0.001000,0.001000,0.001000
1016.961538,-0.035825,0.001000,0.001000,0.001000,0.001000,0.001000
1016.980769,-0.036714,0.001000,0.001000,0.001000,0.001000,0.001000
1017.000000,-0.037579,0.001000,0.001000,0.001000,0.001000,0.001000
1017.019231,-0.038419,0.001000,0.001000,0.001000,0.001000,0.001000
1017.038462,-0.039233,0.001000,0.001000,0.001000,0.001000,0.001000
1017.057692,-0.040020,0.001000,0.001000,0.001000,0.001000,0.001000
1017.076923,-0.040781,0.001000,0.001000,0.001000,0.001000,0.001000
1017.096154,-0.041515,0.001000,0.001000,0.001000,0.001000,0.001000
1017.115385,-0.042221,0.001000,0.001000,0.001000,0.001000,0.001000
1017.134615,-0.042899,0.001000,0.001000,0.001000,0.001000,0.001000
1017.153846,-0.043548,0.001000,0.001000,0.001000,0.001000,0.001000
1017.173077,-0.044168,0.001000,0.001000,0.001000,0.001000,0.001000
1017.192308,-0.044759,0.001000,0.001000,0.001000,0.001000,0.001000
1017.211538,-0.045320,0.001000,0.001000,0.001000,0.001000,0.001000
1017.230769,-0.045851,0.001000,0.001000,0.001000,0.001000,0.001000
1017.250000,-0.046350,0.001000,0.001000,0.001000,0.001000,0.001000
1017.269231,-0.046819,0.001000,0.001000,0.001000,0.001000,0.001000
1017.288462,-0.047257,0.001000,0.001000,0.001000,0.001000,0.001000
1017.307692,-0.047663,0.001000,0.001000,0.001000,0.001000,0.001000
1017.326923,-0.048038,0.001000,0.001000,0.001000,0.001000,0.001000
1017.346154,-0.048380,0.001000,0.001000,0.001000,0.001000,0.001000
1017.365385,-0.048690,0.001000,0.001000,0.001000,0.001000,0.001000
1017.384615,-0.048968,0.001000,0.001000,0.001000,0.001000,0.001000
1017.403846,-0.049212,0.001000,0.001000,0.001000,0.001000,0.001000
1017.423077,-0.049424,0.001000,0.001000,0.001000,0.001000,0.001000
1017.442308,-0.049603,0.001000,0.001000,0.001000,0.001000,0.001000
1017.461538,-0.049749,0.001000,0.001000,0.001000,0.001000,0.001000
1017.480769,-0.049862,0.001000,0.001000,0.001000,0.001000,0.001000
1017.500000,-0.049941,0.001000,0.001000,0.001000,0.001000,0.001000
1017.519231,-0.049987,0.001000,0.001000,0.001000,0.001000,0.001000
1017.538462,-0.050000,0.001000,0.001000,0.001000,0.001000,0.001000
1017.557692,-0.049979,0.001000,0.001000,0.001000,0.001000,0.001000
1017.576923,-0.049925,0.001000,0.001000,0.001000,0.001000,0.001000
1017.596154,-0.049837,0.001000,0.001000,0.001000,0.001000,0.001000
1017.615385,-0.049717,0.001000,0.001000,0.001000,0.001000,0.001000
1017.634615,-0.049563,0.001000,0.001000,0.001000,0.001000,0.001000
1017.653846,-0.049376,0.001000,0.001000,0.001000,0.001000,0.001000
1017.673077,-0.049156,0.001000,0.001000,0.001000,0.001000,0.001000
1017.692308,-0.048903,0.001000,0.001000,0.001000,0.001000,0.001000
1017.711538,-0.048618,0.001000,0.001000,0.001000,0.001000,0.001000
1017.730769,-0.048300,0.001000,0.001000,0.001000,0.001000,0.001000
1017.750000,-0.047950,0.001000,0.001000,0.001000,0.001000,0.001000
1017.769231,-0.047567,0.001000,0.001000,0.001000,0.001000,0.001000
1017.788462,-0.047154,0.001000,0.001000,0.001000,0.001000,0.001000
1017.807692,-0.046708,0.001000,0.001000,0.001000,0.001000,0.001000
1017.826923,-0.046232,0.001000,0.001000,0.001000,0.001000,0.001000
1017.846154,-0.045724,0.001000,0.001000,0.001000,0.001000,0.001000
1017.865385,-0.045186,0.001000,0.001000,0.001000,0.001000,0.001000
1017.884615,-0.044618,0.001000,0.001000,0.001000,0.001000,0.001000
1017.903846,-0.044020,0.001000,0.001000,0.001000,0.001000,0.001000
1017.923077,-0.043393,0.001000,0.001000,0.001000,0.001000,0.001000
1017.942308,-0.042737,0.001000,0.001000,0.001000,0.001000,0.001000
1017.961538,-0.042052,0.001000,0.001000,0.001000,0.001000,0.001000
1017.980769,-0.041339,0.001000,0.001000,0.001000,0.001000,0.001000
1018.000000,-0.040598,0.001000,0.001000,0.001000,0.001000,0.001000
1018.019231,-0.039831,0.001000,0.001000,0.001000,0.001000,0.001000
1018.038462,-0.039037,0.001000,0.001000,0.001000,0.001000,0.001000
1018.057692,-0.038216,0.001000,0.001000,0.001000,0.001000,0.001000
1018.076923,-0.037371,0.001000,0.001000,0.001000,0.001000,0.001000
1018.096154,-0.036500,0.001000,0.001000,0.001000,0.001000,0.001000
1018.115385,-0.035605,0.001000,0.001000,0.001000,0.001000,0.001000
1018.134615,-0.034686,0.001000,0.001000,0.001000,0.001000,0.001000
1018.153846,-0.033744,0.001000,0.001000,0.001000,0.001000,0.001000
1018.173077,-0.032780,0.001000,0.001000,0.001000,0.001000,0.001000
1018.192308,-0.031793,0.001000,0.001000,0.001000,0.001000,0.001000
1018.211538,-0.030786,0.001000,0.001000,0.001000,0.001000,0.001000
1018.230769,-0.029757,0.001000,0.001000,0.001000,0.001000,0.001000
1018.250000,-0.028709,0.001000,0.001000,0.001000,0.001000,0.001000
1018.269231,-0.027642,0.001000,0.001000,0.001000,0.001000,0.001000
1018.288462,-0.026556,0.001000,0.001000,0.001000,0.001000,0.001000
1018.307692,-0.025453,0.001000,0.001000,0.001000,0.001000,0.001000
1018.326923,-0.024333,0.001000,0.001000,0.001000,0.001000,0.001000
1018.346154,-0.023196,0.001000,0.001000,0.001000,0.001000,0.001000
1018.365385,-0.022044,0.001000,0.001000,0.001000,0.001000,0.001000
1018.384615,-0.020877,0.001000,0.001000,0.001000,0.001000,0.001000
1018.403846,-0.019696,0.001000,0.001000,0.001000,0.001000,0.001000
1018.423077,-0.018502,0.001000,0.001000,0.001000,0.001000,0.001000
1018.442308,-0.017296,0.001000,0.001000,0.001000,0.001000,0.001000
1018.461538,-0.016078,0.001000,0.001000,0.001000,0.001000,0.001000
1018.480769,-0.014850,0.001000,0.001000,0.001000,0.001000,0.001000
1018.500000,-0.013611,0.001000,0.001000,0.001000,0.001000,0.001000
1018.519231,-0.012364,0.001000,0.001000,0.001000,0.001000,0.001000
1018.538462,-0.011108,0.001000,0.001000,0.001000,0.001000,0.001000
1018.557692,-0.009845,0.001000,0.001000,0.001000,0.001000,0.001000
1018.576923,-0.008575,0.001000,0.001000,0.001000,0.001000,0.001000
1018.596154,-0.007299,0.001000,0.001000,0.001000,0.001000,0.001000
1018.615385,-0.006019,0.001000,0.001000,0.001000,0.001000,0.001000
1018.634615,-0.004734,0.001000,0.001000,0.001000,0.001000,0.001000
1018.653846,-0.003447,0.001000,0.001000,0.001000,0.001000,0.001000
1018.673077,-0.002157,0.001000,0.001000,0.001000,0.001000,0.001000
1018.692308,-0.000866,0.001000,0.001000,0.001000,0.001000,0.001000
1018.711538,0.000426,0.001000,0.001000,0.001000,0.001000,0.001000
1018.730769,0.001718,0.001000,0.001000,0.001000,0.001000,0.001000
1018.750000,0.003008,0.001000,0.001000,0.001000,0.001000,0.001000
1018.769231,0.004297,0.001000,0.001000,0.001000,0.001000,0.001000
1018.788462,0.005582,0.001000,0.001000,0.001000,0.001000,0.001000
1018.807692,0.006864,0.001000,0.001000,0.001000,0.001000,0.001000
1018.826923,0.008141,0.001000,0.001000,0.001000,0.001000,0.001000
1018.846154,0.009413,0.001000,0.001000,0.001000,0.001000,0.001000
1018.865385,0.010679,0.001000,0.001000,0.001000,0.001000,0.001000
1018.884615,0.011937,0.001000,0.001000,0.001000,0.001000,0.001000
1018.903846,0.013188,0.001000,0.001000,0.001000,0.001000,0.001000
1018.923077,0.014429,0.001000,0.001000,0.001000,0.001000,0.001000
1018.942308,0.015661,0.001000,0.001000,0.001000,0.001000,0.001000
1018.961538,0.016883,0.001000,0.001000,0.001000,0.001000,0.001000
1018.980769,0.018093,0.001000,0.001000,0.001000,0.001000,0.001000
1019.000000,0.019292,0.001000,0.001000,0.001000,0.001000,0.001000
1019.019231,0.020477,0.001000,0.001000,0.001000,0.001000,0.001000
1019.038462,0.021649,0.001000,0.001000,0.001000,0.001000,0.001000
1019.057692,0.022806,0.001000,0.001000,0.001000,0.001000,0.001000
1019.076923,0.023948,0.001000,0.001000,0.001000,0.001000,0.001000
1019.096154,0.025074,0.001000,0.001000,0.001000,0.001000,0.001000
1019.115385,0.026183,0.001000,0.001000,0.001000,0.001000,0.001000
1019.134615,0.027275,0.001000,0.001000,0.001000,0.001000,0.001000
1019.153846,0.028348,0.001000,0.001000,0.001000,0.001000,0.001000
1019.173077,0.029403,0.001000,0.001000,0.001000,0.001000,0.001000
1019.192308,0.030438,0.001000,0.001000,0.001000,0.001000,0.001000
1019.211538,0.031453,0.001000,0.001000,0.001000,0.001000,0.001000
1019.230769,0.032446,0.001000,0.001000,0.001000,0.001000,0.001000
1019.250000,0.033418,0.001000,0.001000,0.001000,0.001000,0.001000
1019.269231,0.034368,0.001000,0.001000,0.001000,0.001000,0.001000
1019.288462,0.035295,0.001000,0.001000,0.001000,0.001000,0.001000
1019.307692,0.036198,0.001000,0.001000,0.001000,0.001000,0.001000
1019.326923,0.037077,0.001000,0.001000,0.001000,0.001000,0.001000
1019.346154,0.037932,0.001000,0.001000,0.001000,0.001000,0.001000
1019.365385,0.038761,0.001000,0.001000,0.001000,0.001000,0.001000
1019.384615,0.039564,0.001000,0.001000,0.001000,0.001000,0.001000
1019.403846,0.040340,0.001000,0.001000,0.001000,0.001000,0.001000
1019.423077,0.041090,0.001000,0.001000,0.001000,0.001000,0.001000
1019.442308,0.041812,0.001000,0.001000,0.001000,0.001000,0.001000
1019.461538,0.042507,0.001000,0.001000,0.001000,0.001000,0.001000
1019.480769,0.043173,0.001000,0.001000,0.001000,0.001000,0.001000
1019.500000,0.043810,0.001000,0.001000,0.001000,0.001000,0.001000
1019.519231,0.044418,0.001000,0.001000,0.001000,0.001000,0.001000
1019.538462,0.044996,0.001000,0.001000,0.001000,0.001000,0.001000
1019.557692,0.045545,0.001000,0.001000,0.001000,0.001000,0.001000
1019.576923,0.046062,0.001000,0.001000,0.001000,0.001000,0.001000
1019.596154,0.046549,0.001000,0.001000,0.001000,0.001000,0.001000
1019.615385,0.047006,0.001000,0.001000,0.001000,0.001000,0.001000
1019.634615,0.047430,0.001000,0.001000,0.001000,0.001000,0.001000
1019.653846,0.047823,0.001000,0.001000,0.001000,0.001000,0.001000
1019.673077,0.048184,0.001000,0.001000,0.001000,0.001000,0.001000
1019.692308,0.048513,0.001000,0.001000,0.001000,0.001000,0.001000
1019.711538,0.048810,0.001000,0.001000,0.001000,0.001000,0.001000
1019.730769,0.049073,0.001000,0.001000,0.001000,0.001000,0.001000
1019.750000,0.049305,0.001000,0.001000,0.001000,0.001000,0.001000
1019.769231,0.049503,0.001000,0.001000,0.001000,0.001000,0.001000
1019.788462,0.049668,0.001000,0.001000,0.001000,0.001000,0.001000
1019.807692,0.049800,0.001000,0.001000,0.001000,0.001000,0.001000
1019.826923,0.049899,0.001000,0.001000,0.001000,0.001000,0.001000
1019.846154,0.049964,0.001000,0.001000,0.001000,0.001000,0.001000
1019.865385,0.049996,0.001000,0.001000,0.001000,0.001000,0.001000
1019.884615,0.049995,0.001000,0.001000,0.001000,0.001000,0.001000
1019.903846,0.049961,0.001000,0.001000,0.001000,0.001000,0.001000
1019.923077,0.049893,0.001000,0.001000,0.001000,0.001000,0.001000
1019.942308,0.049791,0.001000,0.001000,0.001000,0.001000,0.001000
1019.961538,0.049657,0.001000,0.001000,0.001000,0.001000,0.001000
1019.980769,0.049489,0.001000,0.001000,0.001000,0.001000,0.001000
1020.000000,0.049288,0.001000,0.001000,0.001000,0.001000,0.001000
1020.019231,0.049055,0.001000,0.001000,0.001000,0.001000,0.001000
1020.038462,0.048788,0.001000,0.001000,0.001000,0.001000,0.001000
1020.057692,0.048489,0.001000,0.001000,0.001000,0.001000,0.001000
1020.076923,0.048158,0.001000,0.001000,0.001000,0.001000,0.001000
1020.096154,0.047794,0.001000,0.001000,0.001000,0.001000,0.001000
1020.115385,0.047399,0.001000,0.001000,0.001000,0.001000,0.001000
1020.134615,0.046972,0.001000,0.001000,0.001000,0.001000,0.001000
1020.153846,0.046514,0.001000,0.001000,0.001000,0.001000,0.001000
1020.173077,0.046024,0.001000,0.001000,0.001000,0.001000,0.001000
1020.192308,0.045504,0.001000,0.001000,0.001000,0.001000,0.001000
1020.211538,0.044953,0.001000,0.001000,0.001000,0.001000,0.001000
1020.230769,0.044373,0.001000,0.001000,0.001000,0.001000,0.001000
1020.250000,0.043763,0.001000,0.001000,0.001000,0.001000,0.001000
1020.269231,0.043123,0.001000,0.001000,0.001000,0.001000,0.001000
1020.288462,0.042455,0.001000,0.001000,0.001000,0.001000,0.001000
1020.307692,0.041758,0.001000,0.001000,0.001000,0.001000,0.001000
1020.326923,0.041034,0.001000,0.001000,0.001000,0.001000,0.001000
1020.346154,0.040282,0.001000,0.001000,0.001000,0.001000,0.001000
1020.365385,0.039503,0.001000,0.001000,0.001000,0.001000,0.001000
1020.384615,0.038698,0.001000,0.001000,0.001000,0.001000,0.001000
1020.403846,0.037867,0.001000,0.001000,0.001000,0.001000,0.001000
1020.423077,0.037011,0.001000,0.001000,0.001000,0.001000,0.001000
1020.442308,0.036130,0.001000,0.001000,0.001000,0.001000,0.001000
1020.461538,0.035225,0.001000,0.001000,0.001000,0.001000,0.001000
1020.480769,0.034297,0.001000,0.001000,0.001000,0.001000,0.001000
1020.500000,0.033345,0.001000,0.001000,0.001000,0.001000,0.001000
1020.519231,0.032372,0.001000,0.001000,0.001000,0.001000,0.001000
1020.538462,0.031376,0.001000,0.001000,0.001000,0.001000,0.001000
1020.557692,0.030360,0.001000,0.001000,0.001000,0.001000,0.001000
1020.576923,0.029323,0.001000,0.001000,0.001000,0.001000,0.001000
1020.596154,0.028267,0.001000,0.001000,0.001000,0.001000,0.001000
1020.615385,0.027192,0.001000,0.001000,0.001000,0.001000,0.001000
1020.634615,0.026099,0.001000,0.001000,0.001000,0.001000,0.001000
1020.653846,0.024989,0.001000,0.001000,0.001000,0.001000,0.001000
1020.673077,0.023861,0.001000,0.001000,0.001000,0.001000,0.001000
1020.692308,0.022718,0.001000,0.001000,0.001000,0.001000,0.001000
1020.711538,0.021560,0.001000,0.001000,0.001000,0.001000,0.001000
1020.730769,0.020387,0.001000,0.001000,0.001000,0.001000,0.001000
1020.750000,0.019201,0.001000,0.001000,0.001000,0.001000,0.001000
1020.769231,0.018002,0.001000,0.001000,0.001000,0.001000,0.001000
1020.788462,0.016791,0.001000,0.001000,0.001000,0.001000,0.001000
1020.807692,0.015568,0.001000,0.001000,0.001000,0.001000,0.001000
1020.826923,0.014335,0.001000,0.001000,0.001000,0.001000,0.001000
1020.846154,0.013093,0.001000,0.001000,0.001000,0.001000,0.001000
1020.865385,0.011842,0.001000,0.001000,0.001000,0.001000,0.001000
1020.884615,0.010583,0.001000,0.001000,0.001000,0.001000,0.001000
1020.903846,0.009317,0.001000,0.001000,0.001000,0.001000,0.001000
1020.923077,0.008045,0.001000,0.001000,0.001000,0.001000,0.001000
1020.942308,0.006767,0.001000,0.001000,0.001000,0.001000,0.001000
1020.961538,0.005485,0.001000,0.001000,0.001000,0.001000,0.001000
1020.980769,0.004199,0.001000,0.001000,0.001000,0.001000,0.001000
1021.000000,0.002910,0.001000,0.001000,0.001000,0.001000,0.001000
1021.019231,0.001620,0.001000,0.001000,0.001000,0.001000,0.001000
1021.038462,0.000328,0.001000,0.001000,0.001000,0.001000,0.001000
1021.057692,-0.000964,0.001000,0.001000,0.001000,0.001000,0.001000
1021.076923,-0.002255,0.001000,0.001000,0.001000,0.001000,0.001000
1021.096154,-0.003545,0.001000,0.001000,0.001000,0.001000,0.001000
1021.115385,-0.004832,0.001000,0.001000,0.001000,0.001000,0.001000
1021.134615,-0.006116,0.001000,0.001000,0.001000,0.001000,0.001000
1021.153846,-0.007396,0.001000,0.001000,0.001000,0.001000,0.001000
1021.173077,-0.008672,0.001000,0.001000,0.001000,0.001000,0.001000
1021.192308,-0.009941,0.001000,0.001000,0.001000,0.001000,0.001000
1021.211538,-0.011204,0.001000,0.001000,0.001000,0.001000,0.001000
1021.230769,-0.012459,0.001000,0.001000,0.001000,0.001000,0.001000
1021.250000,-0.013706,0.001000,0.001000,0.001000,0.001000,0.001000
1021.269231,-0.014943,0.001000,0.001000,0.001000,0.001000,0.001000
1021.288462,-0.016171,0.001000,0.001000,0.001000,0.001000,0.001000
1021.307692,-0.017388,0.001000,0.001000,0.001000,0.001000,0.001000
1021.326923,-0.018594,0.001000,0.001000,0.001000,0.001000,0.001000
1021.346154,-0.019787,0.001000,0.001000,0.001000,0.001000,0.001000
1021.365385,-0.020966,0.001000,0.001000,0.001000,0.001000,0.001000
1021.384615,-0.022132,0.001000,0.001000,0.001000,0.001000,0.001000
1021.403846,-0.023283,0.001000,0.001000,0.001000,0.001000,0.001000
1021.423077,-0.024418,0.001000,0.001000,0.001000,0.001000,0.001000
1021.442308,-0.025538,0.001000,0.001000,0.001000,0.001000,0.001000
1021.461538,-0.026640,0.001000,0.001000,0.001000,0.001000,0.001000
1021.480769,-0.027724,0.001000,0.001000,0.001000,0.001000,0.001000
1021.500000,-0.028790,0.001000,0.001000,0.001000,0.001000,0.001000
1021.519231,-0.029836,0.001000,0.001000,0.001000,0.001000,0.001000
1021.538462,-0.030863,0.001000,0.001000,0.001000,0.001000,0.001000
1021.557692,-0.031869,0.001000,0.001000,0.001000,0.001000,0.001000
1021.576923,-0.032854,0.001000,0.001000,0.001000,0.001000,0.001000
1021.596154,-0.033817,0.001000,0.001000,0.001000,0.001000,0.001000
1021.615385,-0.034757,0.001000,0.001000,0.001000,0.001000,0.001000
1021.634615,-0.035674,0.001000,0.001000,0.001000,0.001000,0.001000
1021.653846,-0.036567,0.001000,0.001000,0.001000,0.001000,0.001000
1021.673077,-0.037436,0.001000,0.001000,0.001000,0.001000,0.001000
1021.692308,-0.038280,0.001000,0.001000,0.001000,0.001000,0.001000
1021.711538,-0.039098,0.001000,0.001000,0.001000,0.001000,0.001000
1021.730769,-0.039890,0.001000,0.001000,0.001000,0.001000,0.001000
1021.750000,-0.040656,0.001000,0.001000,0.001000,0.001000,0.001000
1021.769231,-0.041394,0.001000,0.001000,0.001000,0.001000,0.001000
1021.788462,-0.042105,0.001000,0.001000,0.001000,0.001000,0.001000
1021.807692,-0.042787,0.001000,0.001000,0.001000,0.001000,0.001000
1021.826923,-0.043442,0.001000,0.001000,0.001000,0.001000,0.001000
1021.846154,-0.044067,0.001000,0.001000,0.001000,0.001000,0.001000
1021.865385,-0.044662,0.001000,0.001000,0.001000,0.001000,0.001000
1021.884615,-0.045228,0.001000,0.001000,0.001000,0.001000,0.001000
1021.903846,-0.045764,0.001000,0.001000,0.001000,0.001000,0.001000
1021.923077,-0.046269,0.001000,0.001000,0.001000,0.001000,0.001000
1021.942308,-0.046743,0.001000,0.001000,0.001000,0.001000,0.001000
1021.961538,-0.047186,0.001000,0.001000,0.001000,0.001000,0.001000
1021.980769,-0.047598,0.001000,0.001000,0.001000,0.001000,0.001000
1022.000000,-0.047977,0.001000,0.001000,0.001000,0.001000,0.001000
1022.019231,-0.048325,0.001000,0.001000,0.001000,0.001000,0.001000
1022.038462,-0.048640,0.001000,0.001000,0.001000,0.001000,0.001000
1022.057692,-0.048923,0.001000,0.001000,0.001000,0.001000,0.001000
1022.076923,-0.049174,0.001000,0.001000,0.001000,0.001000,0.001000
1022.096154,-0.049391,0.001000,0.001000,0.001000,0.001000,0.001000
1022.115385,-0.049576,0.001000,0.001000,0.001000,0.001000,0.001000
1022.134615,-0.049727,0.001000,0.001000,0.001000,0.001000,0.001000
1022.153846,-0.049845,0.001000,0.001000,0.001000,0.001000,0.001000
1022.173077,-0.049930,0.001000,0.001000,0.001000,0.001000,0.001000
1022.192308,-0.049982,0.001000,0.001000,0.001000,0.001000,0.001000
1022.211538,-0.050000,0.001000,0.001000,0.001000,0.001000,0.001000
1022.230769,-0.049985,0.001000,0.001000,0.001000,0.001000,0.001000
1022.250000,-0.049936,0.001000,0.001000,0.001000,0.001000,0.001000
1022.269231,-0.049854,0.001000,0.001000,0.001000,0.001000,0.001000
1022.288462,-0.049739,0.001000,0.001000,0.001000,0.001000,0.001000
1022.307692,-0.049591,0.001000,0.001000,0.001000,0.001000,0.001000
1022.326923,-0.049409,0.001000,0.001000,0.001000,0.001000,0.001000
1022.346154,-0.049195,0.001000,0.001000,0.001000,0.001000,0.001000
1022.365385,-0.048948,0.001000,0.001000,0.001000,0.001000,0.001000
1022.384615,-0.048668,0.001000,0.001000,0.001000,0.001000,0.001000
1022.403846,-0.048355,0.001000,0.001000,0.001000,0.001000,0.001000
1022.423077,-0.048010,0.001000,0.001000,0.001000,0.001000,0.001000
1022.442308,-0.047634,0.001000,0.001000,0.001000,0.001000,0.001000
1022.461538,-0.047225,0.001000,0.001000,0.001000,0.001000,0.001000
1022.480769,-0.046785,0.001000,0.001000,0.001000,0.001000,0.001000
1022.500000,-0.046314,0.001000,0.001000,0.001000,0.001000,0.001000
1022.519231,-0.045811,0.001000,0.001000,0.001000,0.001000,0.001000
1022.538462,-0.045278,0.001000,0.001000,0.001000,0.001000,0.001000
1022.557692,-0.044715,0.001000,0.001000,0.001000,0.001000,0.001000
1022.576923,-0.044122,0.001000,0.001000,0.001000,0.001000,0.001000
1022.596154,-0.043500,0.001000,0.001000,0.001000,0.001000,0.001000
1022.615385,-0.042848,0.001000,0.001000,0.001000,0.001000,0.001000
1022.634615,-0.042168,0.001000,0.001000,0.001000,0.001000,0.001000
1022.653846,-0.041460,0.001000,0.001000,0.001000,0.001000,0.001000
1022.673077,-0.040724,0.001000,0.001000,0.001000,0.001000,0.001000
1022.692308,-0.039961,0.001000,0.001000,0.001000,0.001000,0.001000
1022.711538,-0.039172,0.001000,0.001000,0.001000,0.001000,0.001000
1022.730769,-0.038356,0.001000,0.001000,0.001000,0.001000,0.001000
1022.750000,-0.037514,0.001000,0.001000,0.001000,0.001000,0.001000
1022.769231,-0.036648,0.001000,0.001000,0.001000,0.001000,0.001000
1022.788462,-0.035757,0.001000,0.001000,0.001000,0.001000,0.001000
1022.807692,-0.034842,0.001000,0.001000,0.001000,0.001000,0.001000
1022.826923,-0.033903,0.001000,0.001000,0.001000,0.001000,0.001000
1022.846154,-0.032943,0.001000,0.001000,0.001000,0.001000,0.001000
1022.865385,-0.031960,0.001000,0.001000,0.001000,0.001000,0.001000
1022.884615,-0.030956,0.001000,0.001000,0.001000,0.001000,0.001000
1022.903846,-0.029931,0.001000,0.001000,0.001000,0.001000,0.001000
1022.923077,-0.028886,0.001000,0.001000,0.001000,0.001000,0.001000
1022.942308,-0.027822,0.001000,0.001000,0.001000,0.001000,0.001000
1022.961538,-0.026740,0.001000,0.001000,0.001000,0.001000,0.001000
1022.980769,-0.025639,0.001000,0.001000,0.001000,0.001000,0.001000
1023.000000,-0.024521,0.001000,0.001000,0.001000,0.001000,0.001000
1023.019231,-0.023388,0.001000,0.001000,0.001000,0.001000,0.001000
1023.038462,-0.022238,0.001000,0.001000,0.001000,0.001000,0.001000
1023.057692,-0.021074,0.001000,0.001000,0.001000,0.001000,0.001000
1023.076923,-0.019895,0.001000,0.001000,0.001000,0.001000,0.001000
1023.096154,-0.018703,0.001000,0.001000,0.001000,0.001000,0.001000
1023.115385,-0.017499,0.001000,0.001000,0.001000,0.001000,0.001000
1023.134615,-0.016283,0.001000,0.001000,0.001000,0.001000,0.001000
1023.153846,-0.015056,0.001000,0.001000,0.001000,0.001000,0.001000
1023.173077,-0.013819,0.001000,0.001000,0.001000,0.001000,0.001000
1023.192308,-0.012573,0.001000,0.001000,0.001000,0.001000,0.001000
1023.211538,-0.011319,0.001000,0.001000,0.001000,0.001000,0.001000
1023.230769,-0.010057,0.001000,0.001000,0.001000,0.001000,0.001000
1023.250000,-0.008788,0.001000,0.001000,0.001000,0.001000,0.001000
1023.269231,-0.007513,0.001000,0.001000,0.001000,0.001000,0.001000
1023.288462,-0.006234,0.001000,0.001000,0.001000,0.001000,0.001000
1023.307692,-0.004950,0.001000,0.001000,0.001000,0.001000,0.001000
1023.326923,-0.003663,0.001000,0.001000,0.001000,0.001000,0.001000
1023.346154,-0.002373,0.001000,0.001000,0.001000,0.001000,0.001000
1023.365385,-0.001082,0.001000,0.001000,0.001000,0.001000,0.001000
1023.384615,0.000210,0.001000,0.001000,0.001000,0.001000,0.001000
1023.403846,0.001502,0.001000,0.001000,0.001000,0.001000,0.001000
1023.423077,0.002792,0.001000,0.001000,0.001000,0.001000,0.001000
1023.442308,0.004081,0.001000,0.001000,0.001000,0.001000,0.001000
1023.461538,0.005367,0.001000,0.001000,0.001000,0.001000,0.001000
1023.480769,0.006650,0.001000,0.001000,0.001000,0.001000,0.001000
1023.500000,0.007928,0.001000,0.001000,0.001000,0.001000,0.001000
1023.519231,0.009201,0.001000,0.001000,0.001000,0.001000,0.001000
1023.538462,0.010467,0.001000,0.001000,0.001000,0.001000,0.001000
1023.557692,0.011727,0.001000,0.001000,0.001000,0.001000,0.001000
1023.576923,0.012979,0.001000,0.001000,0.001000,0.001000,0.001000
1023.596154,0.014222,0.001000,0.001000,0.001000,0.001000,0.001000
1023.615385,0.015456,0.001000,0.001000,0.001000,0.001000,0.001000
1023.634615,0.016679,0.001000,0.001000,0.001000,0.001000,0.001000
1023.653846,0.017891,0.001000,0.001000,0.001000,0.001000,0.001000
1023.673077,0.019092,0.001000,0.001000,0.001000,0.001000,0.001000
1023.692308,0.020279,0.001000,0.001000,0.001000,0.001000,0.001000
1023.711538,0.021453,0.001000,0.001000,0.001000,0.001000,0.001000
1023.730769,0.022613,0.001000,0.001000,0.001000,0.001000,0.001000
1023.750000,0.023758,0.001000,0.001000,0.001000,0.001000,0.001000
1023.769231,0.024886,0.001000,0.001000,0.001000,0.001000,0.001000
1023.788462,0.025998,0.001000,0.001000,0.001000,0.001000,0.001000
1023.807692,0.027093,0.001000,0.001000,0.001000,0.001000,0.001000
1023.826923,0.028170,0.001000,0.001000,0.001000,0.001000,0.001000
1023.846154,0.029228,0.001000,0.001000,0.001000,0.001000,0.001000
1023.865385,0.030266,0.001000,0.001000,0.001000,0.001000,0.001000
1023.884615,0.031284,0.001000,0.001000,0.001000,0.001000,0.001000
1023.903846,0.032281,0.001000,0.001000,0.001000,0.001000,0.001000
1023.923077,0.033257,0.001000,0.001000,0.001000,0.001000,0.001000
1023.942308,0.034211,0.001000,0.001000,0.001000,0.001000,0.001000
1023.961538,0.035141,0.001000,0.001000,0.001000,0.001000,0.001000
1023.980769,0.036049,0.001000,0.001000,0.001000,0.001000,0.001000
1024.000000,0.036932,0.001000,0.001000,0.001000,0.001000,0.001000
1024.019231,0.037790,0.001000,0.001000,0.001000,0.001000,0.001000
1024.038462,0.038623,0.001000,0.001000,0.001000,0.001000,0.001000
1024.057692,0.039431,0.001000,0.001000,0.001000,0.001000,0.001000
1024.076923,0.040212,0.001000,0.001000,0.001000,0.001000,0.001000
1024.096154,0.040966,0.001000,0.001000,0.001000,0.001000,0.001000
1024.115385,0.041693,0.001000,0.001000,0.001000,0.001000,0.001000
1024.134615,0.042392,0.001000,0.001000,0.001000,0.001000,0.001000
1024.153846,0.043063,0.001000,0.001000,0.001000,0.001000,0.001000
1024.173077,0.043705,0.001000,0.001000,0.001000,0.001000,0.001000
1024.192308,0.044318,0.001000,0.001000,0.001000,0.001000,0.001000
1024.211538,0.044901,0.001000,0.001000,0.001000,0.001000,0.001000
1024.230769,0.045455,0.001000,0.001000,0.001000,0.001000,0.001000
1024.250000,0.045978,0.001000,0.001000,0.001000,0.001000,0.001000
1024.269231,0.046470,0.001000,0.001000,0.001000,0.001000,0.001000
1024.288462,0.046931,0.001000,0.001000,0.001000,0.001000,0.001000
1024.307692,0.047361,0.001000,0.001000,0.001000,0.001000,0.001000
1024.326923,0.047760,0.001000,0.001000,0.001000,0.001000,0.001000
1024.346154,0.048126,0.001000,0.001000,0.001000,0.001000,0.001000
1024.365385,0.048460,0.001000,0.001000,0.001000,0.001000,0.001000
1024.384615,0.048762,0.001000,0.001000,0.001000,0.001000,0.001000
1024.403846,0.049032,0.001000,0.001000,0.001000,0.001000,0.001000
1024.423077,0.049268,0.001000,0.001000,0.001000,0.001000,0.001000
1024.442308,0.049472,0.001000,0.001000,0.001000,0.001000,0.001000
1024.461538,0.049643,0.001000,0.001000,0.001000,0.001000,0.001000
1024.480769,0.049780,0.001000,0.001000,0.001000,0.001000,0.001000
1024.500000,0.049885,0.001000,0.001000,0.001000,0.001000,0.001000
1024.519231,0.049956,0.001000,0.001000,0.001000,0.001000,0.001000
1024.538462,0.049993,0.001000,0.001000,0.001000,0.001000,0.001000
1024.557692,0.049998,0.001000,0.001000,0.001000,0.001000,0.001000
1024.576923,0.049969,0.001000,0.001000,0.001000,0.001000,0.001000
1024.596154,0.049906,0.001000,0.001000,0.001000,0.001000,0.001000
1024.615385,0.049811,0.001000,0.001000,0.001000,0.001000,0.001000
1024.634615,0.049682,0.001000,0.001000,0.001000,0.001000,0.001000
1024.653846,0.049519,0.001000,0.001000,0.001000,0.001000,0.001000
1024.673077,0.049324,0.001000,0.001000,0.001000,0.001000,0.001000
1024.692308,0.049096,0.001000,0.001000,0.001000,0.001000,0.001000
1024.711538,0.048835,0.001000,0.001000,0.001000,0.001000,0.001000
1024.730769,0.048542,0.001000,0.001000,0.001000,0.001000,0.001000
1024.750000,0.048216,0.001000,0.001000,0.001000,0.001000,0.001000
1024.769231,0.047857,0.001000,0.001000,0.001000,0.001000,0.001000
1024.788462,0.047467,0.001000,0.001000,0.001000,0.001000,0.001000
1024.807692,0.047046,0.001000,0.001000,0.001000,0.001000,0.001000
1024.826923,0.046592,0.001000,0.001000,0.001000,0.001000,0.001000
1024.846154,0.046108,0.001000,0.001000,0.001000,0.001000,0.001000
1024.865385,0.045593,0.001000,0.001000,0.001000,0.001000,0.001000
1024.884615,0.045048,0.001000,0.001000,0.001000,0.001000,0.001000
1024.903846,0.044472,0.001000,0.001000,0.001000,0.001000,0.001000
1024.923077,0.043867,0.001000,0.001000,0.001000,0.001000,0.001000
1024.942308,0.043232,0.001000,0.001000,0.001000,0.001000,0.001000
1024.961538,0.042569,0.001000,0.001000,0.001000,0.001000,0.001000
1024.980769,0.041877,0.001000,0.001000,0.001000,0.001000,0.001000
1025.000000,0.041157,0.001000,0.001000,0.001000,0.001000,0.001000
1025.019231,0.040410,0.001000,0.001000,0.001000,0.001000,0.001000
1025.038462,0.039636,0.001000,0.001000,0.001000,0.001000,0.001000
1025.057692,0.038835,0.001000,0.001000,0.001000,0.001000,0.001000
1025.076923,0.038008,0.001000,0.001000,0.001000,0.001000,0.001000
1025.096154,0.037156,0.001000,0.001000,0.001000,0.001000,0.001000
1025.115385,0.036280,0.001000,0.001000,0.001000,0.001000,0.001000
1025.134615,0.035379,0.001000,0.001000,0.001000,0.001000,0.001000
1025.153846,0.034454,0.001000,0.001000,0.001000,0.001000,0.001000
1025.173077,0.033506,0.001000,0.001000,0.001000,0.001000,0.001000
1025.192308,0.032536,0.001000,0.001000,0.001000,0.001000,0.001000
1025.211538,0.031544,0.001000,0.001000,0.001000,0.001000,0.001000
1025.230769,0.030532,0.001000,0.001000,0.001000,0.001000,0.001000
1025.250000,0.029499,0.001000,0.001000,0.001000,0.001000,0.001000
1025.269231,0.028446,0.001000,0.001000,0.001000,0.001000,0.001000
1025.288462,0.027374,0.001000,0.001000,0.001000,0.001000,0.001000
1025.307692,0.026284,0.001000,0.001000,0.001000,0.001000,0.001000
1025.326923,0.025176,0.001000,0.001000,0.001000,0.001000,0.001000
1025.346154,0.024051,0.001000,0.001000,0.001000,0.001000,0.001000
1025.365385,0.022911,0.001000,0.001000,0.001000,0.001000,0.001000
1025.384615,0.021755,0.001000,0.001000,0.001000,0.001000,0.001000
1025.403846,0.020585,0.001000,0.001000,0.001000,0.001000,0.001000
1025.423077,0.019401,0.001000,0.001000,0.001000,0.001000,0.001000
1025.442308,0.018203,0.001000,0.001000,0.001000,0.001000,0.001000
1025.461538,0.016994,0.001000,0.001000,0.001000,0.001000,0.001000
1025.480769,0.015774,0.001000,0.001000,0.001000,0.001000,0.001000
1025.500000,0.014543,0.001000,0.001000,0.001000,0.001000,0.001000
1025.519231,0.013302,0.001000,0.001000,0.001000,0.001000,0.001000
1025.538462,0.012052,0.001000,0.001000,0.001000,0.001000,0.001000
1025.557692,0.010794,0.001000,0.001000,0.001000,0.001000,0.001000
1025.576923,0.009529,0.001000,0.001000,0.001000,0.001000,0.001000
1025.596154,0.008258,0.001000,0.001000,0.001000,0.001000,0.001000
1025.615385,0.006981,0.001000,0.001000,0.001000,0.001000,0.001000
1025.634615,0.005700,0.001000,0.001000,0.001000,0.001000,0.001000
1025.653846,0.004414,0.001000,0.001000,0.001000,0.001000,0.001000
1025.673077,0.003126,0.001000,0.001000,0.001000,0.001000,0.001000
1025.692308,0.001836,0.001000,0.001000,0.001000,0.001000,0.001000
1025.711538,0.000544,0.001000,0.001000,0.001000,0.001000,0.001000
1025.730769,-0.000748,0.001000,0.001000,0.001000,0.001000,0.001000
1025.750000,-0.002039,0.001000,0.001000,0.001000,0.001000,0.001000
1025.769231,-0.003329,0.001000,0.001000,0.001000,0.001000,0.001000
1025.788462,-0.004617,0.001000,0.001000,0.001000,0.001000,0.001000
1025.807692,-0.005902,0.001000,0.001000,0.001000,0.001000,0.001000
1025.826923,-0.007182,0.001000,0.001000,0.001000,0.001000,0.001000
1025.846154,-0.008458,0.001000,0.001000,0.001000,0.001000,0.001000
1025.865385,-0.009729,0.001000,0.001000,0.001000,0.001000,0.001000
1025.884615,-0.010993,0.001000,0.001000,0.001000,0.001000,0.001000
1025.903846,-0.012249,0.001000,0.001000,0.001000,0.001000,0.001000
1025.923077,-0.013497,0.001000,0.001000,0.001000,0.001000,0.001000
1025.942308,-0.014737,0.001000,0.001000,0.001000,0.001000,0.001000
1025.961538,-0.015966,0.001000,0.001000,0.001000,0.001000,0.001000
1025.980769,-0.017185,0.001000,0.001000,0.001000,0.001000,0.001000
1026.000000,-0.018392,0.001000,0.001000,0.001000,0.001000,0.001000
1026.019231,-0.019588,0.001000,0.001000,0.001000,0.001000,0.001000
1026.038462,-0.020770,0.001000,0.001000,0.001000,0.001000,0.001000
1026.057692,-0.021938,0.001000,0.001000,0.001000,0.001000,0.001000
1026.076923,-0.023091,0.001000,0.001000,0.001000,0.001000,0.001000
1026.096154,-0.024229,0.001000,0.001000,0.001000,0.001000,0.001000
1026.115385,-0.025351,0.001000,0.001000,0.001000,0.001000,0.001000
1026.134615,-0.026456,0.001000,0.001000,0.001000,0.001000,0.001000
1026.153846,-0.027544,0.001000,0.001000,0.001000,0.001000,0.001000
1026.173077,-0.028612,0.001000,0.001000,0.001000,0.001000,0.001000
1026.192308,-0.029662,0.001000,0.001000,0.001000,0.001000,0.001000
1026.211538,-0.030692,0.001000,0.001000,0.001000,0.001000,0.001000
1026.230769,-0.031702,0.001000,0.001000,0.001000,0.001000,0.001000
1026.250000,-0.032690,0.001000,0.001000,0.001000,0.001000,0.001000
1026.269231,-0.033657,0.001000,0.001000,0.001000,0.001000,0.001000
1026.288462,-0.034601,0.001000,0.001000,0.001000,0.001000,0.001000
1026.307692,-0.035522,0.001000,0.001000,0.001000,0.001000,0.001000
1026.326923,-0.036419,0.001000,0.001000,0.001000,0.001000,0.001000
1026.346154,-0.037292,0.001000,0.001000,0.001000,0.001000,0.001000
1026.365385,-0.038140,0.001000,0.001000,0.001000,0.001000,0.001000
1026.384615,-0.038963,0.001000,0.001000,0.001000,0.001000,0.001000
1026.403846,-0.039759,0.001000,0.001000,0.001000,0.001000,0.001000
1026.423077,-0.040529,0.001000,0.001000,0.001000,0.001000,0.001000
1026.442308,-0.041272,0.001000,0.001000,0.001000,0.001000,0.001000
1026.461538,-0.041988,0.001000,0.001000,0.001000,0.001000,0.001000
1026.480769,-0.042675,0.001000,0.001000,0.001000,0.001000,0.001000
1026.500000,-0.043334,0.001000,0.001000,0.001000,0.001000,0.001000
1026.519231,-0.043964,0.001000,0.001000,0.001000,0.001000,0.001000
1026.538462,-0.044565,0.001000,0.001000,0.001000,0.001000,0.001000
1026.557692,-0.045135,0.001000,0.001000,0.001000,0.001000,0.001000
1026.576923,-0.045676,0.001000,0.001000,0.001000,0.001000,0.001000
1026.596154,-0.046186,0.001000,0.001000,0.001000,0.001000,0.001000
1026.615385,-0.046666,0.001000,0.001000,0.001000,0.001000,0.001000
1026.634615,-0.047114,0.001000,0.001000,0.001000,0.001000,0.001000
1026.653846,-0.047531,0.001000,0.001000,0.001000,0.001000,0.001000
1026.673077,-0.047916,0.001000,0.001000,0.001000,0.001000,0.001000
1026.692308,-0.048269,0.001000,0.001000,0.001000,0.001000,0.001000
1026.711538,-0.048590,0.001000,0.001000,0.001000,0.001000,0.001000
1026.730769,-0.048878,0.001000,0.001000,0.001000,0.001000,0.001000
1026.750000,-0.049134,0.001000,0.001000,0.001000,0.001000,0.001000
1026.769231,-0.049357,0.001000,0.001000,0.001000,0.001000,0.001000
1026.788462,-0.049547,0.001000,0.001000,0.001000,0.001000,0.001000
1026.807692,-0.049704,0.001000,0.001000,0.001000,0.001000,0.001000
1026.826923,-0.049828,0.001000,0.001000,0.001000,0.001000,0.001000
1026.846154,-0.049918,0.001000,0.001000,0.001000,0.001000,0.001000
1026.865385,-0.049975,0.001000,0.001000,0.001000,0.001000,0.001000
1026.884615,-0.049999,0.001000,0.001000,0.001000,0.001000,0.001000
1026.903846,-0.049990,0.001000,0.001000,0.001000,0.001000,0.001000
1026.923077,-0.049947,0.001000,0.001000,0.001000,0.001000,0.001000
1026.942308,-0.049870,0.001000,0.001000,0.001000,0.001000,0.001000
1026.961538,-0.049761,0.001000,0.001000,0.001000,0.001000,0.001000
1026.980769,-0.049618,0.001000,0.001000,0.001000,0.001000,0.001000
1027.000000,-0.049442,0.001000,0.001000,0.001000,0.001000,0.001000
1027.019231,-0.049233,0.001000,0.001000,0.001000,0.001000,0.001000
1027.038462,-0.048991,0.001000,0.001000,0.001000,0.001000,0.001000
1027.057692,-0.048717,0.001000,0.001000,0.001000,0.001000,0.001000
1027.076923,-0.048410,0.001000,0.001000,0.001000,0.001000,0.001000
1027.096154,-0.048070,0.001000,0.001000,0.001000,0.001000,0.001000
1027.115385,-0.047699,0.001000,0.001000,0.001000,0.001000,0.001000
1027.134615,-0.047296,0.001000,0.001000,0.001000,0.001000,0.001000
1027.153846,-0.046861,0.001000,0.001000,0.001000,0.001000,0.001000
1027.173077,-0.046395,0.001000,0.001000,0.001000,0.001000,0.001000
1027.192308,-0.045898,0.001000,0.001000,0.001000,0.001000,0.001000
1027.211538,-0.045370,0.001000,0.001000,0.001000,0.001000,0.001000
1027.230769,-0.044812,0.001000,0.001000,0.001000,0.001000,0.001000
1027.250000,-0.044224,0.001000,0.001000,0.001000,0.001000,0.001000
1027.269231,-0.043606,0.001000,0.001000,0.001000,0.001000,0.001000
1027.288462,-0.042960,0.001000,0.001000,0.001000,0.001000,0.001000
1027.307692,-0.042284,0.001000,0.001000,0.001000,0.001000,0.001000
1027.326923,-0.041581,0.001000,0.001000,0.001000,0.001000,0.001000
1027.346154,-0.040850,0.001000,0.001000,0.001000,0.001000,0.001000
1027.365385,-0.040091,0.001000,0.001000,0.001000,0.001000,0.001000
1027.384615,-0.039306,0.001000,0.001000,0.001000,0.001000,0.001000
1027.403846,-0.038494,0.001000,0.001000,0.001000,0.001000,0.001000
1027.423077,-0.037657,0.001000,0.001000,0.001000,0.001000,0.001000
1027.442308,-0.036794,0.001000,0.001000,0.001000,0.001000,0.001000
1027.461538,-0.035907,0.001000,0.001000,0.001000,0.001000,0.001000
1027.480769,-0.034997,0.001000,0.001000,0.001000,0.001000,0.001000
1027.500000,-0.034062,0.001000,0.001000,0.001000,0.001000,0.001000
1027.519231,-0.033105,0.001000,0.001000,0.001000,0.001000,0.001000
1027.538462,-0.032126,0.001000,0.001000,0.001000,0.001000,0.001000
1027.557692,-0.031125,0.001000,0.001000,0.001000,0.001000,0.001000
1027.576923,-0.030104,0.001000,0.001000,0.001000,0.001000,0.001000
1027.596154,-0.029063,0.001000,0.001000,0.001000,0.001000,0.001000
1027.615385,-0.028002,0.001000,0.001000,0.001000,0.001000,0.001000
1027.634615,-0.026922,0.001000,0.001000,0.001000,0.001000,0.001000
1027.653846,-0.025825,0.001000,0.001000,0.001000,0.001000,0.001000
1027.673077,-0.024710,0.001000,0.001000,0.001000,0.001000,0.001000
1027.692308,-0.023579,0.001000,0.001000,0.001000,0.001000,0.001000
1027.711538,-0.022432,0.001000,0.001000,0.001000,0.001000,0.001000
1027.730769,-0.021270,0.001000,0.001000,0.001000,0.001000,0.001000
1027.750000,-0.020093,0.001000,0.001000,0.001000,0.001000,0.001000
1027.769231,-0.018904,0.001000,0.001000,0.001000,0.001000,0.001000
1027.788462,-0.017702,0.001000,0.001000,0.001000,0.001000,0.001000
1027.807692,-0.016487,0.001000,0.001000,0.001000,0.001000,0.001000
1027.826923,-0.015262,0.001000,0.001000,0.001000,0.001000,0.001000
1027.846154,-0.014027,0.001000,0.001000,0.001000,0.001000,0.001000
1027.865385,-0.012783,0.001000,0.001000,0.001000,0.001000,0.001000
1027.884615,-0.011529,0.001000,0.001000,0.001000,0.001000,0.001000
1027.903846,-0.010269,0.001000,0.001000,0.001000,0.001000,0.001000
1027.923077,-0.009001,0.001000,0.001000,0.001000,0.001000,0.001000
1027.942308,-0.007727,0.001000,0.001000,0.001000,0.001000,0.001000
1027.961538,-0.006448,0.001000,0.001000,0.001000,0.001000,0.001000
1027.980769,-0.005165,0.001000,0.001000,0.001000,0.001000,0.001000
1028.000000,-0.003879,0.001000,0.001000,0.001000,0.001000,0.001000
1028.019231,-0.002589,0.001000,0.001000,0.001000,0.001000,0.001000
1028.038462,-0.001298,0.001000,0.001000,0.001000,0.001000,0.001000
1028.057692,-0.000007,0.001000,0.001000,0.001000,0.001000,0.001000
1028.076923,0.001285,0.001000,0.001000,0.001000,0.001000,0.001000
1028.096154,0.002576,0.001000,0.001000,0.001000,0.001000,0.001000
1028.115385,0.003865,0.001000,0.001000,0.001000,0.001000,0.001000
1028.134615,0.005152,0.001000,0.001000,0.001000,0.001000,0.001000
1028.153846,0.006435,0.001000,0.001000,0.001000,0.001000,0.001000
1028.173077,0.007714,0.001000,0.001000,0.001000,0.001000,0.001000
1028.192308,0.008988,0.001000,0.001000,0.001000,0.001000,0.001000
1028.211538,0.010256,0.001000,0.001000,0.001000,0.001000,0.001000
1028.230769,0.011517,0.001000,0.001000,0.001000,0.001000,0.001000
1028.250000,0.012770,0.001000,0.001000,0.001000,0.001000,0.001000
1028.269231,0.014014,0.001000,0.001000,0.001000,0.001000,0.001000
1028.288462,0.015250,0.001000,0.001000,0.001000,0.001000,0.001000
1028.307692,0.016475,0.001000,0.001000,0.001000,0.001000,0.001000
1028.326923,0.017689,0.001000,0.001000,0.001000,0.001000,0.001000
1028.346154,0.018891,0.001000,0.001000,0.001000,0.001000,0.001000
1028.365385,0.020081,0.001000,0.001000,0.001000,0.001000,0.001000
1028.384615,0.021258,0.001000,0.001000,0.001000,0.001000,0.001000
1028.403846,0.022420,0.001000,0.001000,0.001000,0.001000,0.001000
1028.423077,0.023567,0.001000,0.001000,0.001000,0.001000,0.001000
1028.442308,0.024698,0.001000,0.001000,0.001000,0.001000,0.001000
1028.461538,0.025813,0.001000,0.001000,0.001000,0.001000,0.001000
1028.480769,0.026911,0.001000,0.001000,0.001000,0.001000,0.001000
1028.500000,0.027991,0.001000,0.001000,0.001000,0.001000,0.001000
1028.519231,0.029052,0.001000,0.001000,0.001000,0.001000,0.001000
1028.538462,0.030093,0.001000,0.001000,0.001000,0.001000,0.001000
1028.557692,0.031115,0.001000,0.001000,0.001000,0.001000,0.001000
1028.576923,0.032116,0.001000,0.001000,0.001000,0.001000,0.001000
1028.596154,0.033095,0.001000,0.001000,0.001000,0.001000,0.001000
1028.615385,0.034053,0.001000,0.001000,0.001000,0.001000,0.001000
1028.634615,0.034987,0.001000,0.001000,0.001000,0.001000,0.001000
1028.653846,0.035898,0.001000,0.001000,0.001000,0.001000,0.001000
1028.673077,0.036785,0.001000,0.001000,0.001000,0.001000,0.001000
1028.692308,0.037648,0.001000,0.001000,0.001000,0.001000,0.001000
1028.711538,0.038486,0.001000,0.001000,0.001000,0.001000,0.001000
1028.730769,0.039297,0.001000,0.001000,0.001000,0.001000,0.001000
1028.750000,0.040083,0.001000,0.001000,0.001000,0.001000,0.001000
1028.769231,0.040842,0.001000,0.001000,0.001000,0.001000,0.001000
1028.788462,0.041573,0.001000,0.001000,0.001000,0.001000,0.001000
1028.807692,0.042277,0.001000,0.001000,0.001000,0.001000,0.001000
1028.826923,0.042953,0.001000,0.001000,0.001000,0.001000,0.001000
1028.846154,0.043600,0.001000,0.001000,0.001000,0.001000,0.001000
1028.865385,0.044218,0.001000,0.001000,0.001000,0.001000,0.001000
1028.884615,0.044806,0.001000,0.001000,0.001000,0.001000,0.001000
1028.903846,0.045364,0.001000,0.001000,0.001000,0.001000,0.001000
1028.923077,0.045892,0.001000,0.001000,0.001000,0.001000,0.001000
1028.942308,0.046390,0.001000,0.001000,0.001000,0.001000,0.001000
1028.961538,0.046856,0.001000,0.001000,0.001000,0.001000,0.001000
1028.980769,0.047291,0.001000,0.001000,0.001000,0.001000,0.001000
1029.000000,0.047695,0.001000,0.001000,0.001000,0.001000,0.001000
1029.019231,0.048067,0.001000,0.001000,0.001000,0.001000,0.001000
1029.038462,0.048406,0.001000,0.001000,0.001000,0.001000,0.001000
1029.057692,0.048714,0.001000,0.001000,0.001000,0.001000,0.001000
1029.076923,0.048989,0.001000,0.001000,0.001000,0.001000,0.001000
1029.096154,0.049231,0.001000,0.001000,0.001000,0.001000,0.001000
1029.115385,0.049440,0.001000,0.001000,0.001000,0.001000,0.001000
1029.134615,0.049616,0.001000,0.001000,0.001000,0.001000,0.001000
1029.153846,0.049760,0.001000,0.001000,0.001000,0.001000,0.001000
1029.173077,0.049869,0.001000,0.001000,0.001000,0.001000,0.001000
1029.192308,0.049946,0.001000,0.001000,0.001000,0.001000,0.001000
1029.211538,0.049989,0.001000,0.001000,0.001000,0.001000,0.001000
1029.230769,0.049999,0.001000,0.001000,0.001000,0.001000,0.001000
1029.250000,0.049976,0.001000,0.001000,0.001000,0.001000,0.001000
1029.269231,0.049919,0.001000,0.001000,0.001000,0.001000,0.001000
1029.288462,0.049829,0.001000,0.001000,0.001000,0.001000,0.001000
1029.307692,0.049705,0.001000,0.001000,0.001000,0.001000,0.001000
1029.326923,0.049549,0.001000,0.001000,0.001000,0.001000,0.001000
1029.346154,0.049359,0.001000,0.001000,0.001000,0.001000,0.001000
1029.365385,0.049137,0.001000,0.001000,0.001000,0.001000,0.001000
1029.384615,0.048881,0.001000,0.001000,0.001000,0.001000,0.001000
1029.403846,0.048593,0.001000,0.001000,0.001000,0.001000,0.001000
1029.423077,0.048272,0.001000,0.001000,0.001000,0.001000,0.001000
1029.442308,0.047920,0.001000,0.001000,0.001000,0.001000,0.001000
1029.461538,0.047535,0.001000,0.001000,0.001000,0.001000,0.001000
1029.480769,0.047119,0.001000,0.001000,0.001000,0.001000,0.001000
1029.500000,0.046671,0.001000,0.001000,0.001000,0.001000,0.001000
1029.519231,0.046191,0.001000,0.001000,0.001000,0.001000,0.001000
1029.538462,0.045682,0.001000,0.001000,0.001000,0.001000,0.001000
1029.557692,0.045141,0.001000,0.001000,0.001000,0.001000,0.001000
1029.576923,0.044571,0.001000,0.001000,0.001000,0.001000,0.001000
1029.596154,0.043970,0.001000,0.001000,0.001000,0.001000,0.001000
1029.615385,0.043341,0.001000,0.001000,0.001000,0.001000,0.001000
1029.634615,0.042682,0.001000,0.001000,0.001000,0.001000,0.001000
1029.653846,0.041995,0.001000,0.001000,0.001000,0.001000,0.001000
1029.673077,0.041280,0.001000,0.001000,0.001000,0.001000,0.001000
1029.692308,0.040537,0.001000,0.001000,0.001000,0.001000,0.001000
1029.711538,0.039767,0.001000,0.001000,0.001000,0.001000,0.001000
1029.730769,0.038971,0.001000,0.001000,0.001000,0.001000,0.001000
1029.750000,0.038149,0.001000,0.001000,0.001000,0.001000,0.001000
1029.769231,0.037301,0.001000,0.001000,0.001000,0.001000,0.001000
1029.788462,0.036428,0.001000,0.001000,0.001000,0.001000,0.001000
1029.807692,0.035531,0.001000,0.001000,0.001000,0.001000,0.001000
1029.826923,0.034610,0.001000,0.001000,0.001000,0.001000,0.001000
1029.846154,0.033667,0.001000,0.001000,0.001000,0.001000,0.001000
1029.865385,0.032700,0.001000,0.001000,0.001000,0.001000,0.001000
1029.884615,0.031712,0.001000,0.001000,0.001000,0.001000,0.001000
1029.903846,0.030703,0.001000,0.001000,0.001000,0.001000,0.001000
1029.923077,0.029673,0.001000,0.001000,0.001000,0.001000,0.001000
1029.942308,0.028623,0.001000,0.001000,0.001000,0.001000,0.001000
1029.961538,0.027555,0.001000,0.001000,0.001000,0.001000,0.001000
1029.980769,0.026467,0.001000,0.001000,0.001000,0.001000,0.001000
1030.000000,0.000000,0.001000,0.001000,0.001000,0.001000,0.001000
1030.019231,0.001361,0.001000,0.001000,0.001000,0.001000,0.001000
1030.038462,0.002722,0.001000,0.001000,0.001000,0.001000,0.001000
1030.057692,0.004080,0.001000,0.001000,0.001000,0.001000,0.001000
1030.076923,0.005435,0.001000,0.001000,0.001000,0.001000,0.001000
1030.096154,0.006787,0.001000,0.001000,0.001000,0.001000,0.001000
1030.115385,0.008133,0.001000,0.001000,0.001000,0.001000,0.001000
1030.134615,0.009473,0.001000,0.001000,0.001000,0.001000,0.001000
1030.153846,0.010806,0.001000,0.001000,0.001000,0.001000,0.001000
1030.173077,0.012132,0.001000,0.001000,0.001000,0.001000,0.001000
1030.192308,0.013448,0.001000,0.001000,0.001000,0.001000,0.001000
1030.211538,0.014754,0.001000,0.001000,0.001000,0.001000,0.001000
1030.230769,0.016049,0.001000,0.001000,0.001000,0.001000,0.001000
1030.250000,0.017333,0.001000,0.001000,0.001000,0.001000,0.001000
1030.269231,0.018603,0.001000,0.001000,0.001000,0.001000,0.001000
1030.288462,0.019860,0.001000,0.001000,0.001000,0.001000,0.001000
1030.307692,0.021102,0.001000,0.001000,0.001000,0.001000,0.001000
1030.326923,0.022328,0.001000,0.001000,0.001000,0.001000,0.001000
1030.346154,0.023538,0.001000,0.001000,0.001000,0.001000,0.001000
1030.365385,0.024731,0.001000,0.001000,0.001000,0.001000,0.001000
1030.384615,0.025905,0.001000,0.001000,0.001000,0.001000,0.001000
1030.403846,0.027060,0.001000,0.001000,0.001000,0.001000,0.001000
1030.423077,0.028194,0.001000,0.001000,0.001000,0.001000,0.001000
1030.442308,0.029308,0.001000,0.001000,0.001000,0.001000,0.001000
1030.461538,0.030400,0.001000,0.001000,0.001000,0.001000,0.001000
1030.480769,0.031470,0.001000,0.001000,0.001000,0.001000,0.001000
1030.500000,0.032516,0.001000,0.001000,0.001000,0.001000,0.001000
1030.519231,0.033538,0.001000,0.001000,0.001000,0.001000,0.001000
1030.538462,0.034535,0.001000,0.001000,0.001000,0.001000,0.001000
1030.557692,0.035507,0.001000,0.001000,0.001000,0.001000,0.001000
1030.576923,0.036452,0.001000,0.001000,0.001000,0.001000,0.001000
1030.596154,0.037371,0.001000,0.001000,0.001000,0.001000,0.001000
1030.615385,0.038261,0.001000,0.001000,0.001000,0.001000,0.001000
1030.634615,0.039124,0.001000,0.001000,0.001000,0.001000,0.001000
1030.653846,0.039957,0.001000,0.001000,0.001000,0.001000,0.001000
1030.673077,0.040760,0.001000,0.001000,0.001000,0.001000,0.001000
1030.692308,0.041534,0.001000,0.001000,0.001000,0.001000,0.001000
1030.711538,0.042276,0.001000,0.001000,0.001000,0.001000,0.001000
1030.730769,0.042988,0.001000,0.001000,0.001000,0.001000,0.001000
1030.750000,0.043667,0.001000,0.001000,0.001000,0.001000,0.001000
1030.769231,0.044314,0.001000,0.001000,0.001000,0.001000,0.001000
1030.788462,0.044928,0.001000,0.001000,0.001000,0.001000,0.001000
1030.807692,0.045509,0.001000,0.001000,0.001000,0.001000,0.001000
1030.826923,0.046056,0.001000,0.001000,0.001000,0.001000,0.001000
1030.846154,0.046569,0.001000,0.001000,0.001000,0.001000,0.001000
1030.865385,0.047047,0.001000,0.001000,0.001000,0.001000,0.001000
1030.884615,0.047491,0.001000,0.001000,0.001000,0.001000,0.001000
1030.903846,0.047899,0.001000,0.001000,0.001000,0.001000,0.001000
1030.923077,0.048272,0.001000,0.001000,0.001000,0.001000,0.001000
1030.942308,0.048608,0.001000,0.001000,0.001000,0.001000,0.001000
1030.961538,0.048909,0.001000,0.001000,0.001000,0.001000,0.001000
1030.980769,0.049174,0.001000,0.001000,0.001000,0.001000,0.001000
1031.000000,0.049402,0.001000,0.001000,0.001000,0.001000,0.001000
1031.019231,0.049594,0.001000,0.001000,0.001000,0.001000,0.001000
1031.038462,0.049749,0.001000,0.001000,0.001000,0.001000,0.001000
1031.057692,0.049867,0.001000,0.001000,0.001000,0.001000,0.001000
1031.076923,0.049947,0.001000,0.001000,0.001000,0.001000,0.001000
1031.096154,0.049991,0.001000,0.001000,0.001000,0.001000,0.001000
1031.115385,0.049998,0.001000,0.001000,0.001000,0.001000,0.001000
1031.134615,0.049968,0.001000,0.001000,0.001000,0.001000,0.001000
1031.153846,0.049901,0.001000,0.001000,0.001000,0.001000,0.001000
1031.173077,0.049796,0.001000,0.001000,0.001000,0.001000,0.001000
1031.192308,0.049655,0.001000,0.001000,0.001000,0.001000,0.001000
1031.211538,0.049477,0.001000,0.001000,0.001000,0.001000,0.001000
1031.230769,0.049262,0.001000,0.001000,0.001000,0.001000,0.001000
1031.250000,0.049011,0.001000,0.001000,0.001000,0.001000,0.001000
1031.269231,0.048723,0.001000,0.001000,0.001000,0.001000,0.001000
1031.288462,0.048400,0.001000,0.001000,0.001000,0.001000,0.001000
1031.307692,0.048040,0.001000,0.001000,0.001000,0.001000,0.001000
1031.326923,0.047645,0.001000,0.001000,0.001000,0.001000,0.001000
1031.346154,0.047214,0.001000,0.001000,0.001000,0.001000,0.001000
1031.365385,0.046749,0.001000,0.001000,0.001000,0.001000,0.001000
1031.384615,0.046248,0.001000,0.001000,0.001000,0.001000,0.001000
1031.403846,0.045714,0.001000,0.001000,0.001000,0.001000,0.001000
1031.423077,0.045146,0.001000,0.001000,0.001000,0.001000,0.001000
1031.442308,0.044544,0.001000,0.001000,0.001000,0.001000,0.001000
1031.461538,0.043909,0.001000,0.001000,0.001000,0.001000,0.001000
1031.480769,0.043241,0.001000,0.001000,0.001000,0.001000,0.001000
1031.500000,0.042542,0.001000,0.001000,0.001000,0.001000,0.001000
1031.519231,0.041811,0.001000,0.001000,0.001000,0.001000,0.001000
1031.538462,0.041049,0.001000,0.001000,0.001000,0.001000,0.001000
1031.557692,0.040256,0.001000,0.001000,0.001000,0.001000,0.001000
1031.576923,0.039434,0.001000,0.001000,0.001000,0.001000,0.001000
1031.596154,0.038582,0.001000,0.001000,0.001000,0.001000,0.001000
1031.615385,0.037702,0.001000,0.001000,0.001000,0.001000,0.001000
1031.634615,0.036794,0.001000,0.001000,0.001000,0.001000,0.001000
1031.653846,0.035858,0.001000,0.001000,0.001000,0.001000,0.001000
1031.673077,0.034896,0.001000,0.001000,0.001000,0.001000,0.001000
1031.692308,0.033908,0.001000,0.001000,0.001000,0.001000,0.001000
1031.711538,0.032895,0.001000,0.001000,0.001000,0.001000,0.001000
1031.730769,0.031858,0.001000,0.001000,0.001000,0.001000,0.001000
1031.750000,0.030797,0.001000,0.001000,0.001000,0.001000,0.001000
1031.769231,0.029713,0.001000,0.001000,0.001000,0.001000,0.001000
1031.788462,0.028607,0.001000,0.001000,0.001000,0.001000,0.001000
1031.807692,0.027479,0.001000,0.001000,0.001000,0.001000,0.001000
1031.826923,0.026332,0.001000,0.001000,0.001000,0.001000,0.001000
1031.846154,0.025165,0.001000,0.001000,0.001000,0.001000,0.001000
1031.865385,0.023979,0.001000,0.001000,0.001000,0.001000,0.001000
1031.884615,0.022776,0.001000,0.001000,0.001000,0.001000,0.001000
1031.903846,0.021555,0.001000,0.001000,0.001000,0.001000,0.001000
1031.923077,0.020319,0.001000,0.001000,0.001000,0.001000,0.001000
1031.942308,0.019067,0.001000,0.001000,0.001000,0.001000,0.001000
1031.961538,0.017802,0.001000,0.001000,0.001000,0.001000,0.001000
1031.980769,0.016523,0.001000,0.001000,0.001000,0.001000,0.001000
1032.000000,0.015232,0.001000,0.001000,0.001000,0.001000,0.001000
1032.019231,0.013930,0.001000,0.001000,0.001000,0.001000,0.001000
1032.038462,0.012617,0.001000,0.001000,0.001000,0.001000,0.001000
1032.057692,0.011295,0.001000,0.001000,0.001000,0.001000,0.001000
1032.076923,0.009965,0.001000,0.001000,0.001000,0.001000,0.001000
1032.096154,0.008627,0.001000,0.001000,0.001000,0.001000,0.001000
1032.115385,0.007283,0.001000,0.001000,0.001000,0.001000,0.001000
1032.134615,0.005933,0.001000,0.001000,0.001000,0.001000,0.001000
1032.153846,0.004579,0.001000,0.001000,0.001000,0.001000,0.001000
1032.173077,0.003222,0.001000,0.001000,0.001000,0.001000,0.001000
1032.192308,0.001862,0.001000,0.001000,0.001000,0.001000,0.001000
1032.211538,0.000501,0.001000,0.001000,0.001000,0.001000,0.001000
1032.230769,-0.000860,0.001000,0.001000,0.001000,0.001000,0.001000
1032.250000,-0.002221,0.001000,0.001000,0.001000,0.001000,0.001000
1032.269231,-0.003581,0.001000,0.001000,0.001000,0.001000,0.001000
1032.288462,-0.004937,0.001000,0.001000,0.001000,0.001000,0.001000
1032.307692,-0.006290,0.001000,0.001000,0.001000,0.001000,0.001000
1032.326923,-0.007638,0.001000,0.001000,0.001000,0.001000,0.001000
1032.346154,-0.008981,0.001000,0.001000,0.001000,0.001000,0.001000
1032.365385,-0.010317,0.001000,0.001000,0.001000,0.001000,0.001000
1032.384615,-0.011645,0.001000,0.001000,0.001000,0.001000,0.001000
1032.403846,-0.012965,0.001000,0.001000,0.001000,0.001000,0.001000
1032.423077,-0.014275,0.001000,0.001000,0.001000,0.001000,0.001000
1032.442308,-0.015574,0.001000,0.001000,0.001000,0.001000,0.001000
1032.461538,-0.016862,0.001000,0.001000,0.001000,0.001000,0.001000
1032.480769,-0.018137,0.001000,0.001000,0.001000,0.001000,0.001000
1032.500000,-0.019399,0.001000,0.001000,0.001000,0.001000,0.001000
1032.519231,-0.020647,0.001000,0.001000,0.001000,0.001000,0.001000
1032.538462,-0.021879,0.001000,0.001000,0.001000,0.001000,0.001000
1032.557692,-0.023095,0.001000,0.001000,0.001000,0.001000,0.001000
1032.576923,-0.024294,0.001000,0.001000,0.001000,0.001000,0.001000
1032.596154,-0.025475,0.001000,0.001000,0.001000,0.001000,0.001000
1032.615385,-0.026637,0.001000,0.001000,0.001000,0.001000,0.001000
1032.634615,-0.027779,0.001000,0.001000,0.001000,0.001000,0.001000
1032.653846,-0.028901,0.001000,0.001000,0.001000,0.001000,0.001000
1032.673077,-0.030001,0.001000,0.001000,0.001000,0.001000,0.001000
1032.692308,-0.031079,0.001000,0.001000,0.001000,0.001000,0.001000
1032.711538,-0.032134,0.001000,0.001000,0.001000,0.001000,0.001000
1032.730769,-0.033165,0.001000,0.001000,0.001000,0.001000,0.001000
1032.750000,-0.034171,0.001000,0.001000,0.001000,0.001000,0.001000
1032.769231,-0.035153,0.001000,0.001000,0.001000,0.001000,0.001000
1032.788462,-0.036108,0.001000,0.001000,0.001000,0.001000,0.001000
1032.807692,-0.037036,0.001000,0.001000,0.001000,0.001000,0.001000
1032.826923,-0.037937,0.001000,0.001000,0.001000,0.001000,0.001000
1032.846154,-0.038810,0.001000,0.001000,0.001000,0.001000,0.001000
1032.865385,-0.039654,0.001000,0.001000,0.001000,0.001000,0.001000
1032.884615,-0.040468,0.001000,0.001000,0.001000,0.001000,0.001000
1032.903846,-0.041253,0.001000,0.001000,0.001000,0.001000,0.001000
1032.923077,-0.042007,0.001000,0.001000,0.001000,0.001000,0.001000
1032.942308,-0.042729,0.001000,0.001000,0.001000,0.001000,0.001000
1032.961538,-0.043421,0.001000,0.001000,0.001000,0.001000,0.001000
1032.980769,-0.044080,0.001000,0.001000,0.001000,0.001000,0.001000
1033.000000,-0.044706,0.001000,0.001000,0.001000,0.001000,0.001000
1033.019231,-0.045299,0.001000,0.001000,0.001000,0.001000,0.001000
1033.038462,-0.045858,0.001000,0.001000,0.001000,0.001000,0.001000
1033.057692,-0.046384,0.001000,0.001000,0.001000,0.001000,0.001000
1033.076923,-0.046875,0.001000,0.001000,0.001000,0.001000,0.001000
1033.096154,-0.047331,0.001000,0.001000,0.001000,0.001000,0.001000
1033.115385,-0.047753,0.001000,0.001000,0.001000,0.001000,0.001000
1033.134615,-0.048139,0.001000,0.001000,0.001000,0.001000,0.001000
1033.153846,-0.048489,0.001000,0.001000,0.001000,0.001000,0.001000
1033.173077,-0.048803,0.001000,0.001000,0.001000,0.001000,0.001000
1033.192308,-0.049081,0.001000,0.001000,0.001000,0.001000,0.001000
1033.211538,-0.049323,0.001000,0.001000,0.001000,0.001000,0.001000
1033.230769,-0.049528,0.001000,0.001000,0.001000,0.001000,0.001000
1033.250000,-0.049696,0.001000,0.001000,0.001000,0.001000,0.001000
1033.269231,-0.049827,0.001000,0.001000,0.001000,0.001000,0.001000
1033.288462,-0.049922,0.001000,0.001000,0.001000,0.001000,0.001000
1033.307692,-0.049979,0.001000,0.001000,0.001000,0.001000,0.001000
1033.326923,-0.050000,0.001000,0.001000,0.001000,0.001000,0.001000
1033.346154,-0.049983,0.001000,0.001000,0.001000,0.001000,0.001000
1033.365385,-0.049930,0.001000,0.001000,0.001000,0.001000,0.001000
1033.384615,-0.049839,0.001000,0.001000,0.001000,0.001000,0.001000
1033.403846,-0.049711,0.001000,0.001000,0.001000,0.001000,0.001000
1033.423077,-0.049547,0.001000,0.001000,0.001000,0.001000,0.001000
1033.442308,-0.049346,0.001000,0.001000,0.001000,0.001000,0.001000
1033.461538,-0.049108,0.001000,0.001000,0.001000,0.001000,0.001000
1033.480769,-0.048833,0.001000,0.001000,0.001000,0.001000,0.001000
1033.500000,-0.048523,0.001000,0.001000,0.001000,0.001000,0.001000
1033.519231,-0.048177,0.001000,0.001000,0.001000,0.001000,0.001000
1033.538462,-0.047794,0.001000,0.001000,0.001000,0.001000,0.001000
1033.557692,-0.047377,0.001000,0.001000,0.001000,0.001000,0.001000
1033.576923,-0.046924,0.001000,0.001000,0.001000,0.001000,0.001000
1033.596154,-0.046437,0.001000,0.001000,0.001000,0.001000,0.001000
1033.615385,-0.045915,0.001000,0.001000,0.001000,0.001000,0.001000
1033.634615,-0.045359,0.001000,0.001000,0.001000,0.001000,0.001000
1033.653846,-0.044769,0.001000,0.001000,0.001000,0.001000,0.001000
1033.673077,-0.044146,0.001000,0.001000,0.001000,0.001000,0.001000
1033.692308,-0.043491,0.001000,0.001000,0.001000,0.001000,0.001000
1033.711538,-0.042803,0.001000,0.001000,0.001000,0.001000,0.001000
1033.730769,-0.042083,0.001000,0.001000,0.001000,0.001000,0.001000
1033.750000,-0.041333,0.001000,0.001000,0.001000,0.001000,0.001000
1033.769231,-0.040551,0.001000,0.001000,0.001000,0.001000,0.001000
1033.788462,-0.039740,0.001000,0.001000,0.001000,0.001000,0.001000
1033.807692,-0.038899,0.001000,0.001000,0.001000,0.001000,0.001000
1033.826923,-0.038029,0.001000,0.001000,0.001000,0.001000,0.001000
1033.846154,-0.037131,0.001000,0.001000,0.001000,0.001000,0.001000
1033.865385,-0.036205,0.001000,0.001000,0.001000,0.001000,0.001000
1033.884615,-0.035253,0.001000,0.001000,0.001000,0.001000,0.001000
1033.903846,-0.034275,0.001000,0.001000,0.001000,0.001000,0.001000
1033.923077,-0.033271,0.001000,0.001000,0.001000,0.001000,0.001000
1033.942308,-0.032242,0.001000,0.001000,0.001000,0.001000,0.001000
1033.961538,-0.031190,0.001000,0.001000,0.001000,0.001000,0.001000
1033.980769,-0.030114,0.001000,0.001000,0.001000,0.001000,0.001000
1034.000000,-0.029016,0.001000,0.001000,0.001000,0.001000,0.001000
1034.019231,-0.027897,0.001000,0.001000,0.001000,0.001000,0.001000
1034.038462,-0.026757,0.001000,0.001000,0.001000,0.001000,0.001000
1034.057692,-0.025597,0.001000,0.001000,0.001000,0.001000,0.001000
1034.076923,-0.024418,0.001000,0.001000,0.001000,0.001000,0.001000
1034.096154,-0.023221,0.001000,0.001000,0.001000,0.001000,0.001000
1034.115385,-0.022006,0.001000,0.001000,0.001000,0.001000,0.001000
1034.134615,-0.020776,0.001000,0.001000,0.001000,0.001000,0.001000
1034.153846,-0.019530,0.001000,0.001000,0.001000,0.001000,0.001000
1034.173077,-0.018269,0.001000,0.001000,0.001000,0.001000,0.001000
1034.192308,-0.016995,0.001000,0.001000,0.001000,0.001000,0.001000
1034.211538,-0.015709,0.001000,0.001000,0.001000,0.001000,0.001000
1034.230769,-0.014410,0.001000,0.001000,0.001000,0.001000,0.001000
1034.250000,-0.013101,0.001000,0.001000,0.001000,0.001000,0.001000
1034.269231,-0.011783,0.001000,0.001000,0.001000,0.001000,0.001000
1034.288462,-0.010455,0.001000,0.001000,0.001000,0.001000,0.001000
1034.307692,-0.009120,0.001000,0.001000,0.001000,0.001000,0.001000
1034.326923,-0.007778,0.001000,0.001000,0.001000,0.001000,0.001000
1034.346154,-0.006430,0.001000,0.001000,0.001000,0.001000,0.001000
1034.365385,-0.005078,0.001000,0.001000,0.001000,0.001000,0.001000
1034.384615,-0.003722,0.001000,0.001000,0.001000,0.001000,0.001000
1034.403846,-0.002363,0.001000,0.001000,0.001000,0.001000,0.001000
1034.423077,-0.001002,0.001000,0.001000,0.001000,0.001000,0.001000
1034.442308,0.000359,0.001000,0.001000,0.001000,0.001000,0.001000
1034.461538,0.001721,0.001000,0.001000,0.001000,0.001000,0.001000
1034.480769,0.003081,0.001000,0.001000,0.001000,0.001000,0.001000
1034.500000,0.004438,0.001000,0.001000,0.001000,0.001000,0.001000
1034.519231,0.005793,0.001000,0.001000,0.001000,0.001000,0.001000
1034.538462,0.007143,0.001000,0.001000,0.001000,0.001000,0.001000
1034.557692,0.008488,0.001000,0.001000,0.001000,0.001000,0.001000
1034.576923,0.009826,0.001000,0.001000,0.001000,0.001000,0.001000
1034.596154,0.011157,0.001000,0.001000,0.001000,0.001000,0.001000
1034.615385,0.012480,0.001000,0.001000,0.001000,0.001000,0.001000
1034.634615,0.013794,0.001000,0.001000,0.001000,0.001000,0.001000
1034.653846,0.015097,0.001000,0.001000,0.001000,0.001000,0.001000
1034.673077,0.016389,0.001000,0.001000,0.001000,0.001000,0.001000
