timestamp,ax,ay,az,gx,gy,gz
1000.000000,0.000000,0.001000,0.001000,0.001000,0.001000,0.001000
1000.019231,0.001470,0.001000,0.001000,0.001000,0.001000,0.001000
1000.038462,0.002938,0.001000,0.001000,0.001000,0.001000,0.001000
1000.057692,0.004404,0.001000,0.001000,0.001000,0.001000,0.001000
1000.076923,0.005866,0.001000,0.001000,0.001000,0.001000,0.001000
1000.096154,0.007323,0.001000,0.001000,0.001000,0.001000,0.001000
1000.115385,0.008774,0.001000,0.001000,0.001000,0.001000,0.001000
1000.134615,0.010217,0.001000,0.001000,0.001000,0.001000,0.001000
1000.153846,0.011651,0.001000,0.001000,0.001000,0.001000,0.001000
1000.173077,0.013076,0.001000,0.001000,0.001000,0.001000,0.001000
1000.192308,0.014489,0.001000,0.001000,0.001000,0.001000,0.001000
1000.211538,0.015889,0.001000,0.001000,0.001000,0.001000,0.001000
1000.230769,0.017276,0.001000,0.001000,0.001000,0.001000,0.001000
1000.250000,0.018647,0.001000,0.001000,0.001000,0.001000,0.001000
1000.269231,0.020003,0.001000,0.001000,0.001000,0.001000,0.001000
1000.288462,0.021341,0.001000,0.001000,0.001000,0.001000,0.001000
1000.307692,0.022661,0.001000,0.001000,0.001000,0.001000,0.001000
1000.326923,0.023962,0.001000,0.001000,0.001000,0.001000,0.001000
1000.346154,0.025241,0.001000,0.001000,0.001000,0.001000,0.001000
1000.365385,0.026499,0.001000,0.001000,0.001000,0.001000,0.001000
1000.384615,0.027734,0.001000,0.001000,0.001000,0.001000,0.001000
1000.403846,0.028945,0.001000,0.001000,0.001000,0.001000,0.001000
1000.423077,0.030131,0.001000,0.001000,0.001000,0.001000,0.001000
1000.442308,0.031291,0.001000,0.001000,0.001000,0.001000,0.001000
1000.461538,0.032423,0.001000,0.001000,0.001000,0.001000,0.001000
1000.480769,0.033528,0.001000,0.001000,0.001000,0.001000,0.001000
1000.500000,0.034604,0.001000,0.001000,0.001000,0.001000,0.001000
1000.519231,0.035650,0.001000,0.001000,0.001000,0.001000,0.001000
1000.538462,0.036665,0.001000,0.001000,0.001000,0.001000,0.001000
1000.557692,0.037649,0.001000,0.001000,0.001000,0.001000,0.001000
1000.576923,0.038599,0.001000,0.001000,0.001000,0.001000,0.001000
1000.596154,0.039517,0.001000,0.001000,0.001000,0.001000,0.001000
1000.615385,0.040400,0.001000,0.001000,0.001000,0.001000,0.001000
1000.634615,0.041249,0.001000,0.001000,0.001000,0.001000,0.001000
1000.653846,0.042062,0.001000,0.001000,0.001000,0.001000,0.001000
1000.673077,0.042838,0.001000,0.001000,0.001000,0.001000,0.001000
1000.692308,0.043578,0.001000,0.001000,0.001000,0.001000,0.001000
1000.711538,0.044279,0.001000,0.001000,0.001000,0.001000,0.001000
1000.730769,0.044943,0.001000,0.001000,0.001000,0.001000,0.001000
1000.750000,0.045568,0.001000,0.001000,0.001000,0.001000,0.001000
1000.769231,0.046153,0.001000,0.001000,0.001000,0.001000,0.001000
1000.788462,0.046698,0.001000,0.001000,0.001000,0.001000,0.001000
1000.807692,0.047203,0.001000,0.001000,0.001000,0.001000,0.001000
1000.826923,0.047668,0.001000,0.001000,0.001000,0.001000,0.001000
1000.846154,0.048091,0.001000,0.001000,0.001000,0.001000,0.001000
1000.865385,0.048472,0.001000,0.001000,0.001000,0.001000,0.001000
1000.884615,0.048812,0.001000,0.001000,0.001000,0.001000,0.001000
1000.903846,0.049109,0.001000,0.001000,0.001000,0.001000,0.001000
1000.923077,0.049364,0.001000,0.001000,0.001000,0.001000,0.001000
1000.942308,0.049576,0.001000,0.001000,0.001000,0.001000,0.001000
1000.961538,0.049746,0.001000,0.001000,0.001000,0.001000,0.001000
1000.980769,0.049872,0.001000,0.001000,0.001000,0.001000,0.001000
1001.000000,0.049956,0.001000,0.001000,0.001000,0.001000,0.001000
1001.019231,0.049996,0.001000,0.001000,0.001000,0.001000,0.001000
1001.038462,0.049993,0.001000,0.001000,0.001000,0.001000,0.001000
1001.057692,0.049947,0.001000,0.001000,0.001000,0.001000,0.001000
1001.076923,0.049857,0.001000,0.001000,0.001000,0.001000,0.001000
1001.096154,0.049725,0.001000,0.001000,0.001000,0.001000,0.001000
1001.115385,0.049550,0.001000,0.001000,0.001000,0.001000,0.001000
1001.134615,0.049331,0.001000,0.001000,0.001000,0.001000,0.001000
1001.153846,0.049070,0.001000,0.001000,0.001000,0.001000,0.001000
1001.173077,0.048767,0.001000,0.001000,0.001000,0.001000,0.001000
1001.192308,0.048422,0.001000,0.001000,0.001000,0.001000,0.001000
1001.211538,0.048034,0.001000,0.001000,0.001000,0.001000,0.001000
1001.230769,0.047606,0.001000,0.001000,0.001000,0.001000,0.001000
1001.250000,0.047136,0.001000,0.001000,0.001000,0.001000,0.001000
1001.269231,0.046625,0.001000,0.001000,0.001000,0.001000,0.001000
1001.288462,0.046074,0.001000,0.001000,0.001000,0.001000,0.001000
1001.307692,0.045483,0.001000,0.001000,0.001000,0.001000,0.001000
1001.326923,0.044853,0.001000,0.001000,0.001000,0.001000,0.001000
1001.346154,0.044184,0.001000,0.001000,0.001000,0.001000,0.001000
1001.365385,0.043477,0.001000,0.001000,0.001000,0.001000,0.001000
1001.384615,0.042733,0.001000,0.001000,0.001000,0.001000,0.001000
1001.403846,0.041951,0.001000,0.001000,0.001000,0.001000,0.001000
1001.423077,0.041133,0.001000,0.001000,0.001000,0.001000,0.001000
1001.442308,0.040280,0.001000,0.001000,0.001000,0.001000,0.001000
1001.461538,0.039392,0.001000,0.001000,0.001000,0.001000,0.001000
1001.480769,0.038469,0.001000,0.001000,0.001000,0.001000,0.001000
1001.500000,0.037514,0.001000,0.001000,0.001000,0.001000,0.001000
1001.519231,0.036526,0.001000,0.001000,0.001000,0.001000,0.001000
1001.538462,0.035507,0.001000,0.001000,0.001000,0.001000,0.001000
1001.557692,0.034456,0.001000,0.001000,0.001000,0.001000,0.001000
1001.576923,0.033377,0.001000,0.001000,0.001000,0.001000,0.001000
1001.596154,0.032268,0.001000,0.001000,0.001000,0.001000,0.001000
1001.615385,0.031131,0.001000,0.001000,0.001000,0.001000,0.001000
1001.634615,0.029968,0.001000,0.001000,0.001000,0.001000,0.001000
1001.653846,0.028778,0.001000,0.001000,0.001000,0.001000,0.001000
1001.673077,0.027564,0.001000,0.001000,0.001000,0.001000,0.001000
1001.692308,0.026326,0.001000,0.001000,0.001000,0.001000,0.001000
1001.711538,0.025065,0.001000,0.001000,0.001000,0.001000,0.001000
1001.730769,0.023782,0.001000,0.001000,0.001000,0.001000,0.001000
1001.750000,0.022479,0.001000,0.001000,0.001000,0.001000,0.001000
1001.769231,0.021157,0.001000,0.001000,0.001000,0.001000,0.001000
1001.788462,0.019816,0.001000,0.001000,0.001000,0.001000,0.001000
1001.807692,0.018458,0.001000,0.001000,0.001000,0.001000,0.001000
1001.826923,0.017084,0.001000,0.001000,0.001000,0.001000,0.001000
1001.846154,0.015695,0.001000,0.001000,0.001000,0.001000,0.001000
1001.865385,0.014293,0.001000,0.001000,0.001000,0.001000,0.001000
1001.884615,0.012879,0.001000,0.001000,0.001000,0.001000,0.001000
1001.903846,0.011453,0.001000,0.001000,0.001000,0.001000,0.001000
1001.923077,0.010017,0.001000,0.001000,0.001000,0.001000,0.001000
1001.942308,0.008573,0.001000,0.001000,0.001000,0.001000,0.001000
1001.961538,0.007121,0.001000,0.001000,0.001000,0.001000,0.001000
1001.980769,0.005663,0.001000,0.001000,0.001000,0.001000,0.001000
1002.000000,0.004201,0.001000,0.001000,0.001000,0.001000,0.001000
1002.019231,0.002734,0.001000,0.001000,0.001000,0.001000,0.001000
1002.038462,0.001266,0.001000,0.001000,0.001000,0.001000,0.001000
1002.057692,-0.000204,0.001000,0.001000,0.001000,0.001000,0.001000
1002.076923,-0.001674,0.001000,0.001000,0.001000,0.001000,0.001000
1002.096154,-0.003142,0.001000,0.001000,0.001000,0.001000,0.001000
1002.115385,-0.004607,0.001000,0.001000,0.001000,0.001000,0.001000
1002.134615,-0.006069,0.001000,0.001000,0.001000,0.001000,0.001000
1002.153846,-0.007525,0.001000,0.001000,0.001000,0.001000,0.001000
1002.173077,-0.008975,0.001000,0.001000,0.001000,0.001000,0.001000
1002.192308,-0.010417,0.001000,0.001000,0.001000,0.001000,0.001000
1002.211538,-0.011850,0.001000,0.001000,0.001000,0.001000,0.001000
1002.230769,-0.013273,0.001000,0.001000,0.001000,0.001000,0.001000
1002.250000,-0.014684,0.001000,0.001000,0.001000,0.001000,0.001000
1002.269231,-0.016082,0.001000,0.001000,0.001000,0.001000,0.001000
1002.288462,-0.017467,0.001000,0.001000,0.001000,0.001000,0.001000
1002.307692,-0.018837,0.001000,0.001000,0.001000,0.001000,0.001000
1002.326923,-0.020190,0.001000,0.001000,0.001000,0.001000,0.001000
1002.346154,-0.021526,0.001000,0.001000,0.001000,0.001000,0.001000
1002.365385,-0.022843,0.001000,0.001000,0.001000,0.001000,0.001000
1002.384615,-0.024141,0.001000,0.001000,0.001000,0.001000,0.001000
1002.403846,-0.025417,0.001000,0.001000,0.001000,0.001000,0.001000
1002.423077,-0.026672,0.001000,0.001000,0.001000,0.001000,0.001000
1002.442308,-0.027904,0.001000,0.001000,0.001000,0.001000,0.001000
1002.461538,-0.029111,0.001000,0.001000,0.001000,0.001000,0.001000
1002.480769,-0.030293,0.001000,0.001000,0.001000,0.001000,0.001000
1002.500000,-0.031450,0.001000,0.001000,0.001000,0.001000,0.001000
1002.519231,-0.032579,0.001000,0.001000,0.001000,0.001000,0.001000
1002.538462,-0.033679,0.001000,0.001000,0.001000,0.001000,0.001000
1002.557692,-0.034751,0.001000,0.001000,0.001000,0.001000,0.001000
1002.576923,-0.035793,0.001000,0.001000,0.001000,0.001000,0.001000
1002.596154,-0.036804,0.001000,0.001000,0.001000,0.001000,0.001000
1002.615385,-0.037783,0.001000,0.001000,0.001000,0.001000,0.001000
1002.634615,-0.038729,0.001000,0.001000,0.001000,0.001000,0.001000
1002.653846,-0.039642,0.001000,0.001000,0.001000,0.001000,0.001000
1002.673077,-0.040520,0.001000,0.001000,0.001000,0.001000,0.001000
1002.692308,-0.041364,0.001000,0.001000,0.001000,0.001000,0.001000
1002.711538,-0.042172,0.001000,0.001000,0.001000,0.001000,0.001000
1002.730769,-0.042943,0.001000,0.001000,0.001000,0.001000,0.001000
1002.750000,-0.043677,0.001000,0.001000,0.001000,0.001000,0.001000
1002.769231,-0.044374,0.001000,0.001000,0.001000,0.001000,0.001000
1002.788462,-0.045032,0.001000,0.001000,0.001000,0.001000,0.001000
1002.807692,-0.045651,0.001000,0.001000,0.001000,0.001000,0.001000
1002.826923,-0.046231,0.001000,0.001000,0.001000,0.001000,0.001000
1002.846154,-0.046771,0.001000,0.001000,0.001000,0.001000,0.001000
1002.865385,-0.047270,0.001000,0.001000,0.001000,0.001000,0.001000
1002.884615,-0.047729,0.001000,0.001000,0.001000,0.001000,0.001000
1002.903846,-0.048146,0.001000,0.001000,0.001000,0.001000,0.001000
1002.923077,-0.048522,0.001000,0.001000,0.001000,0.001000,0.001000
1002.942308,-0.048856,0.001000,0.001000,0.001000,0.001000,0.001000
1002.961538,-0.049147,0.001000,0.001000,0.001000,0.001000,0.001000
1002.980769,-0.049396,0.001000,0.001000,0.001000,0.001000,0.001000
1003.000000,-0.049603,0.001000,0.001000,0.001000,0.001000,0.001000
1003.019231,-0.049766,0.001000,0.001000,0.001000,0.001000,0.001000
1003.038462,-0.049887,0.001000,0.001000,0.001000,0.001000,0.001000
1003.057692,-0.049964,0.001000,0.001000,0.001000,0.001000,0.001000
1003.076923,-0.049998,0.001000,0.001000,0.001000,0.001000,0.001000
1003.096154,-0.049989,0.001000,0.001000,0.001000,0.001000,0.001000
1003.115385,-0.049937,0.001000,0.001000,0.001000,0.001000,0.001000
1003.134615,-0.049842,0.001000,0.001000,0.001000,0.001000,0.001000
1003.153846,-0.049703,0.001000,0.001000,0.001000,0.001000,0.001000
1003.173077,-0.049522,0.001000,0.001000,0.001000,0.001000,0.001000
1003.192308,-0.049298,0.001000,0.001000,0.001000,0.001000,0.001000
1003.211538,-0.049031,0.001000,0.001000,0.001000,0.001000,0.001000
1003.230769,-0.048722,0.001000,0.001000,0.001000,0.001000,0.001000
1003.250000,-0.048370,0.001000,0.001000,0.001000,0.001000,0.001000
1003.269231,-0.047977,0.001000,0.001000,0.001000,0.001000,0.001000
1003.288462,-0.047543,0.001000,0.001000,0.001000,0.001000,0.001000
1003.307692,-0.047067,0.001000,0.001000,0.001000,0.001000,0.001000
1003.326923,-0.046551,0.001000,0.001000,0.001000,0.001000,0.001000
1003.346154,-0.045994,0.001000,0.001000,0.001000,0.001000,0.001000
1003.365385,-0.045398,0.001000,0.001000,0.001000,0.001000,0.001000
1003.384615,-0.044762,0.001000,0.001000,0.001000,0.001000,0.001000
1003.403846,-0.044088,0.001000,0.001000,0.001000,0.001000,0.001000
1003.423077,-0.043376,0.001000,0.001000,0.001000,0.001000,0.001000
1003.442308,-0.042626,0.001000,0.001000,0.001000,0.001000,0.001000
1003.461538,-0.041840,0.001000,0.001000,0.001000,0.001000,0.001000
1003.480769,-0.041017,0.001000,0.001000,0.001000,0.001000,0.001000
1003.500000,-0.040159,0.001000,0.001000,0.001000,0.001000,0.001000
1003.519231,-0.039266,0.001000,0.001000,0.001000,0.001000,0.001000
1003.538462,-0.038339,0.001000,0.001000,0.001000,0.001000,0.001000
1003.557692,-0.037379,0.001000,0.001000,0.001000,0.001000,0.001000
1003.576923,-0.036386,0.001000,0.001000,0.001000,0.001000,0.001000
1003.596154,-0.035363,0.001000,0.001000,0.001000,0.001000,0.001000
1003.615385,-0.034308,0.001000,0.001000,0.001000,0.001000,0.001000
1003.634615,-0.033224,0.001000,0.001000,0.001000,0.001000,0.001000
1003.653846,-0.032112,0.001000,0.001000,0.001000,0.001000,0.001000
1003.673077,-0.030971,0.001000,0.001000,0.001000,0.001000,0.001000
1003.692308,-0.029804,0.001000,0.001000,0.001000,0.001000,0.001000
1003.711538,-0.028611,0.001000,0.001000,0.001000,0.001000,0.001000
1003.730769,-0.027393,0.001000,0.001000,0.001000,0.001000,0.001000
1003.750000,-0.026152,0.001000,0.001000,0.001000,0.001000,0.001000
1003.769231,-0.024888,0.001000,0.001000,0.001000,0.001000,0.001000
1003.788462,-0.023603,0.001000,0.001000,0.001000,0.001000,0.001000
1003.807692,-0.022297,0.001000,0.001000,0.001000,0.001000,0.001000
1003.826923,-0.020971,0.001000,0.001000,0.001000,0.001000,0.001000
1003.846154,-0.019628,0.001000,0.001000,0.001000,0.001000,0.001000
1003.865385,-0.018268,0.001000,0.001000,0.001000,0.001000,0.001000
1003.884615,-0.016892,0.001000,0.001000,0.001000,0.001000,0.001000
1003.903846,-0.015501,0.001000,0.001000,0.001000,0.001000,0.001000
1003.923077,-0.014097,0.001000,0.001000,0.001000,0.001000,0.001000
1003.942308,-0.012681,0.001000,0.001000,0.001000,0.001000,0.001000
1003.961538,-0.011254,0.001000,0.001000,0.001000,0.001000,0.001000
1003.980769,-0.009817,0.001000,0.001000,0.001000,0.001000,0.001000
1004.000000,-0.008372,0.001000,0.001000,0.001000,0.001000,0.001000
1004.019231,-0.006919,0.001000,0.001000,0.001000,0.001000,0.001000
1004.038462,-0.005461,0.001000,0.001000,0.001000,0.001000,0.001000
1004.057692,-0.003997,0.001000,0.001000,0.001000,0.001000,0.001000
1004.076923,-0.002531,0.001000,0.001000,0.001000,0.001000,0.001000
1004.096154,-0.001062,0.001000,0.001000,0.001000,0.001000,0.001000
1004.115385,0.000408,0.001000,0.001000,0.001000,0.001000,0.001000
1004.134615,0.001878,0.001000,0.001000,0.001000,0.001000,0.001000
1004.153846,0.003346,0.001000,0.001000,0.001000,0.001000,0.001000
1004.173077,0.004811,0.001000,0.001000,0.001000,0.001000,0.001000
1004.192308,0.006271,0.001000,0.001000,0.001000,0.001000,0.001000
1004.211538,0.007727,0.001000,0.001000,0.001000,0.001000,0.001000
1004.230769,0.009176,0.001000,0.001000,0.001000,0.001000,0.001000
1004.250000,0.010616,0.001000,0.001000,0.001000,0.001000,0.001000
1004.269231,0.012048,0.001000,0.001000,0.001000,0.001000,0.001000
1004.288462,0.013469,0.001000,0.001000,0.001000,0.001000,0.001000
1004.307692,0.014879,0.001000,0.001000,0.001000,0.001000,0.001000
1004.326923,0.016276,0.001000,0.001000,0.001000,0.001000,0.001000
1004.346154,0.017658,0.001000,0.001000,0.001000,0.001000,0.001000
1004.365385,0.019026,0.001000,0.001000,0.001000,0.001000,0.001000
1004.384615,0.020377,0.001000,0.001000,0.001000,0.001000,0.001000
1004.403846,0.021710,0.001000,0.001000,0.001000,0.001000,0.001000
1004.423077,0.023024,0.001000,0.001000,0.001000,0.001000,0.001000
1004.442308,0.024319,0.001000,0.001000,0.001000,0.001000,0.001000
1004.461538,0.025593,0.001000,0.001000,0.001000,0.001000,0.001000
1004.480769,0.026844,0.001000,0.001000,0.001000,0.001000,0.001000
1004.500000,0.028073,0.001000,0.001000,0.001000,0.001000,0.001000
1004.519231,0.029277,0.001000,0.001000,0.001000,0.001000,0.001000
1004.538462,0.030456,0.001000,0.001000,0.001000,0.001000,0.001000
1004.557692,0.031608,0.001000,0.001000,0.001000,0.001000,0.001000
1004.576923,0.032733,0.001000,0.001000,0.001000,0.001000,0.001000
1004.596154,0.033830,0.001000,0.001000,0.001000,0.001000,0.001000
1004.615385,0.034898,0.001000,0.001000,0.001000,0.001000,0.001000
1004.634615,0.035935,0.001000,0.001000,0.001000,0.001000,0.001000
1004.653846,0.036942,0.001000,0.001000,0.001000,0.001000,0.001000
1004.673077,0.037916,0.001000,0.001000,0.001000,0.001000,0.001000
1004.692308,0.038858,0.001000,0.001000,0.001000,0.001000,0.001000
1004.711538,0.039766,0.001000,0.001000,0.001000,0.001000,0.001000
1004.730769,0.040640,0.001000,0.001000,0.001000,0.001000,0.001000
1004.750000,0.041478,0.001000,0.001000,0.001000,0.001000,0.001000
1004.769231,0.042281,0.001000,0.001000,0.001000,0.001000,0.001000
1004.788462,0.043047,0.001000,0.001000,0.001000,0.001000,0.001000
1004.807692,0.043776,0.001000,0.001000,0.001000,0.001000,0.001000
1004.826923,0.044468,0.001000,0.001000,0.001000,0.001000,0.001000
1004.846154,0.045120,0.001000,0.001000,0.001000,0.001000,0.001000
1004.865385,0.045734,0.001000,0.001000,0.001000,0.001000,0.001000
1004.884615,0.046308,0.001000,0.001000,0.001000,0.001000,0.001000
1004.903846,0.046843,0.001000,0.001000,0.001000,0.001000,0.001000
1004.923077,0.047336,0.001000,0.001000,0.001000,0.001000,0.001000
1004.942308,0.047789,0.001000,0.001000,0.001000,0.001000,0.001000
1004.961538,0.048201,0.001000,0.001000,0.001000,0.001000,0.001000
1004.980769,0.048571,0.001000,0.001000,0.001000,0.001000,0.001000
1005.000000,0.048899,0.001000,0.001000,0.001000,0.001000,0.001000
1005.019231,0.049184,0.001000,0.001000,0.001000,0.001000,0.001000
1005.038462,0.049427,0.001000,0.001000,0.001000,0.001000,0.001000
1005.057692,0.049628,0.001000,0.001000,0.001000,0.001000,0.001000
1005.076923,0.049785,0.001000,0.001000,0.001000,0.001000,0.001000
1005.096154,0.049900,0.001000,0.001000,0.001000,0.001000,0.001000
1005.115385,0.049971,0.001000,0.001000,0.001000,0.001000,0.001000
1005.134615,0.049999,0.001000,0.001000,0.001000,0.001000,0.001000
1005.153846,0.049984,0.001000,0.001000,0.001000,0.001000,0.001000
1005.173077,0.049926,0.001000,0.001000,0.001000,0.001000,0.001000
1005.192308,0.049825,0.001000,0.001000,0.001000,0.001000,0.001000
1005.211538,0.049681,0.001000,0.001000,0.001000,0.001000,0.001000
1005.230769,0.049493,0.001000,0.001000,0.001000,0.001000,0.001000
1005.250000,0.049263,0.001000,0.001000,0.001000,0.001000,0.001000
1005.269231,0.048990,0.001000,0.001000,0.001000,0.001000,0.001000
1005.288462,0.048675,0.001000,0.001000,0.001000,0.001000,0.001000
1005.307692,0.048318,0.001000,0.001000,0.001000,0.001000,0.001000
1005.326923,0.047919,0.001000,0.001000,0.001000,0.001000,0.001000
1005.346154,0.047479,0.001000,0.001000,0.001000,0.001000,0.001000
1005.365385,0.046998,0.001000,0.001000,0.001000,0.001000,0.001000
1005.384615,0.046476,0.001000,0.001000,0.001000,0.001000,0.001000
1005.403846,0.045914,0.001000,0.001000,0.001000,0.001000,0.001000
1005.423077,0.045312,0.001000,0.001000,0.001000,0.001000,0.001000
1005.442308,0.044671,0.001000,0.001000,0.001000,0.001000,0.001000
1005.461538,0.043992,0.001000,0.001000,0.001000,0.001000,0.001000
1005.480769,0.043274,0.001000,0.001000,0.001000,0.001000,0.001000
1005.500000,0.042519,0.001000,0.001000,0.001000,0.001000,0.001000
1005.519231,0.041727,0.001000,0.001000,0.001000,0.001000,0.001000
1005.538462,0.040900,0.001000,0.001000,0.001000,0.001000,0.001000
1005.557692,0.040037,0.001000,0.001000,0.001000,0.001000,0.001000
1005.576923,0.039139,0.001000,0.001000,0.001000,0.001000,0.001000
1005.596154,0.038207,0.001000,0.001000,0.001000,0.001000,0.001000
1005.615385,0.037243,0.001000,0.001000,0.001000,0.001000,0.001000
1005.634615,0.036246,0.001000,0.001000,0.001000,0.001000,0.001000
1005.653846,0.035218,0.001000,0.001000,0.001000,0.001000,0.001000
1005.673077,0.034159,0.001000,0.001000,0.001000,0.001000,0.001000
1005.692308,0.033071,0.001000,0.001000,0.001000,0.001000,0.001000
1005.711538,0.031955,0.001000,0.001000,0.001000,0.001000,0.001000
1005.730769,0.030811,0.001000,0.001000,0.001000,0.001000,0.001000
1005.750000,0.029640,0.001000,0.001000,0.001000,0.001000,0.001000
1005.769231,0.028443,0.001000,0.001000,0.001000,0.001000,0.001000
1005.788462,0.027222,0.001000,0.001000,0.001000,0.001000,0.001000
1005.807692,0.025978,0.001000,0.001000,0.001000,0.001000,0.001000
1005.826923,0.024711,0.001000,0.001000,0.001000,0.001000,0.001000
1005.846154,0.023422,0.001000,0.001000,0.001000,0.001000,0.001000
1005.865385,0.022114,0.001000,0.001000,0.001000,0.001000,0.001000
1005.884615,0.020786,0.001000,0.001000,0.001000,0.001000,0.001000
1005.903846,0.019440,0.001000,0.001000,0.001000,0.001000,0.001000
1005.923077,0.018078,0.001000,0.001000,0.001000,0.001000,0.001000
1005.942308,0.016700,0.001000,0.001000,0.001000,0.001000,0.001000
1005.961538,0.015307,0.001000,0.001000,0.001000,0.001000,0.001000
1005.980769,0.013901,0.001000,0.001000,0.001000,0.001000,0.001000
1006.000000,0.012484,0.001000,0.001000,0.001000,0.001000,0.001000
1006.019231,0.011055,0.001000,0.001000,0.001000,0.001000,0.001000
1006.038462,0.009617,0.001000,0.001000,0.001000,0.001000,0.001000
1006.057692,0.008170,0.001000,0.001000,0.001000,0.001000,0.001000
1006.076923,0.006717,0.001000,0.001000,0.001000,0.001000,0.001000
1006.096154,0.005258,0.001000,0.001000,0.001000,0.001000,0.001000
1006.115385,0.003794,0.001000,0.001000,0.001000,0.001000,0.001000
1006.134615,0.002327,0.001000,0.001000,0.001000,0.001000,0.001000
1006.153846,0.000858,0.001000,0.001000,0.001000,0.001000,0.001000
1006.173077,-0.000612,0.001000,0.001000,0.001000,0.001000,0.001000
1006.192308,-0.002082,0.001000,0.001000,0.001000,0.001000,0.001000
1006.211538,-0.003549,0.001000,0.001000,0.001000,0.001000,0.001000
1006.230769,-0.005014,0.001000,0.001000,0.001000,0.001000,0.001000
1006.250000,-0.006474,0.001000,0.001000,0.001000,0.001000,0.001000
1006.269231,-0.007928,0.001000,0.001000,0.001000,0.001000,0.001000
1006.288462,-0.009376,0.001000,0.001000,0.001000,0.001000,0.001000
1006.307692,-0.010816,0.001000,0.001000,0.001000,0.001000,0.001000
1006.326923,-0.012246,0.001000,0.001000,0.001000,0.001000,0.001000
1006.346154,-0.013666,0.001000,0.001000,0.001000,0.001000,0.001000
1006.365385,-0.015074,0.001000,0.001000,0.001000,0.001000,0.001000
1006.384615,-0.016468,0.001000,0.001000,0.001000,0.001000,0.001000
1006.403846,-0.017849,0.001000,0.001000,0.001000,0.001000,0.001000
1006.423077,-0.019214,0.001000,0.001000,0.001000,0.001000,0.001000
1006.442308,-0.020563,0.001000,0.001000,0.001000,0.001000,0.001000
1006.461538,-0.021894,0.001000,0.001000,0.001000,0.001000,0.001000
1006.480769,-0.023205,0.001000,0.001000,0.001000,0.001000,0.001000
1006.500000,-0.024497,0.001000,0.001000,0.001000,0.001000,0.001000
1006.519231,-0.025768,0.001000,0.001000,0.001000,0.001000,0.001000
1006.538462,-0.027016,0.001000,0.001000,0.001000,0.001000,0.001000
1006.557692,-0.028241,0.001000,0.001000,0.001000,0.001000,0.001000
1006.576923,-0.029442,0.001000,0.001000,0.001000,0.001000,0.001000
1006.596154,-0.030617,0.001000,0.001000,0.001000,0.001000,0.001000
1006.615385,-0.031766,0.001000,0.001000,0.001000,0.001000,0.001000
1006.634615,-0.032887,0.001000,0.001000,0.001000,0.001000,0.001000
1006.653846,-0.033980,0.001000,0.001000,0.001000,0.001000,0.001000
1006.673077,-0.035044,0.001000,0.001000,0.001000,0.001000,0.001000
1006.692308,-0.036077,0.001000,0.001000,0.001000,0.001000,0.001000
1006.711538,-0.037079,0.001000,0.001000,0.001000,0.001000,0.001000
1006.730769,-0.038049,0.001000,0.001000,0.001000,0.001000,0.001000
1006.750000,-0.038986,0.001000,0.001000,0.001000,0.001000,0.001000
1006.769231,-0.039889,0.001000,0.001000,0.001000,0.001000,0.001000
1006.788462,-0.040758,0.001000,0.001000,0.001000,0.001000,0.001000
1006.807692,-0.041592,0.001000,0.001000,0.001000,0.001000,0.001000
1006.826923,-0.042390,0.001000,0.001000,0.001000,0.001000,0.001000
1006.846154,-0.043151,0.001000,0.001000,0.001000,0.001000,0.001000
1006.865385,-0.043875,0.001000,0.001000,0.001000,0.001000,0.001000
1006.884615,-0.044560,0.001000,0.001000,0.001000,0.001000,0.001000
1006.903846,-0.045208,0.001000,0.001000,0.001000,0.001000,0.001000
1006.923077,-0.045816,0.001000,0.001000,0.001000,0.001000,0.001000
1006.942308,-0.046385,0.001000,0.001000,0.001000,0.001000,0.001000
1006.961538,-0.046914,0.001000,0.001000,0.001000,0.001000,0.001000
1006.980769,-0.047402,0.001000,0.001000,0.001000,0.001000,0.001000
1007.000000,-0.047849,0.001000,0.001000,0.001000,0.001000,0.001000
1007.019231,-0.048255,0.001000,0.001000,0.001000,0.001000,0.001000
1007.038462,-0.048619,0.001000,0.001000,0.001000,0.001000,0.001000
1007.057692,-0.048941,0.001000,0.001000,0.001000,0.001000,0.001000
1007.076923,-0.049221,0.001000,0.001000,0.001000,0.001000,0.001000
1007.096154,-0.049458,0.001000,0.001000,0.001000,0.001000,0.001000
1007.115385,-0.049652,0.001000,0.001000,0.001000,0.001000,0.001000
1007.134615,-0.049804,0.001000,0.001000,0.001000,0.001000,0.001000
1007.153846,-0.049912,0.001000,0.001000,0.001000,0.001000,0.001000
1007.173077,-0.049978,0.001000,0.001000,0.001000,0.001000,0.001000
1007.192308,-0.050000,0.001000,0.001000,0.001000,0.001000,0.001000
1007.211538,-0.049979,0.001000,0.001000,0.001000,0.001000,0.001000
1007.230769,-0.049915,0.001000,0.001000,0.001000,0.001000,0.001000
1007.250000,-0.049807,0.001000,0.001000,0.001000,0.001000,0.001000
1007.269231,-0.049657,0.001000,0.001000,0.001000,0.001000,0.001000
1007.288462,-0.049464,0.001000,0.001000,0.001000,0.001000,0.001000
1007.307692,-0.049228,0.001000,0.001000,0.001000,0.001000,0.001000
1007.326923,-0.048949,0.001000,0.001000,0.001000,0.001000,0.001000
1007.346154,-0.048628,0.001000,0.001000,0.001000,0.001000,0.001000
1007.365385,-0.048265,0.001000,0.001000,0.001000,0.001000,0.001000
1007.384615,-0.047861,0.001000,0.001000,0.001000,0.001000,0.001000
1007.403846,-0.047415,0.001000,0.001000,0.001000,0.001000,0.001000
1007.423077,-0.046928,0.001000,0.001000,0.001000,0.001000,0.001000
1007.442308,-0.046400,0.001000,0.001000,0.001000,0.001000,0.001000
1007.461538,-0.045833,0.001000,0.001000,0.001000,0.001000,0.001000
1007.480769,-0.045225,0.001000,0.001000,0.001000,0.001000,0.001000
1007.500000,-0.044579,0.001000,0.001000,0.001000,0.001000,0.001000
1007.519231,-0.043894,0.001000,0.001000,0.001000,0.001000,0.001000
1007.538462,-0.043171,0.001000,0.001000,0.001000,0.001000,0.001000
1007.557692,-0.042411,0.001000,0.001000,0.001000,0.001000,0.001000
1007.576923,-0.041615,0.001000,0.001000,0.001000,0.001000,0.001000
1007.596154,-0.040782,0.001000,0.001000,0.001000,0.001000,0.001000
1007.615385,-0.039914,0.001000,0.001000,0.001000,0.001000,0.001000
1007.634615,-0.039011,0.001000,0.001000,0.001000,0.001000,0.001000
1007.653846,-0.038075,0.001000,0.001000,0.001000,0.001000,0.001000
1007.673077,-0.037106,0.001000,0.001000,0.001000,0.001000,0.001000
1007.692308,-0.036105,0.001000,0.001000,0.001000,0.001000,0.001000
1007.711538,-0.035073,0.001000,0.001000,0.001000,0.001000,0.001000
1007.730769,-0.034010,0.001000,0.001000,0.001000,0.001000,0.001000
1007.750000,-0.032918,0.001000,0.001000,0.001000,0.001000,0.001000
1007.769231,-0.031798,0.001000,0.001000,0.001000,0.001000,0.001000
1007.788462,-0.030650,0.001000,0.001000,0.001000,0.001000,0.001000
1007.807692,-0.029475,0.001000,0.001000,0.001000,0.001000,0.001000
1007.826923,-0.028275,0.001000,0.001000,0.001000,0.001000,0.001000
1007.846154,-0.027051,0.001000,0.001000,0.001000,0.001000,0.001000
1007.865385,-0.025803,0.001000,0.001000,0.001000,0.001000,0.001000
1007.884615,-0.024533,0.001000,0.001000,0.001000,0.001000,0.001000
1007.903846,-0.023242,0.001000,0.001000,0.001000,0.001000,0.001000
1007.923077,-0.021930,0.001000,0.001000,0.001000,0.001000,0.001000
1007.942308,-0.020600,0.001000,0.001000,0.001000,0.001000,0.001000
1007.961538,-0.019252,0.001000,0.001000,0.001000,0.001000,0.001000
1007.980769,-0.017887,0.001000,0.001000,0.001000,0.001000,0.001000
1008.000000,-0.016507,0.001000,0.001000,0.001000,0.001000,0.001000
1008.019231,-0.015113,0.001000,0.001000,0.001000,0.001000,0.001000
1008.038462,-0.013705,0.001000,0.001000,0.001000,0.001000,0.001000
1008.057692,-0.012286,0.001000,0.001000,0.001000,0.001000,0.001000
1008.076923,-0.010856,0.001000,0.001000,0.001000,0.001000,0.001000
1008.096154,-0.009416,0.001000,0.001000,0.001000,0.001000,0.001000
1008.115385,-0.007969,0.001000,0.001000,0.001000,0.001000,0.001000
1008.134615,-0.006515,0.001000,0.001000,0.001000,0.001000,0.001000
1008.153846,-0.005055,0.001000,0.001000,0.001000,0.001000,0.001000
1008.173077,-0.003590,0.001000,0.001000,0.001000,0.001000,0.001000
1008.192308,-0.002123,0.001000,0.001000,0.001000,0.001000,0.001000
1008.211538,-0.000653,0.001000,0.001000,0.001000,0.001000,0.001000
1008.230769,0.000816,0.001000,0.001000,0.001000,0.001000,0.001000
1008.250000,0.002286,0.001000,0.001000,0.001000,0.001000,0.001000
1008.269231,0.003753,0.001000,0.001000,0.001000,0.001000,0.001000
1008.288462,0.005217,0.001000,0.001000,0.001000,0.001000,0.001000
1008.307692,0.006676,0.001000,0.001000,0.001000,0.001000,0.001000
1008.326923,0.008130,0.001000,0.001000,0.001000,0.001000,0.001000
1008.346154,0.009577,0.001000,0.001000,0.001000,0.001000,0.001000
1008.365385,0.011015,0.001000,0.001000,0.001000,0.001000,0.001000
1008.384615,0.012444,0.001000,0.001000,0.001000,0.001000,0.001000
1008.403846,0.013862,0.001000,0.001000,0.001000,0.001000,0.001000
1008.423077,0.015268,0.001000,0.001000,0.001000,0.001000,0.001000
1008.442308,0.016661,0.001000,0.001000,0.001000,0.001000,0.001000
1008.461538,0.018040,0.001000,0.001000,0.001000,0.001000,0.001000
1008.480769,0.019403,0.001000,0.001000,0.001000,0.001000,0.001000
1008.500000,0.020749,0.001000,0.001000,0.001000,0.001000,0.001000
1008.519231,0.022077,0.001000,0.001000,0.001000,0.001000,0.001000
1008.538462,0.023386,0.001000,0.001000,0.001000,0.001000,0.001000
1008.557692,0.024675,0.001000,0.001000,0.001000,0.001000,0.001000
1008.576923,0.025943,0.001000,0.001000,0.001000,0.001000,0.001000
1008.596154,0.027188,0.001000,0.001000,0.001000,0.001000,0.001000
1008.615385,0.028410,0.001000,0.001000,0.001000,0.001000,0.001000
1008.634615,0.029607,0.001000,0.001000,0.001000,0.001000,0.001000
1008.653846,0.030778,0.001000,0.001000,0.001000,0.001000,0.001000
1008.673077,0.031923,0.001000,0.001000,0.001000,0.001000,0.001000
1008.692308,0.033041,0.001000,0.001000,0.001000,0.001000,0.001000
1008.711538,0.034130,0.001000,0.001000,0.001000,0.001000,0.001000
1008.730769,0.035189,0.001000,0.001000,0.001000,0.001000,0.001000
1008.750000,0.036218,0.001000,0.001000,0.001000,0.001000,0.001000
1008.769231,0.037215,0.001000,0.001000,0.001000,0.001000,0.001000
1008.788462,0.038181,0.001000,0.001000,0.001000,0.001000,0.001000
1008.807692,0.039113,0.001000,0.001000,0.001000,0.001000,0.001000
1008.826923,0.040012,0.001000,0.001000,0.001000,0.001000,0.001000
1008.846154,0.040876,0.001000,0.001000,0.001000,0.001000,0.001000
1008.865385,0.041705,0.001000,0.001000,0.001000,0.001000,0.001000
1008.884615,0.042498,0.001000,0.001000,0.001000,0.001000,0.001000
1008.903846,0.043253,0.001000,0.001000,0.001000,0.001000,0.001000
1008.923077,0.043972,0.001000,0.001000,0.001000,0.001000,0.001000
1008.942308,0.044653,0.001000,0.001000,0.001000,0.001000,0.001000
1008.961538,0.045295,0.001000,0.001000,0.001000,0.001000,0.001000
1008.980769,0.045898,0.001000,0.001000,0.001000,0.001000,0.001000
1009.000000,0.046461,0.001000,0.001000,0.001000,0.001000,0.001000
1009.019231,0.046984,0.001000,0.001000,0.001000,0.001000,0.001000
1009.038462,0.047466,0.001000,0.001000,0.001000,0.001000,0.001000
1009.057692,0.047908,0.001000,0.001000,0.001000,0.001000,0.001000
1009.076923,0.048308,0.001000,0.001000,0.001000,0.001000,0.001000
1009.096154,0.048666,0.001000,0.001000,0.001000,0.001000,0.001000
1009.115385,0.048982,0.001000,0.001000,0.001000,0.001000,0.001000
1009.134615,0.049256,0.001000,0.001000,0.001000,0.001000,0.001000
1009.153846,0.049487,0.001000,0.001000,0.001000,0.001000,0.001000
1009.173077,0.049676,0.001000,0.001000,0.001000,0.001000,0.001000
1009.192308,0.049821,0.001000,0.001000,0.001000,0.001000,0.001000
1009.211538,0.049924,0.001000,0.001000,0.001000,0.001000,0.001000
1009.230769,0.049983,0.001000,0.001000,0.001000,0.001000,0.001000
1009.250000,0.050000,0.001000,0.001000,0.001000,0.001000,0.001000
1009.269231,0.049973,0.001000,0.001000,0.001000,0.001000,0.001000
1009.288462,0.049902,0.001000,0.001000,0.001000,0.001000,0.001000
1009.307692,0.049789,0.001000,0.001000,0.001000,0.001000,0.001000
1009.326923,0.049633,0.001000,0.001000,0.001000,0.001000,0.001000
1009.346154,0.049434,0.001000,0.001000,0.001000,0.001000,0.001000
1009.365385,0.049192,0.001000,0.001000,0.001000,0.001000,0.001000
1009.384615,0.048907,0.001000,0.001000,0.001000,0.001000,0.001000
1009.403846,0.048580,0.001000,0.001000,0.001000,0.001000,0.001000
1009.423077,0.048212,0.001000,0.001000,0.001000,0.001000,0.001000
1009.442308,0.047801,0.001000,0.001000,0.001000,0.001000,0.001000
1009.461538,0.047350,0.001000,0.001000,0.001000,0.001000,0.001000
1009.480769,0.046857,0.001000,0.001000,0.001000,0.001000,0.001000
1009.500000,0.046324,0.001000,0.001000,0.001000,0.001000,0.001000
1009.519231,0.045751,0.001000,0.001000,0.001000,0.001000,0.001000
1009.538462,0.045138,0.001000,0.001000,0.001000,0.001000,0.001000
1009.557692,0.044486,0.001000,0.001000,0.001000,0.001000,0.001000
1009.576923,0.043796,0.001000,0.001000,0.001000,0.001000,0.001000
1009.596154,0.043068,0.001000,0.001000,0.001000,0.001000,0.001000
1009.615385,0.042303,0.001000,0.001000,0.001000,0.001000,0.001000
1009.634615,0.041501,0.001000,0.001000,0.001000,0.001000,0.001000
1009.653846,0.040663,0.001000,0.001000,0.001000,0.001000,0.001000
1009.673077,0.039791,0.001000,0.001000,0.001000,0.001000,0.001000
1009.692308,0.038883,0.001000,0.001000,0.001000,0.001000,0.001000
1009.711538,0.037943,0.001000,0.001000,0.001000,0.001000,0.001000
1009.730769,0.036969,0.001000,0.001000,0.001000,0.001000,0.001000
1009.750000,0.035964,0.001000,0.001000,0.001000,0.001000,0.001000
1009.769231,0.034927,0.001000,0.001000,0.001000,0.001000,0.001000
1009.788462,0.033860,0.001000,0.001000,0.001000,0.001000,0.001000
1009.807692,0.032764,0.001000,0.001000,0.001000,0.001000,0.001000
1009.826923,0.031640,0.001000,0.001000,0.001000,0.001000,0.001000
1009.846154,0.030488,0.001000,0.001000,0.001000,0.001000,0.001000
1009.865385,0.029310,0.001000,0.001000,0.001000,0.001000,0.001000
1009.884615,0.028107,0.001000,0.001000,0.001000,0.001000,0.001000
1009.903846,0.026879,0.001000,0.001000,0.001000,0.001000,0.001000
1009.923077,0.025628,0.001000,0.001000,0.001000,0.001000,0.001000
1009.942308,0.024355,0.001000,0.001000,0.001000,0.001000,0.001000
1009.961538,0.023061,0.001000,0.001000,0.001000,0.001000,0.001000
1009.980769,0.021747,0.001000,0.001000,0.001000,0.001000,0.001000
1010.000000,0.020414,0.001000,0.001000,0.001000,0.001000,0.001000
1010.019231,0.019064,0.001000,0.001000,0.001000,0.001000,0.001000
1010.038462,0.017697,0.001000,0.001000,0.001000,0.001000,0.001000
1010.057692,0.016314,0.001000,0.001000,0.001000,0.001000,0.001000
1010.076923,0.014918,0.001000,0.001000,0.001000,0.001000,0.001000
1010.096154,0.013509,0.001000,0.001000,0.001000,0.001000,0.001000
1010.115385,0.012088,0.001000,0.001000,0.001000,0.001000,0.001000
1010.134615,0.010656,0.001000,0.001000,0.001000,0.001000,0.001000
1010.153846,0.009216,0.001000,0.001000,0.001000,0.001000,0.001000
1010.173077,0.007767,0.001000,0.001000,0.001000,0.001000,0.001000
1010.192308,0.006312,0.001000,0.001000,0.001000,0.001000,0.001000
1010.211538,0.004851,0.001000,0.001000,0.001000,0.001000,0.001000
1010.230769,0.003387,0.001000,0.001000,0.001000,0.001000,0.001000
1010.250000,0.001919,0.001000,0.001000,0.001000,0.001000,0.001000
1010.269231,0.000449,0.001000,0.001000,0.001000,0.001000,0.001000
1010.288462,-0.001021,0.001000,0.001000,0.001000,0.001000,0.001000
1010.307692,-0.002490,0.001000,0.001000,0.001000,0.001000,0.001000
1010.326923,-0.003956,0.001000,0.001000,0.001000,0.001000,0.001000
1010.346154,-0.005420,0.001000,0.001000,0.001000,0.001000,0.001000
1010.365385,-0.006879,0.001000,0.001000,0.001000,0.001000,0.001000
1010.384615,-0.008331,0.001000,0.001000,0.001000,0.001000,0.001000
1010.403846,-0.009777,0.001000,0.001000,0.001000,0.001000,0.001000
1010.423077,-0.011214,0.001000,0.001000,0.001000,0.001000,0.001000
1010.442308,-0.012641,0.001000,0.001000,0.001000,0.001000,0.001000
1010.461538,-0.014058,0.001000,0.001000,0.001000,0.001000,0.001000
1010.480769,-0.015462,0.001000,0.001000,0.001000,0.001000,0.001000
1010.500000,-0.016853,0.001000,0.001000,0.001000,0.001000,0.001000
1010.519231,-0.018230,0.001000,0.001000,0.001000,0.001000,0.001000
1010.538462,-0.019591,0.001000,0.001000,0.001000,0.001000,0.001000
1010.557692,-0.020934,0.001000,0.001000,0.001000,0.001000,0.001000
1010.576923,-0.022260,0.001000,0.001000,0.001000,0.001000,0.001000
1010.596154,-0.023566,0.001000,0.001000,0.001000,0.001000,0.001000
1010.615385,-0.024852,0.001000,0.001000,0.001000,0.001000,0.001000
1010.634615,-0.026117,0.001000,0.001000,0.001000,0.001000,0.001000
1010.653846,-0.027359,0.001000,0.001000,0.001000,0.001000,0.001000
1010.673077,-0.028577,0.001000,0.001000,0.001000,0.001000,0.001000
1010.692308,-0.029771,0.001000,0.001000,0.001000,0.001000,0.001000
1010.711538,-0.030939,0.001000,0.001000,0.001000,0.001000,0.001000
1010.730769,-0.032080,0.001000,0.001000,0.001000,0.001000,0.001000
1010.750000,-0.033194,0.001000,0.001000,0.001000,0.001000,0.001000
1010.769231,-0.034278,0.001000,0.001000,0.001000,0.001000,0.001000
1010.788462,-0.035334,0.001000,0.001000,0.001000,0.001000,0.001000
1010.807692,-0.036358,0.001000,0.001000,0.001000,0.001000,0.001000
1010.826923,-0.037351,0.001000,0.001000,0.001000,0.001000,0.001000
1010.846154,-0.038312,0.001000,0.001000,0.001000,0.001000,0.001000
1010.865385,-0.039240,0.001000,0.001000,0.001000,0.001000,0.001000
1010.884615,-0.040134,0.001000,0.001000,0.001000,0.001000,0.001000
1010.903846,-0.040993,0.001000,0.001000,0.001000,0.001000,0.001000
1010.923077,-0.041817,0.001000,0.001000,0.001000,0.001000,0.001000
1010.942308,-0.042605,0.001000,0.001000,0.001000,0.001000,0.001000
1010.961538,-0.043356,0.001000,0.001000,0.001000,0.001000,0.001000
1010.980769,-0.044069,0.001000,0.001000,0.001000,0.001000,0.001000
1011.000000,-0.044744,0.001000,0.001000,0.001000,0.001000,0.001000
1011.019231,-0.045381,0.001000,0.001000,0.001000,0.001000,0.001000
1011.038462,-0.045978,0.001000,0.001000,0.001000,0.001000,0.001000
1011.057692,-0.046536,0.001000,0.001000,0.001000,0.001000,0.001000
1011.076923,-0.047053,0.001000,0.001000,0.001000,0.001000,0.001000
1011.096154,-0.047530,0.001000,0.001000,0.001000,0.001000,0.001000
1011.115385,-0.047966,0.001000,0.001000,0.001000,0.001000,0.001000
1011.134615,-0.048360,0.001000,0.001000,0.001000,0.001000,0.001000
1011.153846,-0.048712,0.001000,0.001000,0.001000,0.001000,0.001000
1011.173077,-0.049023,0.001000,0.001000,0.001000,0.001000,0.001000
1011.192308,-0.049291,0.001000,0.001000,0.001000,0.001000,0.001000
1011.211538,-0.049516,0.001000,0.001000,0.001000,0.001000,0.001000
1011.230769,-0.049699,0.001000,0.001000,0.001000,0.001000,0.001000
1011.250000,-0.049838,0.001000,0.001000,0.001000,0.001000,0.001000
1011.269231,-0.049935,0.001000,0.001000,0.001000,0.001000,0.001000
1011.288462,-0.049988,0.001000,0.001000,0.001000,0.001000,0.001000
1011.307692,-0.049998,0.001000,0.001000,0.001000,0.001000,0.001000
1011.326923,-0.049965,0.001000,0.001000,0.001000,0.001000,0.001000
1011.346154,-0.049889,0.001000,0.001000,0.001000,0.001000,0.001000
1011.365385,-0.049770,0.001000,0.001000,0.001000,0.001000,0.001000
1011.384615,-0.049608,0.001000,0.001000,0.001000,0.001000,0.001000
1011.403846,-0.049403,0.001000,0.001000,0.001000,0.001000,0.001000
1011.423077,-0.049155,0.001000,0.001000,0.001000,0.001000,0.001000
1011.442308,-0.048864,0.001000,0.001000,0.001000,0.001000,0.001000
1011.461538,-0.048532,0.001000,0.001000,0.001000,0.001000,0.001000
1011.480769,-0.048157,0.001000,0.001000,0.001000,0.001000,0.001000
1011.500000,-0.047741,0.001000,0.001000,0.001000,0.001000,0.001000
1011.519231,-0.047284,0.001000,0.001000,0.001000,0.001000,0.001000
1011.538462,-0.046785,0.001000,0.001000,0.001000,0.001000,0.001000
1011.557692,-0.046247,0.001000,0.001000,0.001000,0.001000,0.001000
1011.576923,-0.045668,0.001000,0.001000,0.001000,0.001000,0.001000
1011.596154,-0.045050,0.001000,0.001000,0.001000,0.001000,0.001000
1011.615385,-0.044393,0.001000,0.001000,0.001000,0.001000,0.001000
1011.634615,-0.043697,0.001000,0.001000,0.001000,0.001000,0.001000
1011.653846,-0.042964,0.001000,0.001000,0.001000,0.001000,0.001000
1011.673077,-0.042194,0.001000,0.001000,0.001000,0.001000,0.001000
1011.692308,-0.041387,0.001000,0.001000,0.001000,0.001000,0.001000
1011.711538,-0.040544,0.001000,0.001000,0.001000,0.001000,0.001000
1011.730769,-0.039667,0.001000,0.001000,0.001000,0.001000,0.001000
1011.750000,-0.038755,0.001000,0.001000,0.001000,0.001000,0.001000
1011.769231,-0.037809,0.001000,0.001000,0.001000,0.001000,0.001000
1011.788462,-0.036831,0.001000,0.001000,0.001000,0.001000,0.001000
1011.807692,-0.035821,0.001000,0.001000,0.001000,0.001000,0.001000
1011.826923,-0.034781,0.001000,0.001000,0.001000,0.001000,0.001000
1011.846154,-0.033710,0.001000,0.001000,0.001000,0.001000,0.001000
1011.865385,-0.032610,0.001000,0.001000,0.001000,0.001000,0.001000
1011.884615,-0.031481,0.001000,0.001000,0.001000,0.001000,0.001000
1011.903846,-0.030326,0.001000,0.001000,0.001000,0.001000,0.001000
1011.923077,-0.029144,0.001000,0.001000,0.001000,0.001000,0.001000
1011.942308,-0.027938,0.001000,0.001000,0.001000,0.001000,0.001000
1011.961538,-0.026707,0.001000,0.001000,0.001000,0.001000,0.001000
1011.980769,-0.025453,0.001000,0.001000,0.001000,0.001000,0.001000
1012.000000,-0.024177,0.001000,0.001000,0.001000,0.001000,0.001000
1012.019231,-0.022880,0.001000,0.001000,0.001000,0.001000,0.001000
1012.038462,-0.021563,0.001000,0.001000,0.001000,0.001000,0.001000
1012.057692,-0.020227,0.001000,0.001000,0.001000,0.001000,0.001000
1012.076923,-0.018875,0.001000,0.001000,0.001000,0.001000,0.001000
1012.096154,-0.017506,0.001000,0.001000,0.001000,0.001000,0.001000
1012.115385,-0.016121,0.001000,0.001000,0.001000,0.001000,0.001000
1012.134615,-0.014723,0.001000,0.001000,0.001000,0.001000,0.001000
1012.153846,-0.013312,0.001000,0.001000,0.001000,0.001000,0.001000
1012.173077,-0.011890,0.001000,0.001000,0.001000,0.001000,0.001000
1012.192308,-0.010457,0.001000,0.001000,0.001000,0.001000,0.001000
1012.211538,-0.009015,0.001000,0.001000,0.001000,0.001000,0.001000
1012.230769,-0.007566,0.001000,0.001000,0.001000,0.001000,0.001000
1012.250000,-0.006110,0.001000,0.001000,0.001000,0.001000,0.001000
1012.269231,-0.004648,0.001000,0.001000,0.001000,0.001000,0.001000
1012.288462,-0.003183,0.001000,0.001000,0.001000,0.001000,0.001000
1012.307692,-0.001715,0.001000,0.001000,0.001000,0.001000,0.001000
1012.326923,-0.000245,0.001000,0.001000,0.001000,0.001000,0.001000
1012.346154,0.001225,0.001000,0.001000,0.001000,0.001000,0.001000
1012.365385,0.002693,0.001000,0.001000,0.001000,0.001000,0.001000
1012.384615,0.004160,0.001000,0.001000,0.001000,0.001000,0.001000
1012.403846,0.005623,0.001000,0.001000,0.001000,0.001000,0.001000
1012.423077,0.007081,0.001000,0.001000,0.001000,0.001000,0.001000
1012.442308,0.008533,0.001000,0.001000,0.001000,0.001000,0.001000
1012.461538,0.009977,0.001000,0.001000,0.001000,0.001000,0.001000
1012.480769,0.011413,0.001000,0.001000,0.001000,0.001000,0.001000
1012.500000,0.012839,0.001000,0.001000,0.001000,0.001000,0.001000
1012.519231,0.014254,0.001000,0.001000,0.001000,0.001000,0.001000
1012.538462,0.015656,0.001000,0.001000,0.001000,0.001000,0.001000
1012.557692,0.017045,0.001000,0.001000,0.001000,0.001000,0.001000
1012.576923,0.018420,0.001000,0.001000,0.001000,0.001000,0.001000
1012.596154,0.019778,0.001000,0.001000,0.001000,0.001000,0.001000
1012.615385,0.021119,0.001000,0.001000,0.001000,0.001000,0.001000
1012.634615,0.022443,0.001000,0.001000,0.001000,0.001000,0.001000
1012.653846,0.023746,0.001000,0.001000,0.001000,0.001000,0.001000
1012.673077,0.025029,0.001000,0.001000,0.001000,0.001000,0.001000
1012.692308,0.026291,0.001000,0.001000,0.001000,0.001000,0.001000
1012.711538,0.027530,0.001000,0.001000,0.001000,0.001000,0.001000
1012.730769,0.028745,0.001000,0.001000,0.001000,0.001000,0.001000
1012.750000,0.029935,0.001000,0.001000,0.001000,0.001000,0.001000
1012.769231,0.031099,0.001000,0.001000,0.001000,0.001000,0.001000
1012.788462,0.032236,0.001000,0.001000,0.001000,0.001000,0.001000
1012.807692,0.033346,0.001000,0.001000,0.001000,0.001000,0.001000
1012.826923,0.034427,0.001000,0.001000,0.001000,0.001000,0.001000
1012.846154,0.035478,0.001000,0.001000,0.001000,0.001000,0.001000
1012.865385,0.036498,0.001000,0.001000,0.001000,0.001000,0.001000
1012.884615,0.037487,0.001000,0.001000,0.001000,0.001000,0.001000
1012.903846,0.038443,0.001000,0.001000,0.001000,0.001000,0.001000
1012.923077,0.039366,0.001000,0.001000,0.001000,0.001000,0.001000
1012.942308,0.040255,0.001000,0.001000,0.001000,0.001000,0.001000
1012.961538,0.041110,0.001000,0.001000,0.001000,0.001000,0.001000
1012.980769,0.041929,0.001000,0.001000,0.001000,0.001000,0.001000
1013.000000,0.042711,0.001000,0.001000,0.001000,0.001000,0.001000
1013.019231,0.043457,0.001000,0.001000,0.001000,0.001000,0.001000
1013.038462,0.044165,0.001000,0.001000,0.001000,0.001000,0.001000
1013.057692,0.044835,0.001000,0.001000,0.001000,0.001000,0.001000
1013.076923,0.045466,0.001000,0.001000,0.001000,0.001000,0.001000
1013.096154,0.046058,0.001000,0.001000,0.001000,0.001000,0.001000
1013.115385,0.046610,0.001000,0.001000,0.001000,0.001000,0.001000
1013.134615,0.047122,0.001000,0.001000,0.001000,0.001000,0.001000
1013.153846,0.047593,0.001000,0.001000,0.001000,0.001000,0.001000
1013.173077,0.048023,0.001000,0.001000,0.001000,0.001000,0.001000
1013.192308,0.048411,0.001000,0.001000,0.001000,0.001000,0.001000
1013.211538,0.048758,0.001000,0.001000,0.001000,0.001000,0.001000
1013.230769,0.049062,0.001000,0.001000,0.001000,0.001000,0.001000
1013.250000,0.049325,0.001000,0.001000,0.001000,0.001000,0.001000
1013.269231,0.049544,0.001000,0.001000,0.001000,0.001000,0.001000
1013.288462,0.049721,0.001000,0.001000,0.001000,0.001000,0.001000
1013.307692,0.049854,0.001000,0.001000,0.001000,0.001000,0.001000
1013.326923,0.049945,0.001000,0.001000,0.001000,0.001000,0.001000
1013.346154,0.049992,0.001000,0.001000,0.001000,0.001000,0.001000
1013.365385,0.049996,0.001000,0.001000,0.001000,0.001000,0.001000
1013.384615,0.049957,0.001000,0.001000,0.001000,0.001000,0.001000
1013.403846,0.049875,0.001000,0.001000,0.001000,0.001000,0.001000
1013.423077,0.049750,0.001000,0.001000,0.001000,0.001000,0.001000
1013.442308,0.049582,0.001000,0.001000,0.001000,0.001000,0.001000
1013.461538,0.049371,0.001000,0.001000,0.001000,0.001000,0.001000
1013.480769,0.049117,0.001000,0.001000,0.001000,0.001000,0.001000
1013.500000,0.048821,0.001000,0.001000,0.001000,0.001000,0.001000
1013.519231,0.048482,0.001000,0.001000,0.001000,0.001000,0.001000
1013.538462,0.048102,0.001000,0.001000,0.001000,0.001000,0.001000
1013.557692,0.047680,0.001000,0.001000,0.001000,0.001000,0.001000
1013.576923,0.047217,0.001000,0.001000,0.001000,0.001000,0.001000
1013.596154,0.046713,0.001000,0.001000,0.001000,0.001000,0.001000
1013.615385,0.046169,0.001000,0.001000,0.001000,0.001000,0.001000
1013.634615,0.045584,0.001000,0.001000,0.001000,0.001000,0.001000
1013.653846,0.044961,0.001000,0.001000,0.001000,0.001000,0.001000
1013.673077,0.044298,0.001000,0.001000,0.001000,0.001000,0.001000
1013.692308,0.043598,0.001000,0.001000,0.001000,0.001000,0.001000
1013.711538,0.042859,0.001000,0.001000,0.001000,0.001000,0.001000
1013.730769,0.042084,0.001000,0.001000,0.001000,0.001000,0.001000
1013.750000,0.041272,0.001000,0.001000,0.001000,0.001000,0.001000
1013.769231,0.040425,0.001000,0.001000,0.001000,0.001000,0.001000
1013.788462,0.039542,0.001000,0.001000,0.001000,0.001000,0.001000
1013.807692,0.038626,0.001000,0.001000,0.001000,0.001000,0.001000
1013.826923,0.037676,0.001000,0.001000,0.001000,0.001000,0.001000
1013.846154,0.036693,0.001000,0.001000,0.001000,0.001000,0.001000
1013.865385,0.035679,0.001000,0.001000,0.001000,0.001000,0.001000
1013.884615,0.034634,0.001000,0.001000,0.001000,0.001000,0.001000
1013.903846,0.033559,0.001000,0.001000,0.001000,0.001000,0.001000
1013.923077,0.032455,0.001000,0.001000,0.001000,0.001000,0.001000
1013.942308,0.031323,0.001000,0.001000,0.001000,0.001000,0.001000
1013.961538,0.030163,0.001000,0.001000,0.001000,0.001000,0.001000
1013.980769,0.028978,0.001000,0.001000,0.001000,0.001000,0.001000
1014.000000,0.027768,0.001000,0.001000,0.001000,0.001000,0.001000
1014.019231,0.026534,0.001000,0.001000,0.001000,0.001000,0.001000
1014.038462,0.025277,0.001000,0.001000,0.001000,0.001000,0.001000
1014.057692,0.023998,0.001000,0.001000,0.001000,0.001000,0.001000
1014.076923,0.022698,0.001000,0.001000,0.001000,0.001000,0.001000
1014.096154,0.021378,0.001000,0.001000,0.001000,0.001000,0.001000
1014.115385,0.020041,0.001000,0.001000,0.001000,0.001000,0.001000
1014.134615,0.018685,0.001000,0.001000,0.001000,0.001000,0.001000
1014.153846,0.017314,0.001000,0.001000,0.001000,0.001000,0.001000
1014.173077,0.015928,0.001000,0.001000,0.001000,0.001000,0.001000
1014.192308,0.014528,0.001000,0.001000,0.001000,0.001000,0.001000
1014.211538,0.013115,0.001000,0.001000,0.001000,0.001000,0.001000
1014.230769,0.011691,0.001000,0.001000,0.001000,0.001000,0.001000
1014.250000,0.010257,0.001000,0.001000,0.001000,0.001000,0.001000
1014.269231,0.008814,0.001000,0.001000,0.001000,0.001000,0.001000
1014.288462,0.007364,0.001000,0.001000,0.001000,0.001000,0.001000
1014.307692,0.005907,0.001000,0.001000,0.001000,0.001000,0.001000
1014.326923,0.004445,0.001000,0.001000,0.001000,0.001000,0.001000
1014.346154,0.002979,0.001000,0.001000,0.001000,0.001000,0.001000
1014.365385,0.001511,0.001000,0.001000,0.001000,0.001000,0.001000
1014.384615,0.000041,0.001000,0.001000,0.001000,0.001000,0.001000
1014.403846,-0.001429,0.001000,0.001000,0.001000,0.001000,0.001000
1014.423077,-0.002897,0.001000,0.001000,0.001000,0.001000,0.001000
1014.442308,-0.004363,0.001000,0.001000,0.001000,0.001000,0.001000
1014.461538,-0.005825,0.001000,0.001000,0.001000,0.001000,0.001000
1014.480769,-0.007283,0.001000,0.001000,0.001000,0.001000,0.001000
1014.500000,-0.008734,0.001000,0.001000,0.001000,0.001000,0.001000
1014.519231,-0.010177,0.001000,0.001000,0.001000,0.001000,0.001000
1014.538462,-0.011612,0.001000,0.001000,0.001000,0.001000,0.001000
1014.557692,-0.013036,0.001000,0.001000,0.001000,0.001000,0.001000
1014.576923,-0.014449,0.001000,0.001000,0.001000,0.001000,0.001000
1014.596154,-0.015850,0.001000,0.001000,0.001000,0.001000,0.001000
1014.615385,-0.017237,0.001000,0.001000,0.001000,0.001000,0.001000
1014.634615,-0.018609,0.001000,0.001000,0.001000,0.001000,0.001000
1014.653846,-0.019965,0.001000,0.001000,0.001000,0.001000,0.001000
1014.673077,-0.021304,0.001000,0.001000,0.001000,0.001000,0.001000
1014.692308,-0.022625,0.001000,0.001000,0.001000,0.001000,0.001000
1014.711538,-0.023926,0.001000,0.001000,0.001000,0.001000,0.001000
1014.730769,-0.025206,0.001000,0.001000,0.001000,0.001000,0.001000
1014.750000,-0.026464,0.001000,0.001000,0.001000,0.001000,0.001000
1014.769231,-0.027700,0.001000,0.001000,0.001000,0.001000,0.001000
1014.788462,-0.028911,0.001000,0.001000,0.001000,0.001000,0.001000
1014.807692,-0.030098,0.001000,0.001000,0.001000,0.001000,0.001000
1014.826923,-0.031259,0.001000,0.001000,0.001000,0.001000,0.001000
1014.846154,-0.032392,0.001000,0.001000,0.001000,0.001000,0.001000
1014.865385,-0.033498,0.001000,0.001000,0.001000,0.001000,0.001000
1014.884615,-0.034574,0.001000,0.001000,0.001000,0.001000,0.001000
1014.903846,-0.035621,0.001000,0.001000,0.001000,0.001000,0.001000
1014.923077,-0.036637,0.001000,0.001000,0.001000,0.001000,0.001000
1014.942308,-0.037622,0.001000,0.001000,0.001000,0.001000,0.001000
1014.961538,-0.038573,0.001000,0.001000,0.001000,0.001000,0.001000
1014.980769,-0.039492,0.001000,0.001000,0.001000,0.001000,0.001000
1015.000000,-0.040376,0.001000,0.001000,0.001000,0.001000,0.001000
1015.019231,-0.041226,0.001000,0.001000,0.001000,0.001000,0.001000
1015.038462,-0.042039,0.001000,0.001000,0.001000,0.001000,0.001000
1015.057692,-0.042817,0.001000,0.001000,0.001000,0.001000,0.001000
1015.076923,-0.043557,0.001000,0.001000,0.001000,0.001000,0.001000
1015.096154,-0.044260,0.001000,0.001000,0.001000,0.001000,0.001000
1015.115385,-0.044925,0.001000,0.001000,0.001000,0.001000,0.001000
1015.134615,-0.045551,0.001000,0.001000,0.001000,0.001000,0.001000
1015.153846,-0.046137,0.001000,0.001000,0.001000,0.001000,0.001000
1015.173077,-0.046684,0.001000,0.001000,0.001000,0.001000,0.001000
1015.192308,-0.047190,0.001000,0.001000,0.001000,0.001000,0.001000
1015.211538,-0.047655,0.001000,0.001000,0.001000,0.001000,0.001000
1015.230769,-0.048079,0.001000,0.001000,0.001000,0.001000,0.001000
1015.250000,-0.048462,0.001000,0.001000,0.001000,0.001000,0.001000
1015.269231,-0.048803,0.001000,0.001000,0.001000,0.001000,0.001000
1015.288462,-0.049101,0.001000,0.001000,0.001000,0.001000,0.001000
1015.307692,-0.049358,0.001000,0.001000,0.001000,0.001000,0.001000
1015.326923,-0.049571,0.001000,0.001000,0.001000,0.001000,0.001000
1015.346154,-0.049742,0.001000,0.001000,0.001000,0.001000,0.001000
1015.365385,-0.049869,0.001000,0.001000,0.001000,0.001000,0.001000
1015.384615,-0.049954,0.001000,0.001000,0.001000,0.001000,0.001000
1015.403846,-0.049995,0.001000,0.001000,0.001000,0.001000,0.001000
1015.423077,-0.049994,0.001000,0.001000,0.001000,0.001000,0.001000
1015.442308,-0.049949,0.001000,0.001000,0.001000,0.001000,0.001000
1015.461538,-0.049860,0.001000,0.001000,0.001000,0.001000,0.001000
1015.480769,-0.049729,0.001000,0.001000,0.001000,0.001000,0.001000
1015.500000,-0.049555,0.001000,0.001000,0.001000,0.001000,0.001000
1015.519231,-0.049338,0.001000,0.001000,0.001000,0.001000,0.001000
1015.538462,-0.049078,0.001000,0.001000,0.001000,0.001000,0.001000
1015.557692,-0.048776,0.001000,0.001000,0.001000,0.001000,0.001000
1015.576923,-0.048432,0.001000,0.001000,0.001000,0.001000,0.001000
1015.596154,-0.048046,0.001000,0.001000,0.001000,0.001000,0.001000
1015.615385,-0.047618,0.001000,0.001000,0.001000,0.001000,0.001000
1015.634615,-0.047149,0.001000,0.001000,0.001000,0.001000,0.001000
1015.653846,-0.046640,0.001000,0.001000,0.001000,0.001000,0.001000
1015.673077,-0.046090,0.001000,0.001000,0.001000,0.001000,0.001000
1015.692308,-0.045500,0.001000,0.001000,0.001000,0.001000,0.001000
1015.711538,-0.044871,0.001000,0.001000,0.001000,0.001000,0.001000
1015.730769,-0.044203,0.001000,0.001000,0.001000,0.001000,0.001000
1015.750000,-0.043497,0.001000,0.001000,0.001000,0.001000,0.001000
1015.769231,-0.042754,0.001000,0.001000,0.001000,0.001000,0.001000
1015.788462,-0.041973,0.001000,0.001000,0.001000,0.001000,0.001000
1015.807692,-0.041156,0.001000,0.001000,0.001000,0.001000,0.001000
1015.826923,-0.040304,0.001000,0.001000,0.001000,0.001000,0.001000
1015.846154,-0.039417,0.001000,0.001000,0.001000,0.001000,0.001000
1015.865385,-0.038496,0.001000,0.001000,0.001000,0.001000,0.001000
1015.884615,-0.037541,0.001000,0.001000,0.001000,0.001000,0.001000
1015.903846,-0.036554,0.001000,0.001000,0.001000,0.001000,0.001000
1015.923077,-0.035535,0.001000,0.001000,0.001000,0.001000,0.001000
1015.942308,-0.034486,0.001000,0.001000,0.001000,0.001000,0.001000
1015.961538,-0.033407,0.001000,0.001000,0.001000,0.001000,0.001000
1015.980769,-0.032299,0.001000,0.001000,0.001000,0.001000,0.001000
1016.000000,-0.031163,0.001000,0.001000,0.001000,0.001000,0.001000
1016.019231,-0.030000,0.001000,0.001000,0.001000,0.001000,0.001000
1016.038462,-0.028812,0.001000,0.001000,0.001000,0.001000,0.001000
1016.057692,-0.027598,0.001000,0.001000,0.001000,0.001000,0.001000
1016.076923,-0.026361,0.001000,0.001000,0.001000,0.001000,0.001000
1016.096154,-0.025100,0.001000,0.001000,0.001000,0.001000,0.001000
1016.115385,-0.023818,0.001000,0.001000,0.001000,0.001000,0.001000
1016.134615,-0.022516,0.001000,0.001000,0.001000,0.001000,0.001000
1016.153846,-0.021194,0.001000,0.001000,0.001000,0.001000,0.001000
1016.173077,-0.019853,0.001000,0.001000,0.001000,0.001000,0.001000
1016.192308,-0.018496,0.001000,0.001000,0.001000,0.001000,0.001000
1016.211538,-0.017123,0.001000,0.001000,0.001000,0.001000,0.001000
1016.230769,-0.015734,0.001000,0.001000,0.001000,0.001000,0.001000
1016.250000,-0.014332,0.001000,0.001000,0.001000,0.001000,0.001000
1016.269231,-0.012918,0.001000,0.001000,0.001000,0.001000,0.001000
1016.288462,-0.011493,0.001000,0.001000,0.001000,0.001000,0.001000
1016.307692,-0.010057,0.001000,0.001000,0.001000,0.001000,0.001000
1016.326923,-0.008613,0.001000,0.001000,0.001000,0.001000,0.001000
1016.346154,-0.007162,0.001000,0.001000,0.001000,0.001000,0.001000
1016.365385,-0.005704,0.001000,0.001000,0.001000,0.001000,0.001000
1016.384615,-0.004242,0.001000,0.001000,0.001000,0.001000,0.001000
1016.403846,-0.002775,0.001000,0.001000,0.001000,0.001000,0.001000
1016.423077,-0.001307,0.001000,0.001000,0.001000,0.001000,0.001000
1016.442308,0.000163,0.001000,0.001000,0.001000,0.001000,0.001000
1016.461538,0.001633,0.001000,0.001000,0.001000,0.001000,0.001000
1016.480769,0.003101,0.001000,0.001000,0.001000,0.001000,0.001000
1016.500000,0.004567,0.001000,0.001000,0.001000,0.001000,0.001000
1016.519231,0.006028,0.001000,0.001000,0.001000,0.001000,0.001000
1016.538462,0.007485,0.001000,0.001000,0.001000,0.001000,0.001000
1016.557692,0.008935,0.001000,0.001000,0.001000,0.001000,0.001000
1016.576923,0.010377,0.001000,0.001000,0.001000,0.001000,0.001000
1016.596154,0.011810,0.001000,0.001000,0.001000,0.001000,0.001000
1016.615385,0.013233,0.001000,0.001000,0.001000,0.001000,0.001000
1016.634615,0.014645,0.001000,0.001000,0.001000,0.001000,0.001000
1016.653846,0.016044,0.001000,0.001000,0.001000,0.001000,0.001000
1016.673077,0.017429,0.001000,0.001000,0.001000,0.001000,0.001000
1016.692308,0.018799,0.001000,0.001000,0.001000,0.001000,0.001000
1016.711538,0.020152,0.001000,0.001000,0.001000,0.001000,0.001000
1016.730769,0.021489,0.001000,0.001000,0.001000,0.001000,0.001000
1016.750000,0.022807,0.001000,0.001000,0.001000,0.001000,0.001000
1016.769231,0.024105,0.001000,0.001000,0.001000,0.001000,0.001000
1016.788462,0.025382,0.001000,0.001000,0.001000,0.001000,0.001000
1016.807692,0.026637,0.001000,0.001000,0.001000,0.001000,0.001000
1016.826923,0.027870,0.001000,0.001000,0.001000,0.001000,0.001000
1016.846154,0.029078,0.001000,0.001000,0.001000,0.001000,0.001000
1016.865385,0.030261,0.001000,0.001000,0.001000,0.001000,0.001000
1016.884615,0.031418,0.001000,0.001000,0.001000,0.001000,0.001000
1016.903846,0.032547,0.001000,0.001000,0.001000,0.001000,0.001000
1016.923077,0.033649,0.001000,0.001000,0.001000,0.001000,0.001000
1016.942308,0.034722,0.001000,0.001000,0.001000,0.001000,0.001000
1016.961538,0.035764,0.001000,0.001000,0.001000,0.001000,0.001000
1016.980769,0.036776,0.001000,0.001000,0.001000,0.001000,0.001000
1017.000000,0.037756,0.001000,0.001000,0.001000,0.001000,0.001000
1017.019231,0.038703,0.001000,0.001000,0.001000,0.001000,0.001000
1017.038462,0.039617,0.001000,0.001000,0.001000,0.001000,0.001000
1017.057692,0.040496,0.001000,0.001000,0.001000,0.001000,0.001000
1017.076923,0.041341,0.001000,0.001000,0.001000,0.001000,0.001000
1017.096154,0.042150,0.001000,0.001000,0.001000,0.001000,0.001000
1017.115385,0.042922,0.001000,0.001000,0.001000,0.001000,0.001000
1017.134615,0.043657,0.001000,0.001000,0.001000,0.001000,0.001000
1017.153846,0.044355,0.001000,0.001000,0.001000,0.001000,0.001000
1017.173077,0.045014,0.001000,0.001000,0.001000,0.001000,0.001000
1017.192308,0.045634,0.001000,0.001000,0.001000,0.001000,0.001000
1017.211538,0.046215,0.001000,0.001000,0.001000,0.001000,0.001000
1017.230769,0.046756,0.001000,0.001000,0.001000,0.001000,0.001000
1017.250000,0.047257,0.001000,0.001000,0.001000,0.001000,0.001000
1017.269231,0.047717,0.001000,0.001000,0.001000,0.001000,0.001000
1017.288462,0.048135,0.001000,0.001000,0.001000,0.001000,0.001000
1017.307692,0.048512,0.001000,0.001000,0.001000,0.001000,0.001000
1017.326923,0.048847,0.001000,0.001000,0.001000,0.001000,0.001000
1017.346154,0.049140,0.001000,0.001000,0.001000,0.001000,0.001000
1017.365385,0.049390,0.001000,0.001000,0.001000,0.001000,0.001000
1017.384615,0.049597,0.001000,0.001000,0.001000,0.001000,0.001000
1017.403846,0.049762,0.001000,0.001000,0.001000,0.001000,0.001000
1017.423077,0.049884,0.001000,0.001000,0.001000,0.001000,0.001000
1017.442308,0.049962,0.001000,0.001000,0.001000,0.001000,0.001000
1017.461538,0.049998,0.001000,0.001000,0.001000,0.001000,0.001000
1017.480769,0.049990,0.001000,0.001000,0.001000,0.001000,0.001000
1017.500000,0.049939,0.001000,0.001000,0.001000,0.001000,0.001000
1017.519231,0.049845,0.001000,0.001000,0.001000,0.001000,0.001000
1017.538462,0.049708,0.001000,0.001000,0.001000,0.001000,0.001000
1017.557692,0.049527,0.001000,0.001000,0.001000,0.001000,0.001000
1017.576923,0.049304,0.001000,0.001000,0.001000,0.001000,0.001000
1017.596154,0.049039,0.001000,0.001000,0.001000,0.001000,0.001000
1017.615385,0.048731,0.001000,0.001000,0.001000,0.001000,0.001000
1017.634615,0.048381,0.001000,0.001000,0.001000,0.001000,0.001000
1017.653846,0.047989,0.001000,0.001000,0.001000,0.001000,0.001000
1017.673077,0.047555,0.001000,0.001000,0.001000,0.001000,0.001000
1017.692308,0.047081,0.001000,0.001000,0.001000,0.001000,0.001000
1017.711538,0.046566,0.001000,0.001000,0.001000,0.001000,0.001000
1017.730769,0.046010,0.001000,0.001000,0.001000,0.001000,0.001000
1017.750000,0.045415,0.001000,0.001000,0.001000,0.001000,0.001000
1017.769231,0.044781,0.001000,0.001000,0.001000,0.001000,0.001000
1017.788462,0.044108,0.001000,0.001000,0.001000,0.001000,0.001000
1017.807692,0.043396,0.001000,0.001000,0.001000,0.001000,0.001000
1017.826923,0.042648,0.001000,0.001000,0.001000,0.001000,0.001000
1017.846154,0.041862,0.001000,0.001000,0.001000,0.001000,0.001000
1017.865385,0.041040,0.001000,0.001000,0.001000,0.001000,0.001000
1017.884615,0.040183,0.001000,0.001000,0.001000,0.001000,0.001000
1017.903846,0.039291,0.001000,0.001000,0.001000,0.001000,0.001000
1017.923077,0.038365,0.001000,0.001000,0.001000,0.001000,0.001000
1017.942308,0.037406,0.001000,0.001000,0.001000,0.001000,0.001000
1017.961538,0.036414,0.001000,0.001000,0.001000,0.001000,0.001000
1017.980769,0.035392,0.001000,0.001000,0.001000,0.001000,0.001000
1018.000000,0.034338,0.001000,0.001000,0.001000,0.001000,0.001000
1018.019231,0.033255,0.001000,0.001000,0.001000,0.001000,0.001000
1018.038462,0.032143,0.001000,0.001000,0.001000,0.001000,0.001000
1018.057692,0.031003,0.001000,0.001000,0.001000,0.001000,0.001000
1018.076923,0.029837,0.001000,0.001000,0.001000,0.001000,0.001000
1018.096154,0.028645,0.001000,0.001000,0.001000,0.001000,0.001000
1018.115385,0.027428,0.001000,0.001000,0.001000,0.001000,0.001000
1018.134615,0.026187,0.001000,0.001000,0.001000,0.001000,0.001000
1018.153846,0.024924,0.001000,0.001000,0.001000,0.001000,0.001000
1018.173077,0.023639,0.001000,0.001000,0.001000,0.001000,0.001000
1018.192308,0.022333,0.001000,0.001000,0.001000,0.001000,0.001000
1018.211538,0.021009,0.001000,0.001000,0.001000,0.001000,0.001000
1018.230769,0.019666,0.001000,0.001000,0.001000,0.001000,0.001000
1018.250000,0.018306,0.001000,0.001000,0.001000,0.001000,0.001000
1018.269231,0.016931,0.001000,0.001000,0.001000,0.001000,0.001000
1018.288462,0.015540,0.001000,0.001000,0.001000,0.001000,0.001000
1018.307692,0.014137,0.001000,0.001000,0.001000,0.001000,0.001000
1018.326923,0.012721,0.001000,0.001000,0.001000,0.001000,0.001000
1018.346154,0.011294,0.001000,0.001000,0.001000,0.001000,0.001000
1018.365385,0.009857,0.001000,0.001000,0.001000,0.001000,0.001000
1018.384615,0.008412,0.001000,0.001000,0.001000,0.001000,0.001000
1018.403846,0.006960,0.001000,0.001000,0.001000,0.001000,0.001000
1018.423077,0.005501,0.001000,0.001000,0.001000,0.001000,0.001000
1018.442308,0.004038,0.001000,0.001000,0.001000,0.001000,0.001000
1018.461538,0.002571,0.001000,0.001000,0.001000,0.001000,0.001000
1018.480769,0.001103,0.001000,0.001000,0.001000,0.001000,0.001000
1018.500000,-0.000367,0.001000,0.001000,0.001000,0.001000,0.001000
1018.519231,-0.001837,0.001000,0.001000,0.001000,0.001000,0.001000
1018.538462,-0.003305,0.001000,0.001000,0.001000,0.001000,0.001000
1018.557692,-0.004770,0.001000,0.001000,0.001000,0.001000,0.001000
1018.576923,-0.006231,0.001000,0.001000,0.001000,0.001000,0.001000
1018.596154,-0.007686,0.001000,0.001000,0.001000,0.001000,0.001000
1018.615385,-0.009135,0.001000,0.001000,0.001000,0.001000,0.001000
1018.634615,-0.010576,0.001000,0.001000,0.001000,0.001000,0.001000
1018.653846,-0.012008,0.001000,0.001000,0.001000,0.001000,0.001000
1018.673077,-0.013430,0.001000,0.001000,0.001000,0.001000,0.001000
1018.692308,-0.014840,0.001000,0.001000,0.001000,0.001000,0.001000
1018.711538,-0.016237,0.001000,0.001000,0.001000,0.001000,0.001000
1018.730769,-0.017620,0.001000,0.001000,0.001000,0.001000,0.001000
1018.750000,-0.018988,0.001000,0.001000,0.001000,0.001000,0.001000
1018.769231,-0.020339,0.001000,0.001000,0.001000,0.001000,0.001000
1018.788462,-0.021673,0.001000,0.001000,0.001000,0.001000,0.001000
1018.807692,-0.022988,0.001000,0.001000,0.001000,0.001000,0.001000
1018.826923,-0.024283,0.001000,0.001000,0.001000,0.001000,0.001000
1018.846154,-0.025558,0.001000,0.001000,0.001000,0.001000,0.001000
1018.865385,-0.026810,0.001000,0.001000,0.001000,0.001000,0.001000
1018.884615,-0.028039,0.001000,0.001000,0.001000,0.001000,0.001000
1018.903846,-0.029244,0.001000,0.001000,0.001000,0.001000,0.001000
1018.923077,-0.030423,0.001000,0.001000,0.001000,0.001000,0.001000
1018.942308,-0.031576,0.001000,0.001000,0.001000,0.001000,0.001000
1018.961538,-0.032702,0.001000,0.001000,0.001000,0.001000,0.001000
1018.980769,-0.033800,0.001000,0.001000,0.001000,0.001000,0.001000
1019.000000,-0.034868,0.001000,0.001000,0.001000,0.001000,0.001000
1019.019231,-0.035907,0.001000,0.001000,0.001000,0.001000,0.001000
1019.038462,-0.036914,0.001000,0.001000,0.001000,0.001000,0.001000
1019.057692,-0.037889,0.001000,0.001000,0.001000,0.001000,0.001000
1019.076923,-0.038832,0.001000,0.001000,0.001000,0.001000,0.001000
1019.096154,-0.039741,0.001000,0.001000,0.001000,0.001000,0.001000
1019.115385,-0.040616,0.001000,0.001000,0.001000,0.001000,0.001000
1019.134615,-0.041455,0.001000,0.001000,0.001000,0.001000,0.001000
1019.153846,-0.042259,0.001000,0.001000,0.001000,0.001000,0.001000
1019.173077,-0.043026,0.001000,0.001000,0.001000,0.001000,0.001000
1019.192308,-0.043756,0.001000,0.001000,0.001000,0.001000,0.001000
1019.211538,-0.044449,0.001000,0.001000,0.001000,0.001000,0.001000
1019.230769,-0.045103,0.001000,0.001000,0.001000,0.001000,0.001000
1019.250000,-0.045717,0.001000,0.001000,0.001000,0.001000,0.001000
1019.269231,-0.046293,0.001000,0.001000,0.001000,0.001000,0.001000
1019.288462,-0.046828,0.001000,0.001000,0.001000,0.001000,0.001000
1019.307692,-0.047323,0.001000,0.001000,0.001000,0.001000,0.001000
1019.326923,-0.047777,0.001000,0.001000,0.001000,0.001000,0.001000
1019.346154,-0.048190,0.001000,0.001000,0.001000,0.001000,0.001000
1019.365385,-0.048561,0.001000,0.001000,0.001000,0.001000,0.001000
1019.384615,-0.048890,0.001000,0.001000,0.001000,0.001000,0.001000
1019.403846,-0.049177,0.001000,0.001000,0.001000,0.001000,0.001000
1019.423077,-0.049421,0.001000,0.001000,0.001000,0.001000,0.001000
1019.442308,-0.049623,0.001000,0.001000,0.001000,0.001000,0.001000
1019.461538,-0.049782,0.001000,0.001000,0.001000,0.001000,0.001000
1019.480769,-0.049897,0.001000,0.001000,0.001000,0.001000,0.001000
1019.500000,-0.049970,0.001000,0.001000,0.001000,0.001000,0.001000
1019.519231,-0.049999,0.001000,0.001000,0.001000,0.001000,0.001000
1019.538462,-0.049985,0.001000,0.001000,0.001000,0.001000,0.001000
1019.557692,-0.049929,0.001000,0.001000,0.001000,0.001000,0.001000
1019.576923,-0.049828,0.001000,0.001000,0.001000,0.001000,0.001000
1019.596154,-0.049685,0.001000,0.001000,0.001000,0.001000,0.001000
1019.615385,-0.049499,0.001000,0.001000,0.001000,0.001000,0.001000
1019.634615,-0.049270,0.001000,0.001000,0.001000,0.001000,0.001000
1019.653846,-0.048999,0.001000,0.001000,0.001000,0.001000,0.001000
1019.673077,-0.048685,0.001000,0.001000,0.001000,0.001000,0.001000
1019.692308,-0.048329,0.001000,0.001000,0.001000,0.001000,0.001000
1019.711538,-0.047931,0.001000,0.001000,0.001000,0.001000,0.001000
1019.730769,-0.047492,0.001000,0.001000,0.001000,0.001000,0.001000
1019.750000,-0.047012,0.001000,0.001000,0.001000,0.001000,0.001000
1019.769231,-0.046491,0.001000,0.001000,0.001000,0.001000,0.001000
1019.788462,-0.045930,0.001000,0.001000,0.001000,0.001000,0.001000
1019.807692,-0.045329,0.001000,0.001000,0.001000,0.001000,0.001000
1019.826923,-0.044690,0.001000,0.001000,0.001000,0.001000,0.001000
1019.846154,-0.044011,0.001000,0.001000,0.001000,0.001000,0.001000
1019.865385,-0.043295,0.001000,0.001000,0.001000,0.001000,0.001000
1019.884615,-0.042541,0.001000,0.001000,0.001000,0.001000,0.001000
1019.903846,-0.041750,0.001000,0.001000,0.001000,0.001000,0.001000
1019.923077,-0.040923,0.001000,0.001000,0.001000,0.001000,0.001000
1019.942308,-0.040061,0.001000,0.001000,0.001000,0.001000,0.001000
1019.961538,-0.039164,0.001000,0.001000,0.001000,0.001000,0.001000
1019.980769,-0.038234,0.001000,0.001000,0.001000,0.001000,0.001000
1020.000000,-0.037270,0.001000,0.001000,0.001000,0.001000,0.001000
1020.019231,-0.036274,0.001000,0.001000,0.001000,0.001000,0.001000
1020.038462,-0.035247,0.001000,0.001000,0.001000,0.001000,0.001000
1020.057692,-0.034189,0.001000,0.001000,0.001000,0.001000,0.001000
1020.076923,-0.033102,0.001000,0.001000,0.001000,0.001000,0.001000
1020.096154,-0.031986,0.001000,0.001000,0.001000,0.001000,0.001000
1020.115385,-0.030843,0.001000,0.001000,0.001000,0.001000,0.001000
1020.134615,-0.029673,0.001000,0.001000,0.001000,0.001000,0.001000
1020.153846,-0.028477,0.001000,0.001000,0.001000,0.001000,0.001000
1020.173077,-0.027257,0.001000,0.001000,0.001000,0.001000,0.001000
1020.192308,-0.026013,0.001000,0.001000,0.001000,0.001000,0.001000
1020.211538,-0.024746,0.001000,0.001000,0.001000,0.001000,0.001000
1020.230769,-0.023459,0.001000,0.001000,0.001000,0.001000,0.001000
1020.250000,-0.022151,0.001000,0.001000,0.001000,0.001000,0.001000
1020.269231,-0.020823,0.001000,0.001000,0.001000,0.001000,0.001000
1020.288462,-0.019478,0.001000,0.001000,0.001000,0.001000,0.001000
1020.307692,-0.018116,0.001000,0.001000,0.001000,0.001000,0.001000
1020.326923,-0.016738,0.001000,0.001000,0.001000,0.001000,0.001000
1020.346154,-0.015346,0.001000,0.001000,0.001000,0.001000,0.001000
1020.365385,-0.013941,0.001000,0.001000,0.001000,0.001000,0.001000
1020.384615,-0.012523,0.001000,0.001000,0.001000,0.001000,0.001000
1020.403846,-0.011095,0.001000,0.001000,0.001000,0.001000,0.001000
1020.423077,-0.009657,0.001000,0.001000,0.001000,0.001000,0.001000
1020.442308,-0.008211,0.001000,0.001000,0.001000,0.001000,0.001000
1020.461538,-0.006758,0.001000,0.001000,0.001000,0.001000,0.001000
1020.480769,-0.005298,0.001000,0.001000,0.001000,0.001000,0.001000
1020.500000,-0.003835,0.001000,0.001000,0.001000,0.001000,0.001000
1020.519231,-0.002368,0.001000,0.001000,0.001000,0.001000,0.001000
1020.538462,-0.000899,0.001000,0.001000,0.001000,0.001000,0.001000
1020.557692,0.000571,0.001000,0.001000,0.001000,0.001000,0.001000
1020.576923,0.002041,0.001000,0.001000,0.001000,0.001000,0.001000
1020.596154,0.003508,0.001000,0.001000,0.001000,0.001000,0.001000
1020.615385,0.004973,0.001000,0.001000,0.001000,0.001000,0.001000
1020.634615,0.006433,0.001000,0.001000,0.001000,0.001000,0.001000
1020.653846,0.007888,0.001000,0.001000,0.001000,0.001000,0.001000
1020.673077,0.009336,0.001000,0.001000,0.001000,0.001000,0.001000
1020.692308,0.010776,0.001000,0.001000,0.001000,0.001000,0.001000
1020.711538,0.012206,0.001000,0.001000,0.001000,0.001000,0.001000
1020.730769,0.013626,0.001000,0.001000,0.001000,0.001000,0.001000
1020.750000,0.015034,0.001000,0.001000,0.001000,0.001000,0.001000
1020.769231,0.016430,0.001000,0.001000,0.001000,0.001000,0.001000
1020.788462,0.017811,0.001000,0.001000,0.001000,0.001000,0.001000
1020.807692,0.019176,0.001000,0.001000,0.001000,0.001000,0.001000
1020.826923,0.020525,0.001000,0.001000,0.001000,0.001000,0.001000
1020.846154,0.021857,0.001000,0.001000,0.001000,0.001000,0.001000
1020.865385,0.023169,0.001000,0.001000,0.001000,0.001000,0.001000
1020.884615,0.024462,0.001000,0.001000,0.001000,0.001000,0.001000
1020.903846,0.025733,0.001000,0.001000,0.001000,0.001000,0.001000
1020.923077,0.026982,0.001000,0.001000,0.001000,0.001000,0.001000
1020.942308,0.028208,0.001000,0.001000,0.001000,0.001000,0.001000
1020.961538,0.029409,0.001000,0.001000,0.001000,0.001000,0.001000
1020.980769,0.030585,0.001000,0.001000,0.001000,0.001000,0.001000
1021.000000,0.031734,0.001000,0.001000,0.001000,0.001000,0.001000
1021.019231,0.032856,0.001000,0.001000,0.001000,0.001000,0.001000
1021.038462,0.033950,0.001000,0.001000,0.001000,0.001000,0.001000
1021.057692,0.035014,0.001000,0.001000,0.001000,0.001000,0.001000
1021.076923,0.036048,0.001000,0.001000,0.001000,0.001000,0.001000
1021.096154,0.037051,0.001000,0.001000,0.001000,0.001000,0.001000
1021.115385,0.038022,0.001000,0.001000,0.001000,0.001000,0.001000
1021.134615,0.038960,0.001000,0.001000,0.001000,0.001000,0.001000
1021.153846,0.039864,0.001000,0.001000,0.001000,0.001000,0.001000
1021.173077,0.040734,0.001000,0.001000,0.001000,0.001000,0.001000
1021.192308,0.041569,0.001000,0.001000,0.001000,0.001000,0.001000
1021.211538,0.042368,0.001000,0.001000,0.001000,0.001000,0.001000
1021.230769,0.043130,0.001000,0.001000,0.001000,0.001000,0.001000
1021.250000,0.043855,0.001000,0.001000,0.001000,0.001000,0.001000
1021.269231,0.044542,0.001000,0.001000,0.001000,0.001000,0.001000
1021.288462,0.045190,0.001000,0.001000,0.001000,0.001000,0.001000
1021.307692,0.045800,0.001000,0.001000,0.001000,0.001000,0.001000
1021.326923,0.046370,0.001000,0.001000,0.001000,0.001000,0.001000
1021.346154,0.046899,0.001000,0.001000,0.001000,0.001000,0.001000
1021.365385,0.047389,0.001000,0.001000,0.001000,0.001000,0.001000
1021.384615,0.047837,0.001000,0.001000,0.001000,0.001000,0.001000
1021.403846,0.048244,0.001000,0.001000,0.001000,0.001000,0.001000
1021.423077,0.048609,0.001000,0.001000,0.001000,0.001000,0.001000
1021.442308,0.048932,0.001000,0.001000,0.001000,0.001000,0.001000
1021.461538,0.049213,0.001000,0.001000,0.001000,0.001000,0.001000
1021.480769,0.049452,0.001000,0.001000,0.001000,0.001000,0.001000
1021.500000,0.049647,0.001000,0.001000,0.001000,0.001000,0.001000
1021.519231,0.049800,0.001000,0.001000,0.001000,0.001000,0.001000
1021.538462,0.049910,0.001000,0.001000,0.001000,0.001000,0.001000
1021.557692,0.049977,0.001000,0.001000,0.001000,0.001000,0.001000
1021.576923,0.050000,0.001000,0.001000,0.001000,0.001000,0.001000
1021.596154,0.049980,0.001000,0.001000,0.001000,0.001000,0.001000
1021.615385,0.049917,0.001000,0.001000,0.001000,0.001000,0.001000
1021.634615,0.049811,0.001000,0.001000,0.001000,0.001000,0.001000
1021.653846,0.049662,0.001000,0.001000,0.001000,0.001000,0.001000
1021.673077,0.049470,0.001000,0.001000,0.001000,0.001000,0.001000
1021.692308,0.049235,0.001000,0.001000,0.001000,0.001000,0.001000
1021.711538,0.048958,0.001000,0.001000,0.001000,0.001000,0.001000
1021.730769,0.048638,0.001000,0.001000,0.001000,0.001000,0.001000
1021.750000,0.048276,0.001000,0.001000,0.001000,0.001000,0.001000
1021.769231,0.047873,0.001000,0.001000,0.001000,0.001000,0.001000
1021.788462,0.047428,0.001000,0.001000,0.001000,0.001000,0.001000
1021.807692,0.046942,0.001000,0.001000,0.001000,0.001000,0.001000
1021.826923,0.046416,0.001000,0.001000,0.001000,0.001000,0.001000
1021.846154,0.045849,0.001000,0.001000,0.001000,0.001000,0.001000
1021.865385,0.045243,0.001000,0.001000,0.001000,0.001000,0.001000
1021.884615,0.044598,0.001000,0.001000,0.001000,0.001000,0.001000
1021.903846,0.043914,0.001000,0.001000,0.001000,0.001000,0.001000
1021.923077,0.043192,0.001000,0.001000,0.001000,0.001000,0.001000
1021.942308,0.042433,0.001000,0.001000,0.001000,0.001000,0.001000
1021.961538,0.041637,0.001000,0.001000,0.001000,0.001000,0.001000
1021.980769,0.040806,0.001000,0.001000,0.001000,0.001000,0.001000
1022.000000,0.039939,0.001000,0.001000,0.001000,0.001000,0.001000
1022.019231,0.039037,0.001000,0.001000,0.001000,0.001000,0.001000
1022.038462,0.038102,0.001000,0.001000,0.001000,0.001000,0.001000
1022.057692,0.037134,0.001000,0.001000,0.001000,0.001000,0.001000
1022.076923,0.036133,0.001000,0.001000,0.001000,0.001000,0.001000
1022.096154,0.035102,0.001000,0.001000,0.001000,0.001000,0.001000
1022.115385,0.034040,0.001000,0.001000,0.001000,0.001000,0.001000
1022.134615,0.032949,0.001000,0.001000,0.001000,0.001000,0.001000
1022.153846,0.031829,0.001000,0.001000,0.001000,0.001000,0.001000
1022.173077,0.030682,0.001000,0.001000,0.001000,0.001000,0.001000
1022.192308,0.029508,0.001000,0.001000,0.001000,0.001000,0.001000
1022.211538,0.028309,0.001000,0.001000,0.001000,0.001000,0.001000
1022.230769,0.027085,0.001000,0.001000,0.001000,0.001000,0.001000
1022.250000,0.025838,0.001000,0.001000,0.001000,0.001000,0.001000
1022.269231,0.024569,0.001000,0.001000,0.001000,0.001000,0.001000
1022.288462,0.023278,0.001000,0.001000,0.001000,0.001000,0.001000
1022.307692,0.021967,0.001000,0.001000,0.001000,0.001000,0.001000
1022.326923,0.020638,0.001000,0.001000,0.001000,0.001000,0.001000
1022.346154,0.019290,0.001000,0.001000,0.001000,0.001000,0.001000
1022.365385,0.017926,0.001000,0.001000,0.001000,0.001000,0.001000
1022.384615,0.016546,0.001000,0.001000,0.001000,0.001000,0.001000
1022.403846,0.015152,0.001000,0.001000,0.001000,0.001000,0.001000
1022.423077,0.013745,0.001000,0.001000,0.001000,0.001000,0.001000
1022.442308,0.012326,0.001000,0.001000,0.001000,0.001000,0.001000
1022.461538,0.010896,0.001000,0.001000,0.001000,0.001000,0.001000
1022.480769,0.009457,0.001000,0.001000,0.001000,0.001000,0.001000
1022.500000,0.008009,0.001000,0.001000,0.001000,0.001000,0.001000
1022.519231,0.006555,0.001000,0.001000,0.001000,0.001000,0.001000
1022.538462,0.005095,0.001000,0.001000,0.001000,0.001000,0.001000
1022.557692,0.003631,0.001000,0.001000,0.001000,0.001000,0.001000
1022.576923,0.002164,0.001000,0.001000,0.001000,0.001000,0.001000
1022.596154,0.000694,0.001000,0.001000,0.001000,0.001000,0.001000
1022.615385,-0.000775,0.001000,0.001000,0.001000,0.001000,0.001000
1022.634615,-0.002245,0.001000,0.001000,0.001000,0.001000,0.001000
1022.653846,-0.003712,0.001000,0.001000,0.001000,0.001000,0.001000
1022.673077,-0.005176,0.001000,0.001000,0.001000,0.001000,0.001000
1022.692308,-0.006636,0.001000,0.001000,0.001000,0.001000,0.001000
1022.711538,-0.008090,0.001000,0.001000,0.001000,0.001000,0.001000
1022.730769,-0.009536,0.001000,0.001000,0.001000,0.001000,0.001000
1022.750000,-0.010975,0.001000,0.001000,0.001000,0.001000,0.001000
1022.769231,-0.012404,0.001000,0.001000,0.001000,0.001000,0.001000
1022.788462,-0.013823,0.001000,0.001000,0.001000,0.001000,0.001000
1022.807692,-0.015229,0.001000,0.001000,0.001000,0.001000,0.001000
1022.826923,-0.016622,0.001000,0.001000,0.001000,0.001000,0.001000
1022.846154,-0.018001,0.001000,0.001000,0.001000,0.001000,0.001000
1022.865385,-0.019365,0.001000,0.001000,0.001000,0.001000,0.001000
1022.884615,-0.020711,0.001000,0.001000,0.001000,0.001000,0.001000
1022.903846,-0.022040,0.001000,0.001000,0.001000,0.001000,0.001000
1022.923077,-0.023350,0.001000,0.001000,0.001000,0.001000,0.001000
1022.942308,-0.024639,0.001000,0.001000,0.001000,0.001000,0.001000
1022.961538,-0.025908,0.001000,0.001000,0.001000,0.001000,0.001000
1022.980769,-0.027153,0.001000,0.001000,0.001000,0.001000,0.001000
1023.000000,-0.028376,0.001000,0.001000,0.001000,0.001000,0.001000
1023.019231,-0.029574,0.001000,0.001000,0.001000,0.001000,0.001000
1023.038462,-0.030746,0.001000,0.001000,0.001000,0.001000,0.001000
1023.057692,-0.031892,0.001000,0.001000,0.001000,0.001000,0.001000
1023.076923,-0.033010,0.001000,0.001000,0.001000,0.001000,0.001000
1023.096154,-0.034100,0.001000,0.001000,0.001000,0.001000,0.001000
1023.115385,-0.035160,0.001000,0.001000,0.001000,0.001000,0.001000
1023.134615,-0.036189,0.001000,0.001000,0.001000,0.001000,0.001000
1023.153846,-0.037188,0.001000,0.001000,0.001000,0.001000,0.001000
1023.173077,-0.038154,0.001000,0.001000,0.001000,0.001000,0.001000
1023.192308,-0.039088,0.001000,0.001000,0.001000,0.001000,0.001000
1023.211538,-0.039987,0.001000,0.001000,0.001000,0.001000,0.001000
1023.230769,-0.040852,0.001000,0.001000,0.001000,0.001000,0.001000
1023.250000,-0.041682,0.001000,0.001000,0.001000,0.001000,0.001000
1023.269231,-0.042476,0.001000,0.001000,0.001000,0.001000,0.001000
1023.288462,-0.043233,0.001000,0.001000,0.001000,0.001000,0.001000
1023.307692,-0.043953,0.001000,0.001000,0.001000,0.001000,0.001000
1023.326923,-0.044634,0.001000,0.001000,0.001000,0.001000,0.001000
1023.346154,-0.045277,0.001000,0.001000,0.001000,0.001000,0.001000
1023.365385,-0.045881,0.001000,0.001000,0.001000,0.001000,0.001000
1023.384615,-0.046446,0.001000,0.001000,0.001000,0.001000,0.001000
1023.403846,-0.046970,0.001000,0.001000,0.001000,0.001000,0.001000
1023.423077,-0.047453,0.001000,0.001000,0.001000,0.001000,0.001000
1023.442308,-0.047896,0.001000,0.001000,0.001000,0.001000,0.001000
1023.461538,-0.048297,0.001000,0.001000,0.001000,0.001000,0.001000
1023.480769,-0.048657,0.001000,0.001000,0.001000,0.001000,0.001000
1023.500000,-0.048974,0.001000,0.001000,0.001000,0.001000,0.001000
1023.519231,-0.049249,0.001000,0.001000,0.001000,0.001000,0.001000
1023.538462,-0.049481,0.001000,0.001000,0.001000,0.001000,0.001000
1023.557692,-0.049671,0.001000,0.001000,0.001000,0.001000,0.001000
1023.576923,-0.049818,0.001000,0.001000,0.001000,0.001000,0.001000
1023.596154,-0.049922,0.001000,0.001000,0.001000,0.001000,0.001000
1023.615385,-0.049982,0.001000,0.001000,0.001000,0.001000,0.001000
1023.634615,-0.050000,0.001000,0.001000,0.001000,0.001000,0.001000
1023.653846,-0.049974,0.001000,0.001000,0.001000,0.001000,0.001000
1023.673077,-0.049905,0.001000,0.001000,0.001000,0.001000,0.001000
1023.692308,-0.049793,0.001000,0.001000,0.001000,0.001000,0.001000
1023.711538,-0.049638,0.001000,0.001000,0.001000,0.001000,0.001000
1023.730769,-0.049440,0.001000,0.001000,0.001000,0.001000,0.001000
1023.750000,-0.049199,0.001000,0.001000,0.001000,0.001000,0.001000
1023.769231,-0.048916,0.001000,0.001000,0.001000,0.001000,0.001000
1023.788462,-0.048590,0.001000,0.001000,0.001000,0.001000,0.001000
1023.807692,-0.048223,0.001000,0.001000,0.001000,0.001000,0.001000
1023.826923,-0.047813,0.001000,0.001000,0.001000,0.001000,0.001000
1023.846154,-0.047363,0.001000,0.001000,0.001000,0.001000,0.001000
1023.865385,-0.046871,0.001000,0.001000,0.001000,0.001000,0.001000
1023.884615,-0.046339,0.001000,0.001000,0.001000,0.001000,0.001000
1023.903846,-0.045767,0.001000,0.001000,0.001000,0.001000,0.001000
1023.923077,-0.045156,0.001000,0.001000,0.001000,0.001000,0.001000
1023.942308,-0.044505,0.001000,0.001000,0.001000,0.001000,0.001000
1023.961538,-0.043816,0.001000,0.001000,0.001000,0.001000,0.001000
1023.980769,-0.043089,0.001000,0.001000,0.001000,0.001000,0.001000
1024.000000,-0.042325,0.001000,0.001000,0.001000,0.001000,0.001000
1024.019231,-0.041524,0.001000,0.001000,0.001000,0.001000,0.001000
1024.038462,-0.040687,0.001000,0.001000,0.001000,0.001000,0.001000
1024.057692,-0.039815,0.001000,0.001000,0.001000,0.001000,0.001000
1024.076923,-0.038909,0.001000,0.001000,0.001000,0.001000,0.001000
1024.096154,-0.037969,0.001000,0.001000,0.001000,0.001000,0.001000
1024.115385,-0.036997,0.001000,0.001000,0.001000,0.001000,0.001000
1024.134615,-0.035992,0.001000,0.001000,0.001000,0.001000,0.001000
1024.153846,-0.034956,0.001000,0.001000,0.001000,0.001000,0.001000
1024.173077,-0.033890,0.001000,0.001000,0.001000,0.001000,0.001000
1024.192308,-0.032795,0.001000,0.001000,0.001000,0.001000,0.001000
1024.211538,-0.031672,0.001000,0.001000,0.001000,0.001000,0.001000
1024.230769,-0.030521,0.001000,0.001000,0.001000,0.001000,0.001000
1024.250000,-0.029343,0.001000,0.001000,0.001000,0.001000,0.001000
1024.269231,-0.028141,0.001000,0.001000,0.001000,0.001000,0.001000
1024.288462,-0.026914,0.001000,0.001000,0.001000,0.001000,0.001000
1024.307692,-0.025663,0.001000,0.001000,0.001000,0.001000,0.001000
1024.326923,-0.024391,0.001000,0.001000,0.001000,0.001000,0.001000
1024.346154,-0.023097,0.001000,0.001000,0.001000,0.001000,0.001000
1024.365385,-0.021784,0.001000,0.001000,0.001000,0.001000,0.001000
1024.384615,-0.020451,0.001000,0.001000,0.001000,0.001000,0.001000
1024.403846,-0.019101,0.001000,0.001000,0.001000,0.001000,0.001000
1024.423077,-0.017735,0.001000,0.001000,0.001000,0.001000,0.001000
1024.442308,-0.016353,0.001000,0.001000,0.001000,0.001000,0.001000
1024.461538,-0.014957,0.001000,0.001000,0.001000,0.001000,0.001000
1024.480769,-0.013548,0.001000,0.001000,0.001000,0.001000,0.001000
1024.500000,-0.012128,0.001000,0.001000,0.001000,0.001000,0.001000
1024.519231,-0.010697,0.001000,0.001000,0.001000,0.001000,0.001000
1024.538462,-0.009256,0.001000,0.001000,0.001000,0.001000,0.001000
1024.557692,-0.007808,0.001000,0.001000,0.001000,0.001000,0.001000
1024.576923,-0.006353,0.001000,0.001000,0.001000,0.001000,0.001000
1024.596154,-0.004892,0.001000,0.001000,0.001000,0.001000,0.001000
1024.615385,-0.003427,0.001000,0.001000,0.001000,0.001000,0.001000
1024.634615,-0.001960,0.001000,0.001000,0.001000,0.001000,0.001000
1024.653846,-0.000490,0.001000,0.001000,0.001000,0.001000,0.001000
1024.673077,0.000980,0.001000,0.001000,0.001000,0.001000,0.001000
1024.692308,0.002449,0.001000,0.001000,0.001000,0.001000,0.001000
1024.711538,0.003916,0.001000,0.001000,0.001000,0.001000,0.001000
1024.730769,0.005379,0.001000,0.001000,0.001000,0.001000,0.001000
1024.750000,0.006838,0.001000,0.001000,0.001000,0.001000,0.001000
1024.769231,0.008291,0.001000,0.001000,0.001000,0.001000,0.001000
1024.788462,0.009737,0.001000,0.001000,0.001000,0.001000,0.001000
1024.807692,0.011174,0.001000,0.001000,0.001000,0.001000,0.001000
1024.826923,0.012602,0.001000,0.001000,0.001000,0.001000,0.001000
1024.846154,0.014019,0.001000,0.001000,0.001000,0.001000,0.001000
1024.865385,0.015423,0.001000,0.001000,0.001000,0.001000,0.001000
1024.884615,0.016815,0.001000,0.001000,0.001000,0.001000,0.001000
1024.903846,0.018192,0.001000,0.001000,0.001000,0.001000,0.001000
1024.923077,0.019553,0.001000,0.001000,0.001000,0.001000,0.001000
1024.942308,0.020897,0.001000,0.001000,0.001000,0.001000,0.001000
1024.961538,0.022223,0.001000,0.001000,0.001000,0.001000,0.001000
1024.980769,0.023530,0.001000,0.001000,0.001000,0.001000,0.001000
1025.000000,0.024817,0.001000,0.001000,0.001000,0.001000,0.001000
1025.019231,0.026082,0.001000,0.001000,0.001000,0.001000,0.001000
1025.038462,0.027325,0.001000,0.001000,0.001000,0.001000,0.001000
1025.057692,0.028544,0.001000,0.001000,0.001000,0.001000,0.001000
1025.076923,0.029738,0.001000,0.001000,0.001000,0.001000,0.001000
1025.096154,0.030907,0.001000,0.001000,0.001000,0.001000,0.001000
1025.115385,0.032049,0.001000,0.001000,0.001000,0.001000,0.001000
1025.134615,0.033163,0.001000,0.001000,0.001000,0.001000,0.001000
1025.153846,0.034249,0.001000,0.001000,0.001000,0.001000,0.001000
1025.173077,0.035305,0.001000,0.001000,0.001000,0.001000,0.001000
1025.192308,0.036330,0.001000,0.001000,0.001000,0.001000,0.001000
1025.211538,0.037324,0.001000,0.001000,0.001000,0.001000,0.001000
1025.230769,0.038286,0.001000,0.001000,0.001000,0.001000,0.001000
1025.250000,0.039215,0.001000,0.001000,0.001000,0.001000,0.001000
1025.269231,0.040110,0.001000,0.001000,0.001000,0.001000,0.001000
1025.288462,0.040970,0.001000,0.001000,0.001000,0.001000,0.001000
1025.307692,0.041795,0.001000,0.001000,0.001000,0.001000,0.001000
1025.326923,0.042583,0.001000,0.001000,0.001000,0.001000,0.001000
1025.346154,0.043335,0.001000,0.001000,0.001000,0.001000,0.001000
1025.365385,0.044050,0.001000,0.001000,0.001000,0.001000,0.001000
1025.384615,0.044726,0.001000,0.001000,0.001000,0.001000,0.001000
1025.403846,0.045364,0.001000,0.001000,0.001000,0.001000,0.001000
1025.423077,0.045962,0.001000,0.001000,0.001000,0.001000,0.001000
1025.442308,0.046521,0.001000,0.001000,0.001000,0.001000,0.001000
1025.461538,0.047039,0.001000,0.001000,0.001000,0.001000,0.001000
1025.480769,0.047517,0.001000,0.001000,0.001000,0.001000,0.001000
1025.500000,0.047954,0.001000,0.001000,0.001000,0.001000,0.001000
1025.519231,0.048350,0.001000,0.001000,0.001000,0.001000,0.001000
1025.538462,0.048703,0.001000,0.001000,0.001000,0.001000,0.001000
1025.557692,0.049015,0.001000,0.001000,0.001000,0.001000,0.001000
1025.576923,0.049284,0.001000,0.001000,0.001000,0.001000,0.001000
1025.596154,0.049510,0.001000,0.001000,0.001000,0.001000,0.001000
1025.615385,0.049694,0.001000,0.001000,0.001000,0.001000,0.001000
1025.634615,0.049835,0.001000,0.001000,0.001000,0.001000,0.001000
1025.653846,0.049933,0.001000,0.001000,0.001000,0.001000,0.001000
1025.673077,0.049987,0.001000,0.001000,0.001000,0.001000,0.001000
1025.692308,0.049999,0.001000,0.001000,0.001000,0.001000,0.001000
1025.711538,0.049967,0.001000,0.001000,0.001000,0.001000,0.001000
1025.730769,0.049892,0.001000,0.001000,0.001000,0.001000,0.001000
1025.750000,0.049774,0.001000,0.001000,0.001000,0.001000,0.001000
1025.769231,0.049613,0.001000,0.001000,0.001000,0.001000,0.001000
1025.788462,0.049409,0.001000,0.001000,0.001000,0.001000,0.001000
1025.807692,0.049162,0.001000,0.001000,0.001000,0.001000,0.001000
1025.826923,0.048873,0.001000,0.001000,0.001000,0.001000,0.001000
1025.846154,0.048542,0.001000,0.001000,0.001000,0.001000,0.001000
1025.865385,0.048168,0.001000,0.001000,0.001000,0.001000,0.001000
1025.884615,0.047753,0.001000,0.001000,0.001000,0.001000,0.001000
1025.903846,0.047297,0.001000,0.001000,0.001000,0.001000,0.001000
1025.923077,0.046800,0.001000,0.001000,0.001000,0.001000,0.001000
1025.942308,0.046262,0.001000,0.001000,0.001000,0.001000,0.001000
1025.961538,0.045685,0.001000,0.001000,0.001000,0.001000,0.001000
1025.980769,0.045068,0.001000,0.001000,0.001000,0.001000,0.001000
1026.000000,0.044412,0.001000,0.001000,0.001000,0.001000,0.001000
1026.019231,0.043717,0.001000,0.001000,0.001000,0.001000,0.001000
1026.038462,0.042985,0.001000,0.001000,0.001000,0.001000,0.001000
1026.057692,0.042216,0.001000,0.001000,0.001000,0.001000,0.001000
1026.076923,0.041410,0.001000,0.001000,0.001000,0.001000,0.001000
1026.096154,0.040568,0.001000,0.001000,0.001000,0.001000,0.001000
1026.115385,0.039692,0.001000,0.001000,0.001000,0.001000,0.001000
1026.134615,0.038781,0.001000,0.001000,0.001000,0.001000,0.001000
1026.153846,0.037836,0.001000,0.001000,0.001000,0.001000,0.001000
1026.173077,0.036859,0.001000,0.001000,0.001000,0.001000,0.001000
1026.192308,0.035850,0.001000,0.001000,0.001000,0.001000,0.001000
1026.211538,0.034810,0.001000,0.001000,0.001000,0.001000,0.001000
1026.230769,0.033740,0.001000,0.001000,0.001000,0.001000,0.001000
1026.250000,0.032641,0.001000,0.001000,0.001000,0.001000,0.001000
1026.269231,0.031513,0.001000,0.001000,0.001000,0.001000,0.001000
1026.288462,0.030359,0.001000,0.001000,0.001000,0.001000,0.001000
1026.307692,0.029178,0.001000,0.001000,0.001000,0.001000,0.001000
1026.326923,0.027972,0.001000,0.001000,0.001000,0.001000,0.001000
1026.346154,0.026741,0.001000,0.001000,0.001000,0.001000,0.001000
1026.365385,0.025488,0.001000,0.001000,0.001000,0.001000,0.001000
1026.384615,0.024212,0.001000,0.001000,0.001000,0.001000,0.001000
1026.403846,0.022916,0.001000,0.001000,0.001000,0.001000,0.001000
1026.423077,0.021600,0.001000,0.001000,0.001000,0.001000,0.001000
1026.442308,0.020265,0.001000,0.001000,0.001000,0.001000,0.001000
1026.461538,0.018913,0.001000,0.001000,0.001000,0.001000,0.001000
1026.480769,0.017544,0.001000,0.001000,0.001000,0.001000,0.001000
1026.500000,0.016160,0.001000,0.001000,0.001000,0.001000,0.001000
1026.519231,0.014762,0.001000,0.001000,0.001000,0.001000,0.001000
1026.538462,0.013352,0.001000,0.001000,0.001000,0.001000,0.001000
1026.557692,0.011930,0.001000,0.001000,0.001000,0.001000,0.001000
1026.576923,0.010497,0.001000,0.001000,0.001000,0.001000,0.001000
1026.596154,0.009056,0.001000,0.001000,0.001000,0.001000,0.001000
1026.615385,0.007606,0.001000,0.001000,0.001000,0.001000,0.001000
1026.634615,0.006150,0.001000,0.001000,0.001000,0.001000,0.001000
1026.653846,0.004689,0.001000,0.001000,0.001000,0.001000,0.001000
1026.673077,0.003224,0.001000,0.001000,0.001000,0.001000,0.001000
1026.692308,0.001756,0.001000,0.001000,0.001000,0.001000,0.001000
1026.711538,0.000286,0.001000,0.001000,0.001000,0.001000,0.001000
1026.730769,-0.001184,0.001000,0.001000,0.001000,0.001000,0.001000
1026.750000,-0.002652,0.001000,0.001000,0.001000,0.001000,0.001000
1026.769231,-0.004119,0.001000,0.001000,0.001000,0.001000,0.001000
1026.788462,-0.005582,0.001000,0.001000,0.001000,0.001000,0.001000
1026.807692,-0.007040,0.001000,0.001000,0.001000,0.001000,0.001000
1026.826923,-0.008492,0.001000,0.001000,0.001000,0.001000,0.001000
1026.846154,-0.009937,0.001000,0.001000,0.001000,0.001000,0.001000
1026.865385,-0.011373,0.001000,0.001000,0.001000,0.001000,0.001000
1026.884615,-0.012799,0.001000,0.001000,0.001000,0.001000,0.001000
1026.903846,-0.014214,0.001000,0.001000,0.001000,0.001000,0.001000
1026.923077,-0.015617,0.001000,0.001000,0.001000,0.001000,0.001000
1026.942308,-0.017007,0.001000,0.001000,0.001000,0.001000,0.001000
1026.961538,-0.018382,0.001000,0.001000,0.001000,0.001000,0.001000
1026.980769,-0.019740,0.001000,0.001000,0.001000,0.001000,0.001000
1027.000000,-0.021082,0.001000,0.001000,0.001000,0.001000,0.001000
1027.019231,-0.022406,0.001000,0.001000,0.001000,0.001000,0.001000
1027.038462,-0.023710,0.001000,0.001000,0.001000,0.001000,0.001000
1027.057692,-0.024994,0.001000,0.001000,0.001000,0.001000,0.001000
1027.076923,-0.026256,0.001000,0.001000,0.001000,0.001000,0.001000
1027.096154,-0.027495,0.001000,0.001000,0.001000,0.001000,0.001000
1027.115385,-0.028711,0.001000,0.001000,0.001000,0.001000,0.001000
1027.134615,-0.029902,0.001000,0.001000,0.001000,0.001000,0.001000
1027.153846,-0.031067,0.001000,0.001000,0.001000,0.001000,0.001000
1027.173077,-0.032205,0.001000,0.001000,0.001000,0.001000,0.001000
1027.192308,-0.033315,0.001000,0.001000,0.001000,0.001000,0.001000
1027.211538,-0.034397,0.001000,0.001000,0.001000,0.001000,0.001000
1027.230769,-0.035449,0.001000,0.001000,0.001000,0.001000,0.001000
1027.250000,-0.036470,0.001000,0.001000,0.001000,0.001000,0.001000
1027.269231,-0.037460,0.001000,0.001000,0.001000,0.001000,0.001000
1027.288462,-0.038417,0.001000,0.001000,0.001000,0.001000,0.001000
1027.307692,-0.039341,0.001000,0.001000,0.001000,0.001000,0.001000
1027.326923,-0.040231,0.001000,0.001000,0.001000,0.001000,0.001000
1027.346154,-0.041086,0.001000,0.001000,0.001000,0.001000,0.001000
1027.365385,-0.041906,0.001000,0.001000,0.001000,0.001000,0.001000
1027.384615,-0.042690,0.001000,0.001000,0.001000,0.001000,0.001000
1027.403846,-0.043437,0.001000,0.001000,0.001000,0.001000,0.001000
1027.423077,-0.044146,0.001000,0.001000,0.001000,0.001000,0.001000
1027.442308,-0.044817,0.001000,0.001000,0.001000,0.001000,0.001000
1027.461538,-0.045449,0.001000,0.001000,0.001000,0.001000,0.001000
1027.480769,-0.046042,0.001000,0.001000,0.001000,0.001000,0.001000
1027.500000,-0.046595,0.001000,0.001000,0.001000,0.001000,0.001000
1027.519231,-0.047108,0.001000,0.001000,0.001000,0.001000,0.001000
1027.538462,-0.047580,0.001000,0.001000,0.001000,0.001000,0.001000
1027.557692,-0.048012,0.001000,0.001000,0.001000,0.001000,0.001000
1027.576923,-0.048401,0.001000,0.001000,0.001000,0.001000,0.001000
1027.596154,-0.048749,0.001000,0.001000,0.001000,0.001000,0.001000
1027.615385,-0.049055,0.001000,0.001000,0.001000,0.001000,0.001000
1027.634615,-0.049318,0.001000,0.001000,0.001000,0.001000,0.001000
1027.653846,-0.049538,0.001000,0.001000,0.001000,0.001000,0.001000
1027.673077,-0.049716,0.001000,0.001000,0.001000,0.001000,0.001000
1027.692308,-0.049851,0.001000,0.001000,0.001000,0.001000,0.001000
1027.711538,-0.049943,0.001000,0.001000,0.001000,0.001000,0.001000
1027.730769,-0.049992,0.001000,0.001000,0.001000,0.001000,0.001000
1027.750000,-0.049997,0.001000,0.001000,0.001000,0.001000,0.001000
1027.769231,-0.049959,0.001000,0.001000,0.001000,0.001000,0.001000
1027.788462,-0.049878,0.001000,0.001000,0.001000,0.001000,0.001000
1027.807692,-0.049754,0.001000,0.001000,0.001000,0.001000,0.001000
1027.826923,-0.049587,0.001000,0.001000,0.001000,0.001000,0.001000
1027.846154,-0.049377,0.001000,0.001000,0.001000,0.001000,0.001000
1027.865385,-0.049124,0.001000,0.001000,0.001000,0.001000,0.001000
1027.884615,-0.048829,0.001000,0.001000,0.001000,0.001000,0.001000
1027.903846,-0.048492,0.001000,0.001000,0.001000,0.001000,0.001000
1027.923077,-0.048113,0.001000,0.001000,0.001000,0.001000,0.001000
1027.942308,-0.047692,0.001000,0.001000,0.001000,0.001000,0.001000
1027.961538,-0.047230,0.001000,0.001000,0.001000,0.001000,0.001000
1027.980769,-0.046728,0.001000,0.001000,0.001000,0.001000,0.001000
1028.000000,-0.046184,0.001000,0.001000,0.001000,0.001000,0.001000
1028.019231,-0.045601,0.001000,0.001000,0.001000,0.001000,0.001000
1028.038462,-0.044979,0.001000,0.001000,0.001000,0.001000,0.001000
1028.057692,-0.044317,0.001000,0.001000,0.001000,0.001000,0.001000
1028.076923,-0.043618,0.001000,0.001000,0.001000,0.001000,0.001000
1028.096154,-0.042880,0.001000,0.001000,0.001000,0.001000,0.001000
1028.115385,-0.042106,0.001000,0.001000,0.001000,0.001000,0.001000
1028.134615,-0.041295,0.001000,0.001000,0.001000,0.001000,0.001000
1028.153846,-0.040449,0.001000,0.001000,0.001000,0.001000,0.001000
1028.173077,-0.039567,0.001000,0.001000,0.001000,0.001000,0.001000
1028.192308,-0.038652,0.001000,0.001000,0.001000,0.001000,0.001000
1028.211538,-0.037703,0.001000,0.001000,0.001000,0.001000,0.001000
1028.230769,-0.036721,0.001000,0.001000,0.001000,0.001000,0.001000
1028.250000,-0.035708,0.001000,0.001000,0.001000,0.001000,0.001000
1028.269231,-0.034663,0.001000,0.001000,0.001000,0.001000,0.001000
1028.288462,-0.033589,0.001000,0.001000,0.001000,0.001000,0.001000
1028.307692,-0.032486,0.001000,0.001000,0.001000,0.001000,0.001000
1028.326923,-0.031355,0.001000,0.001000,0.001000,0.001000,0.001000
1028.346154,-0.030196,0.001000,0.001000,0.001000,0.001000,0.001000
1028.365385,-0.029012,0.001000,0.001000,0.001000,0.001000,0.001000
1028.384615,-0.027802,0.001000,0.001000,0.001000,0.001000,0.001000
1028.403846,-0.026569,0.001000,0.001000,0.001000,0.001000,0.001000
1028.423077,-0.025312,0.001000,0.001000,0.001000,0.001000,0.001000
1028.442308,-0.024034,0.001000,0.001000,0.001000,0.001000,0.001000
1028.461538,-0.022734,0.001000,0.001000,0.001000,0.001000,0.001000
1028.480769,-0.021416,0.001000,0.001000,0.001000,0.001000,0.001000
1028.500000,-0.020078,0.001000,0.001000,0.001000,0.001000,0.001000
1028.519231,-0.018724,0.001000,0.001000,0.001000,0.001000,0.001000
1028.538462,-0.017353,0.001000,0.001000,0.001000,0.001000,0.001000
1028.557692,-0.015967,0.001000,0.001000,0.001000,0.001000,0.001000
1028.576923,-0.014567,0.001000,0.001000,0.001000,0.001000,0.001000
1028.596154,-0.013155,0.001000,0.001000,0.001000,0.001000,0.001000
1028.615385,-0.011731,0.001000,0.001000,0.001000,0.001000,0.001000
1028.634615,-0.010297,0.001000,0.001000,0.001000,0.001000,0.001000
1028.653846,-0.008855,0.001000,0.001000,0.001000,0.001000,0.001000
1028.673077,-0.007404,0.001000,0.001000,0.001000,0.001000,0.001000
1028.692308,-0.005948,0.001000,0.001000,0.001000,0.001000,0.001000
1028.711538,-0.004486,0.001000,0.001000,0.001000,0.001000,0.001000
1028.730769,-0.003020,0.001000,0.001000,0.001000,0.001000,0.001000
1028.750000,-0.001552,0.001000,0.001000,0.001000,0.001000,0.001000
1028.769231,-0.000082,0.001000,0.001000,0.001000,0.001000,0.001000
1028.788462,0.001388,0.001000,0.001000,0.001000,0.001000,0.001000
1028.807692,0.002856,0.001000,0.001000,0.001000,0.001000,0.001000
1028.826923,0.004322,0.001000,0.001000,0.001000,0.001000,0.001000
1028.846154,0.005785,0.001000,0.001000,0.001000,0.001000,0.001000
1028.865385,0.007242,0.001000,0.001000,0.001000,0.001000,0.001000
1028.884615,0.008693,0.001000,0.001000,0.001000,0.001000,0.001000
1028.903846,0.010137,0.001000,0.001000,0.001000,0.001000,0.001000
1028.923077,0.011572,0.001000,0.001000,0.001000,0.001000,0.001000
1028.942308,0.012996,0.001000,0.001000,0.001000,0.001000,0.001000
1028.961538,0.014410,0.001000,0.001000,0.001000,0.001000,0.001000
1028.980769,0.015811,0.001000,0.001000,0.001000,0.001000,0.001000
1029.000000,0.017199,0.001000,0.001000,0.001000,0.001000,0.001000
1029.019231,0.018571,0.001000,0.001000,0.001000,0.001000,0.001000
1029.038462,0.019928,0.001000,0.001000,0.001000,0.001000,0.001000
1029.057692,0.021267,0.001000,0.001000,0.001000,0.001000,0.001000
1029.076923,0.022588,0.001000,0.001000,0.001000,0.001000,0.001000
1029.096154,0.023890,0.001000,0.001000,0.001000,0.001000,0.001000
1029.115385,0.025170,0.001000,0.001000,0.001000,0.001000,0.001000
1029.134615,0.026429,0.001000,0.001000,0.001000,0.001000,0.001000
1029.153846,0.027666,0.001000,0.001000,0.001000,0.001000,0.001000
1029.173077,0.028878,0.001000,0.001000,0.001000,0.001000,0.001000
1029.192308,0.030065,0.001000,0.001000,0.001000,0.001000,0.001000
1029.211538,0.031227,0.001000,0.001000,0.001000,0.001000,0.001000
1029.230769,0.032361,0.001000,0.001000,0.001000,0.001000,0.001000
1029.250000,0.033467,0.001000,0.001000,0.001000,0.001000,0.001000
1029.269231,0.034545,0.001000,0.001000,0.001000,0.001000,0.001000
1029.288462,0.035592,0.001000,0.001000,0.001000,0.001000,0.001000
1029.307692,0.036609,0.001000,0.001000,0.001000,0.001000,0.001000
1029.326923,0.037595,0.001000,0.001000,0.001000,0.001000,0.001000
1029.346154,0.038547,0.001000,0.001000,0.001000,0.001000,0.001000
1029.365385,0.039467,0.001000,0.001000,0.001000,0.001000,0.001000
1029.384615,0.040352,0.001000,0.001000,0.001000,0.001000,0.001000
1029.403846,0.041202,0.001000,0.001000,0.001000,0.001000,0.001000
1029.423077,0.042017,0.001000,0.001000,0.001000,0.001000,0.001000
1029.442308,0.042796,0.001000,0.001000,0.001000,0.001000,0.001000
1029.461538,0.043537,0.001000,0.001000,0.001000,0.001000,0.001000
1029.480769,0.044241,0.001000,0.001000,0.001000,0.001000,0.001000
1029.500000,0.044907,0.001000,0.001000,0.001000,0.001000,0.001000
1029.519231,0.045534,0.001000,0.001000,0.001000,0.001000,0.001000
1029.538462,0.046121,0.001000,0.001000,0.001000,0.001000,0.001000
1029.557692,0.046669,0.001000,0.001000,0.001000,0.001000,0.001000
1029.576923,0.047176,0.001000,0.001000,0.001000,0.001000,0.001000
1029.596154,0.047643,0.001000,0.001000,0.001000,0.001000,0.001000
1029.615385,0.048068,0.001000,0.001000,0.001000,0.001000,0.001000
1029.634615,0.048452,0.001000,0.001000,0.001000,0.001000,0.001000
1029.653846,0.048794,0.001000,0.001000,0.001000,0.001000,0.001000
1029.673077,0.049094,0.001000,0.001000,0.001000,0.001000,0.001000
1029.692308,0.049351,0.001000,0.001000,0.001000,0.001000,0.001000
1029.711538,0.049566,0.001000,0.001000,0.001000,0.001000,0.001000
1029.730769,0.049738,0.001000,0.001000,0.001000,0.001000,0.001000
1029.750000,0.049866,0.001000,0.001000,0.001000,0.001000,0.001000
1029.769231,0.049952,0.001000,0.001000,0.001000,0.001000,0.001000
1029.788462,0.049995,0.001000,0.001000,0.001000,0.001000,0.001000
1029.807692,0.049994,0.001000,0.001000,0.001000,0.001000,0.001000
1029.826923,0.049951,0.001000,0.001000,0.001000,0.001000,0.001000
1029.846154,0.049864,0.001000,0.001000,0.001000,0.001000,0.001000
1029.865385,0.049733,0.001000,0.001000,0.001000,0.001000,0.001000
1029.884615,0.049560,0.001000,0.001000,0.001000,0.001000,0.001000
1029.903846,0.049345,0.001000,0.001000,0.001000,0.001000,0.001000
1029.923077,0.049086,0.001000,0.001000,0.001000,0.001000,0.001000
1029.942308,0.048785,0.001000,0.001000,0.001000,0.001000,0.001000
1029.961538,0.048442,0.001000,0.001000,0.001000,0.001000,0.001000
1029.980769,0.048057,0.001000,0.001000,0.001000,0.001000,0.001000
1030.000000,0.000000,0.001000,0.001000,0.001000,0.001000,0.001000
1030.019231,0.001506,0.001000,0.001000,0.001000,0.001000,0.001000
1030.038462,0.003011,0.001000,0.001000,0.001000,0.001000,0.001000
1030.057692,0.004513,0.001000,0.001000,0.001000,0.001000,0.001000
1030.076923,0.006011,0.001000,0.001000,0.001000,0.001000,0.001000
1030.096154,0.007503,0.001000,0.001000,0.001000,0.001000,0.001000
1030.115385,0.008989,0.001000,0.001000,0.001000,0.001000,0.001000
1030.134615,0.010466,0.001000,0.001000,0.001000,0.001000,0.001000
1030.153846,0.011934,0.001000,0.001000,0.001000,0.001000,0.001000
1030.173077,0.013392,0.001000,0.001000,0.001000,0.001000,0.001000
1030.192308,0.014837,0.001000,0.001000,0.001000,0.001000,0.001000
1030.211538,0.016268,0.001000,0.001000,0.001000,0.001000,0.001000
1030.230769,0.017685,0.001000,0.001000,0.001000,0.001000,0.001000
1030.250000,0.019086,0.001000,0.001000,0.001000,0.001000,0.001000
1030.269231,0.020469,0.001000,0.001000,0.001000,0.001000,0.001000
1030.288462,0.021834,0.001000,0.001000,0.001000,0.001000,0.001000
1030.307692,0.023179,0.001000,0.001000,0.001000,0.001000,0.001000
1030.326923,0.024503,0.001000,0.001000,0.001000,0.001000,0.001000
1030.346154,0.025805,0.001000,0.001000,0.001000,0.001000,0.001000
1030.365385,0.027083,0.001000,0.001000,0.001000,0.001000,0.001000
1030.384615,0.028337,0.001000,0.001000,0.001000,0.001000,0.001000
1030.403846,0.029565,0.001000,0.001000,0.001000,0.001000,0.001000
1030.423077,0.030766,0.001000,0.001000,0.001000,0.001000,0.001000
1030.442308,0.031939,0.001000,0.001000,0.001000,0.001000,0.001000
1030.461538,0.033083,0.001000,0.001000,0.001000,0.001000,0.001000
1030.480769,0.034198,0.001000,0.001000,0.001000,0.001000,0.001000
1030.500000,0.035281,0.001000,0.001000,0.001000,0.001000,0.001000
1030.519231,0.036332,0.001000,0.001000,0.001000,0.001000,0.001000
1030.538462,0.037350,0.001000,0.001000,0.001000,0.001000,0.001000
1030.557692,0.038335,0.001000,0.001000,0.001000,0.001000,0.001000
1030.576923,0.039284,0.001000,0.001000,0.001000,0.001000,0.001000
1030.596154,0.040198,0.001000,0.001000,0.001000,0.001000,0.001000
1030.615385,0.041076,0.001000,0.001000,0.001000,0.001000,0.001000
1030.634615,0.041916,0.001000,0.001000,0.001000,0.001000,0.001000
1030.653846,0.042718,0.001000,0.001000,0.001000,0.001000,0.001000
1030.673077,0.043481,0.001000,0.001000,0.001000,0.001000,0.001000
1030.692308,0.044205,0.001000,0.001000,0.001000,0.001000,0.001000
1030.711538,0.044889,0.001000,0.001000,0.001000,0.001000,0.001000
1030.730769,0.045532,0.001000,0.001000,0.001000,0.001000,0.001000
1030.750000,0.046133,0.001000,0.001000,0.001000,0.001000,0.001000
1030.769231,0.046693,0.001000,0.001000,0.001000,0.001000,0.001000
1030.788462,0.047211,0.001000,0.001000,0.001000,0.001000,0.001000
1030.807692,0.047685,0.001000,0.001000,0.001000,0.001000,0.001000
1030.826923,0.048117,0.001000,0.001000,0.001000,0.001000,0.001000
1030.846154,0.048504,0.001000,0.001000,0.001000,0.001000,0.001000
1030.865385,0.048848,0.001000,0.001000,0.001000,0.001000,0.001000
1030.884615,0.049147,0.001000,0.001000,0.001000,0.001000,0.001000
1030.903846,0.049402,0.001000,0.001000,0.001000,0.001000,0.001000
1030.923077,0.049612,0.001000,0.001000,0.001000,0.001000,0.001000
1030.942308,0.049777,0.001000,0.001000,0.001000,0.001000,0.001000
1030.961538,0.049896,0.001000,0.001000,0.001000,0.001000,0.001000
1030.980769,0.049971,0.001000,0.001000,0.001000,0.001000,0.001000
1031.000000,0.050000,0.001000,0.001000,0.001000,0.001000,0.001000
1031.019231,0.049983,0.001000,0.001000,0.001000,0.001000,0.001000
1031.038462,0.049921,0.001000,0.001000,0.001000,0.001000,0.001000
1031.057692,0.049814,0.001000,0.001000,0.001000,0.001000,0.001000
1031.076923,0.049662,0.001000,0.001000,0.001000,0.001000,0.001000
1031.096154,0.049465,0.001000,0.001000,0.001000,0.001000,0.001000
1031.115385,0.049223,0.001000,0.001000,0.001000,0.001000,0.001000
1031.134615,0.048936,0.001000,0.001000,0.001000,0.001000,0.001000
1031.153846,0.048605,0.001000,0.001000,0.001000,0.001000,0.001000
1031.173077,0.048229,0.001000,0.001000,0.001000,0.001000,0.001000
1031.192308,0.047810,0.001000,0.001000,0.001000,0.001000,0.001000
1031.211538,0.047347,0.001000,0.001000,0.001000,0.001000,0.001000
1031.230769,0.046842,0.001000,0.001000,0.001000,0.001000,0.001000
1031.250000,0.046294,0.001000,0.001000,0.001000,0.001000,0.001000
1031.269231,0.045704,0.001000,0.001000,0.001000,0.001000,0.001000
1031.288462,0.045072,0.001000,0.001000,0.001000,0.001000,0.001000
1031.307692,0.044400,0.001000,0.001000,0.001000,0.001000,0.001000
1031.326923,0.043687,0.001000,0.001000,0.001000,0.001000,0.001000
1031.346154,0.042935,0.001000,0.001000,0.001000,0.001000,0.001000
1031.365385,0.042143,0.001000,0.001000,0.001000,0.001000,0.001000
1031.384615,0.041314,0.001000,0.001000,0.001000,0.001000,0.001000
1031.403846,0.040447,0.001000,0.001000,0.001000,0.001000,0.001000
1031.423077,0.039543,0.001000,0.001000,0.001000,0.001000,0.001000
1031.442308,0.038603,0.001000,0.001000,0.001000,0.001000,0.001000
1031.461538,0.037629,0.001000,0.001000,0.001000,0.001000,0.001000
1031.480769,0.036620,0.001000,0.001000,0.001000,0.001000,0.001000
1031.500000,0.035578,0.001000,0.001000,0.001000,0.001000,0.001000
1031.519231,0.034503,0.001000,0.001000,0.001000,0.001000,0.001000
1031.538462,0.033397,0.001000,0.001000,0.001000,0.001000,0.001000
1031.557692,0.032261,0.001000,0.001000,0.001000,0.001000,0.001000
1031.576923,0.031096,0.001000,0.001000,0.001000,0.001000,0.001000
1031.596154,0.029903,0.001000,0.001000,0.001000,0.001000,0.001000
1031.615385,0.028682,0.001000,0.001000,0.001000,0.001000,0.001000
1031.634615,0.027435,0.001000,0.001000,0.001000,0.001000,0.001000
1031.653846,0.026164,0.001000,0.001000,0.001000,0.001000,0.001000
1031.673077,0.024868,0.001000,0.001000,0.001000,0.001000,0.001000
1031.692308,0.023551,0.001000,0.001000,0.001000,0.001000,0.001000
1031.711538,0.022211,0.001000,0.001000,0.001000,0.001000,0.001000
1031.730769,0.020852,0.001000,0.001000,0.001000,0.001000,0.001000
1031.750000,0.019473,0.001000,0.001000,0.001000,0.001000,0.001000
1031.769231,0.018077,0.001000,0.001000,0.001000,0.001000,0.001000
1031.788462,0.016665,0.001000,0.001000,0.001000,0.001000,0.001000
1031.807692,0.015237,0.001000,0.001000,0.001000,0.001000,0.001000
1031.826923,0.013796,0.001000,0.001000,0.001000,0.001000,0.001000
1031.846154,0.012342,0.001000,0.001000,0.001000,0.001000,0.001000
1031.865385,0.010877,0.001000,0.001000,0.001000,0.001000,0.001000
1031.884615,0.009402,0.001000,0.001000,0.001000,0.001000,0.001000
1031.903846,0.007919,0.001000,0.001000,0.001000,0.001000,0.001000
1031.923077,0.006428,0.001000,0.001000,0.001000,0.001000,0.001000
1031.942308,0.004931,0.001000,0.001000,0.001000,0.001000,0.001000
1031.961538,0.003430,0.001000,0.001000,0.001000,0.001000,0.001000
1031.980769,0.001926,0.001000,0.001000,0.001000,0.001000,0.001000
1032.000000,0.000420,0.001000,0.001000,0.001000,0.001000,0.001000
1032.019231,-0.001086,0.001000,0.001000,0.001000,0.001000,0.001000
1032.038462,-0.002591,0.001000,0.001000,0.001000,0.001000,0.001000
1032.057692,-0.004094,0.001000,0.001000,0.001000,0.001000,0.001000
1032.076923,-0.005593,0.001000,0.001000,0.001000,0.001000,0.001000
1032.096154,-0.007087,0.001000,0.001000,0.001000,0.001000,0.001000
1032.115385,-0.008575,0.001000,0.001000,0.001000,0.001000,0.001000
1032.134615,-0.010055,0.001000,0.001000,0.001000,0.001000,0.001000
1032.153846,-0.011526,0.001000,0.001000,0.001000,0.001000,0.001000
1032.173077,-0.012986,0.001000,0.001000,0.001000,0.001000,0.001000
1032.192308,-0.014435,0.001000,0.001000,0.001000,0.001000,0.001000
1032.211538,-0.015870,0.001000,0.001000,0.001000,0.001000,0.001000
1032.230769,-0.017291,0.001000,0.001000,0.001000,0.001000,0.001000
1032.250000,-0.018696,0.001000,0.001000,0.001000,0.001000,0.001000
1032.269231,-0.020085,0.001000,0.001000,0.001000,0.001000,0.001000
1032.288462,-0.021455,0.001000,0.001000,0.001000,0.001000,0.001000
1032.307692,-0.022806,0.001000,0.001000,0.001000,0.001000,0.001000
1032.326923,-0.024136,0.001000,0.001000,0.001000,0.001000,0.001000
1032.346154,-0.025444,0.001000,0.001000,0.001000,0.001000,0.001000
1032.365385,-0.026729,0.001000,0.001000,0.001000,0.001000,0.001000
1032.384615,-0.027989,0.001000,0.001000,0.001000,0.001000,0.001000
1032.403846,-0.029225,0.001000,0.001000,0.001000,0.001000,0.001000
1032.423077,-0.030433,0.001000,0.001000,0.001000,0.001000,0.001000
1032.442308,-0.031615,0.001000,0.001000,0.001000,0.001000,0.001000
1032.461538,-0.032767,0.001000,0.001000,0.001000,0.001000,0.001000
1032.480769,-0.033890,0.001000,0.001000,0.001000,0.001000,0.001000
1032.500000,-0.034982,0.001000,0.001000,0.001000,0.001000,0.001000
1032.519231,-0.036042,0.001000,0.001000,0.001000,0.001000,0.001000
1032.538462,-0.037070,0.001000,0.001000,0.001000,0.001000,0.001000
1032.557692,-0.038063,0.001000,0.001000,0.001000,0.001000,0.001000
1032.576923,-0.039023,0.001000,0.001000,0.001000,0.001000,0.001000
1032.596154,-0.039947,0.001000,0.001000,0.001000,0.001000,0.001000
1032.615385,-0.040834,0.001000,0.001000,0.001000,0.001000,0.001000
1032.634615,-0.041685,0.001000,0.001000,0.001000,0.001000,0.001000
1032.653846,-0.042498,0.001000,0.001000,0.001000,0.001000,0.001000
1032.673077,-0.043272,0.001000,0.001000,0.001000,0.001000,0.001000
1032.692308,-0.044007,0.001000,0.001000,0.001000,0.001000,0.001000
1032.711538,-0.044702,0.001000,0.001000,0.001000,0.001000,0.001000
1032.730769,-0.045356,0.001000,0.001000,0.001000,0.001000,0.001000
1032.750000,-0.045970,0.001000,0.001000,0.001000,0.001000,0.001000
1032.769231,-0.046541,0.001000,0.001000,0.001000,0.001000,0.001000
1032.788462,-0.047071,0.001000,0.001000,0.001000,0.001000,0.001000
1032.807692,-0.047557,0.001000,0.001000,0.001000,0.001000,0.001000
1032.826923,-0.048001,0.001000,0.001000,0.001000,0.001000,0.001000
1032.846154,-0.048400,0.001000,0.001000,0.001000,0.001000,0.001000
1032.865385,-0.048756,0.001000,0.001000,0.001000,0.001000,0.001000
1032.884615,-0.049068,0.001000,0.001000,0.001000,0.001000,0.001000
1032.903846,-0.049335,0.001000,0.001000,0.001000,0.001000,0.001000
1032.923077,-0.049558,0.001000,0.001000,0.001000,0.001000,0.001000
1032.942308,-0.049735,0.001000,0.001000,0.001000,0.001000,0.001000
1032.961538,-0.049867,0.001000,0.001000,0.001000,0.001000,0.001000
1032.980769,-0.049954,0.001000,0.001000,0.001000,0.001000,0.001000
1033.000000,-0.049996,0.001000,0.001000,0.001000,0.001000,0.001000
1033.019231,-0.049992,0.001000,0.001000,0.001000,0.001000,0.001000
1033.038462,-0.049943,0.001000,0.001000,0.001000,0.001000,0.001000
1033.057692,-0.049849,0.001000,0.001000,0.001000,0.001000,0.001000
1033.076923,-0.049709,0.001000,0.001000,0.001000,0.001000,0.001000
1033.096154,-0.049524,0.001000,0.001000,0.001000,0.001000,0.001000
1033.115385,-0.049295,0.001000,0.001000,0.001000,0.001000,0.001000
1033.134615,-0.049020,0.001000,0.001000,0.001000,0.001000,0.001000
1033.153846,-0.048701,0.001000,0.001000,0.001000,0.001000,0.001000
1033.173077,-0.048338,0.001000,0.001000,0.001000,0.001000,0.001000
1033.192308,-0.047931,0.001000,0.001000,0.001000,0.001000,0.001000
1033.211538,-0.047481,0.001000,0.001000,0.001000,0.001000,0.001000
1033.230769,-0.046987,0.001000,0.001000,0.001000,0.001000,0.001000
1033.250000,-0.046451,0.001000,0.001000,0.001000,0.001000,0.001000
1033.269231,-0.045873,0.001000,0.001000,0.001000,0.001000,0.001000
1033.288462,-0.045253,0.001000,0.001000,0.001000,0.001000,0.001000
1033.307692,-0.044592,0.001000,0.001000,0.001000,0.001000,0.001000
1033.326923,-0.043890,0.001000,0.001000,0.001000,0.001000,0.001000
1033.346154,-0.043149,0.001000,0.001000,0.001000,0.001000,0.001000
1033.365385,-0.042368,0.001000,0.001000,0.001000,0.001000,0.001000
1033.384615,-0.041549,0.001000,0.001000,0.001000,0.001000,0.001000
1033.403846,-0.040692,0.001000,0.001000,0.001000,0.001000,0.001000
1033.423077,-0.039799,0.001000,0.001000,0.001000,0.001000,0.001000
1033.442308,-0.038869,0.001000,0.001000,0.001000,0.001000,0.001000
1033.461538,-0.037904,0.001000,0.001000,0.001000,0.001000,0.001000
1033.480769,-0.036905,0.001000,0.001000,0.001000,0.001000,0.001000
1033.500000,-0.035872,0.001000,0.001000,0.001000,0.001000,0.001000
1033.519231,-0.034806,0.001000,0.001000,0.001000,0.001000,0.001000
1033.538462,-0.033709,0.001000,0.001000,0.001000,0.001000,0.001000
1033.557692,-0.032581,0.001000,0.001000,0.001000,0.001000,0.001000
1033.576923,-0.031424,0.001000,0.001000,0.001000,0.001000,0.001000
1033.596154,-0.030239,0.001000,0.001000,0.001000,0.001000,0.001000
1033.615385,-0.029025,0.001000,0.001000,0.001000,0.001000,0.001000
1033.634615,-0.027786,0.001000,0.001000,0.001000,0.001000,0.001000
1033.653846,-0.026521,0.001000,0.001000,0.001000,0.001000,0.001000
1033.673077,-0.025232,0.001000,0.001000,0.001000,0.001000,0.001000
1033.692308,-0.023921,0.001000,0.001000,0.001000,0.001000,0.001000
1033.711538,-0.022587,0.001000,0.001000,0.001000,0.001000,0.001000
1033.730769,-0.021233,0.001000,0.001000,0.001000,0.001000,0.001000
1033.750000,-0.019860,0.001000,0.001000,0.001000,0.001000,0.001000
1033.769231,-0.018469,0.001000,0.001000,0.001000,0.001000,0.001000
1033.788462,-0.017061,0.001000,0.001000,0.001000,0.001000,0.001000
1033.807692,-0.015637,0.001000,0.001000,0.001000,0.001000,0.001000
1033.826923,-0.014200,0.001000,0.001000,0.001000,0.001000,0.001000
1033.846154,-0.012749,0.001000,0.001000,0.001000,0.001000,0.001000
1033.865385,-0.011287,0.001000,0.001000,0.001000,0.001000,0.001000
1033.884615,-0.009815,0.001000,0.001000,0.001000,0.001000,0.001000
1033.903846,-0.008333,0.001000,0.001000,0.001000,0.001000,0.001000
1033.923077,-0.006845,0.001000,0.001000,0.001000,0.001000,0.001000
1033.942308,-0.005350,0.001000,0.001000,0.001000,0.001000,0.001000
1033.961538,-0.003850,0.001000,0.001000,0.001000,0.001000,0.001000
1033.980769,-0.002346,0.001000,0.001000,0.001000,0.001000,0.001000
1034.000000,-0.000841,0.001000,0.001000,0.001000,0.001000,0.001000
1034.019231,0.000666,0.001000,0.001000,0.001000,0.001000,0.001000
1034.038462,0.002171,0.001000,0.001000,0.001000,0.001000,0.001000
1034.057692,0.003675,0.001000,0.001000,0.001000,0.001000,0.001000
1034.076923,0.005175,0.001000,0.001000,0.001000,0.001000,0.001000
1034.096154,0.006671,0.001000,0.001000,0.001000,0.001000,0.001000
1034.115385,0.008161,0.001000,0.001000,0.001000,0.001000,0.001000
1034.134615,0.009643,0.001000,0.001000,0.001000,0.001000,0.001000
1034.153846,0.011116,0.001000,0.001000,0.001000,0.001000,0.001000
1034.173077,0.012580,0.001000,0.001000,0.001000,0.001000,0.001000
1034.192308,0.014032,0.001000,0.001000,0.001000,0.001000,0.001000
1034.211538,0.015471,0.001000,0.001000,0.001000,0.001000,0.001000
1034.230769,0.016896,0.001000,0.001000,0.001000,0.001000,0.001000
1034.250000,0.018306,0.001000,0.001000,0.001000,0.001000,0.001000
1034.269231,0.019699,0.001000,0.001000,0.001000,0.001000,0.001000
1034.288462,0.021074,0.001000,0.001000,0.001000,0.001000,0.001000
1034.307692,0.022431,0.001000,0.001000,0.001000,0.001000,0.001000
1034.326923,0.023767,0.001000,0.001000,0.001000,0.001000,0.001000
1034.346154,0.025081,0.001000,0.001000,0.001000,0.001000,0.001000
1034.365385,0.026372,0.001000,0.001000,0.001000,0.001000,0.001000
1034.384615,0.027640,0.001000,0.001000,0.001000,0.001000,0.001000
1034.403846,0.028883,0.001000,0.001000,0.001000,0.001000,0.001000
1034.423077,0.030099,0.001000,0.001000,0.001000,0.001000,0.001000
1034.442308,0.031288,0.001000,0.001000,0.001000,0.001000,0.001000
1034.461538,0.032448,0.001000,0.001000,0.001000,0.001000,0.001000
1034.480769,0.033580,0.001000,0.001000,0.001000,0.001000,0.001000
1034.500000,0.034680,0.001000,0.001000,0.001000,0.001000,0.001000
1034.519231,0.035749,0.001000,0.001000,0.001000,0.001000,0.001000
1034.538462,0.036786,0.001000,0.001000,0.001000,0.001000,0.001000
1034.557692,0.037790,0.001000,0.001000,0.001000,0.001000,0.001000
1034.576923,0.038759,0.001000,0.001000,0.001000,0.001000,0.001000
1034.596154,0.039693,0.001000,0.001000,0.001000,0.001000,0.001000
1034.615385,0.040590,0.001000,0.001000,0.001000,0.001000,0.001000
1034.634615,0.041451,0.001000,0.001000,0.001000,0.001000,0.001000
1034.653846,0.042275,0.001000,0.001000,0.001000,0.001000,0.001000
1034.673077,0.043060,0.001000,0.001000,0.001000,0.001000,0.001000
