timestamp,ax,ay,az,gx,gy,gz
1000.000000,0.000000,0.001000,0.001000,0.001000,0.001000,0.001000
1000.019231,0.001422,0.001000,0.001000,0.001000,0.001000,0.001000
1000.038462,0.002844,0.001000,0.001000,0.001000,0.001000,0.001000
1000.057692,0.004263,0.001000,0.001000,0.001000,0.001000,0.001000
1000.076923,0.005678,0.001000,0.001000,0.001000,0.001000,0.001000
1000.096154,0.007089,0.001000,0.001000,0.001000,0.001000,0.001000
1000.115385,0.008495,0.001000,0.001000,0.001000,0.001000,0.001000
1000.134615,0.009893,0.001000,0.001000,0.001000,0.001000,0.001000
1000.153846,0.011283,0.001000,0.001000,0.001000,0.001000,0.001000
1000.173077,0.012665,0.001000,0.001000,0.001000,0.001000,0.001000
1000.192308,0.014036,0.001000,0.001000,0.001000,0.001000,0.001000
1000.211538,0.015395,0.001000,0.001000,0.001000,0.001000,0.001000
1000.230769,0.016742,0.001000,0.001000,0.001000,0.001000,0.001000
1000.250000,0.018076,0.001000,0.001000,0.001000,0.001000,0.001000
1000.269231,0.019395,0.001000,0.001000,0.001000,0.001000,0.001000
1000.288462,0.020698,0.001000,0.001000,0.001000,0.001000,0.001000
1000.307692,0.021985,0.001000,0.001000,0.001000,0.001000,0.001000
1000.326923,0.023253,0.001000,0.001000,0.001000,0.001000,0.001000
1000.346154,0.024503,0.001000,0.001000,0.001000,0.001000,0.001000
1000.365385,0.025733,0.001000,0.001000,0.001000,0.001000,0.001000
1000.384615,0.026942,0.001000,0.001000,0.001000,0.001000,0.001000
1000.403846,0.028130,0.001000,0.001000,0.001000,0.001000,0.001000
1000.423077,0.029294,0.001000,0.001000,0.001000,0.001000,0.001000
1000.442308,0.030435,0.001000,0.001000,0.001000,0.001000,0.001000
1000.461538,0.031552,0.001000,0.001000,0.001000,0.001000,0.001000
1000.480769,0.032642,0.001000,0.001000,0.001000,0.001000,0.001000
1000.500000,0.033707,0.001000,0.001000,0.001000,0.001000,0.001000
1000.519231,0.034744,0.001000,0.001000,0.001000,0.001000,0.001000
1000.538462,0.035753,0.001000,0.001000,0.001000,0.001000,0.001000
1000.557692,0.036733,0.001000,0.001000,0.001000,0.001000,0.001000
1000.576923,0.037683,0.001000,0.001000,0.001000,0.001000,0.001000
1000.596154,0.038602,0.001000,0.001000,0.001000,0.001000,0.001000
1000.615385,0.039491,0.001000,0.001000,0.001000,0.001000,0.001000
1000.634615,0.040347,0.001000,0.001000,0.001000,0.001000,0.001000
1000.653846,0.041171,0.001000,0.001000,0.001000,0.001000,0.001000
1000.673077,0.041962,0.001000,0.001000,0.001000,0.001000,0.001000
1000.692308,0.042718,0.001000,0.001000,0.001000,0.001000,0.001000
1000.711538,0.043440,0.001000,0.001000,0.001000,0.001000,0.001000
1000.730769,0.044127,0.001000,0.001000,0.001000,0.001000,0.001000
1000.750000,0.044778,0.001000,0.001000,0.001000,0.001000,0.001000
1000.769231,0.045393,0.001000,0.001000,0.001000,0.001000,0.001000
1000.788462,0.045971,0.001000,0.001000,0.001000,0.001000,0.001000
1000.807692,0.046512,0.001000,0.001000,0.001000,0.001000,0.001000
1000.826923,0.047015,0.001000,0.001000,0.001000,0.001000,0.001000
1000.846154,0.047480,0.001000,0.001000,0.001000,0.001000,0.001000
1000.865385,0.047907,0.001000,0.001000,0.001000,0.001000,0.001000
1000.884615,0.048295,0.001000,0.001000,0.001000,0.001000,0.001000
1000.903846,0.048643,0.001000,0.001000,0.001000,0.001000,0.001000
1000.923077,0.048953,0.001000,0.001000,0.001000,0.001000,0.001000
1000.942308,0.049223,0.001000,0.001000,0.001000,0.001000,0.001000
1000.961538,0.049452,0.001000,0.001000,0.001000,0.001000,0.001000
1000.980769,0.049642,0.001000,0.001000,0.001000,0.001000,0.001000
1001.000000,0.049792,0.001000,0.001000,0.001000,0.001000,0.001000
1001.019231,0.049902,0.001000,0.001000,0.001000,0.001000,0.001000
1001.038462,0.049971,0.001000,0.001000,0.001000,0.001000,0.001000
1001.057692,0.049999,0.001000,0.001000,0.001000,0.001000,0.001000
1001.076923,0.049987,0.001000,0.001000,0.001000,0.001000,0.001000
1001.096154,0.049935,0.001000,0.001000,0.001000,0.001000,0.001000
1001.115385,0.049842,0.001000,0.001000,0.001000,0.001000,0.001000
1001.134615,0.049709,0.001000,0.001000,0.001000,0.001000,0.001000
1001.153846,0.049536,0.001000,0.001000,0.001000,0.001000,0.001000
1001.173077,0.049322,0.001000,0.001000,0.001000,0.001000,0.001000
1001.192308,0.049069,0.001000,0.001000,0.001000,0.001000,0.001000
1001.211538,0.048775,0.001000,0.001000,0.001000,0.001000,0.001000
1001.230769,0.048443,0.001000,0.001000,0.001000,0.001000,0.001000
1001.250000,0.048071,0.001000,0.001000,0.001000,0.001000,0.001000
1001.269231,0.047660,0.001000,0.001000,0.001000,0.001000,0.001000
1001.288462,0.047211,0.001000,0.001000,0.001000,0.001000,0.001000
1001.307692,0.046723,0.001000,0.001000,0.001000,0.001000,0.001000
1001.326923,0.046198,0.001000,0.001000,0.001000,0.001000,0.001000
1001.346154,0.045635,0.001000,0.001000,0.001000,0.001000,0.001000
1001.365385,0.045035,0.001000,0.001000,0.001000,0.001000,0.001000
1001.384615,0.044399,0.001000,0.001000,0.001000,0.001000,0.001000
1001.403846,0.043727,0.001000,0.001000,0.001000,0.001000,0.001000
1001.423077,0.043020,0.001000,0.001000,0.001000,0.001000,0.001000
1001.442308,0.042277,0.001000,0.001000,0.001000,0.001000,0.001000
1001.461538,0.041501,0.001000,0.001000,0.001000,0.001000,0.001000
1001.480769,0.040690,0.001000,0.001000,0.001000,0.001000,0.001000
1001.500000,0.039847,0.001000,0.001000,0.001000,0.001000,0.001000
1001.519231,0.038972,0.001000,0.001000,0.001000,0.001000,0.001000
1001.538462,0.038065,0.001000,0.001000,0.001000,0.001000,0.001000
1001.557692,0.037127,0.001000,0.001000,0.001000,0.001000,0.001000
1001.576923,0.036159,0.001000,0.001000,0.001000,0.001000,0.001000
1001.596154,0.035162,0.001000,0.001000,0.001000,0.001000,0.001000
1001.615385,0.034137,0.001000,0.001000,0.001000,0.001000,0.001000
1001.634615,0.033084,0.001000,0.001000,0.001000,0.001000,0.001000
1001.653846,0.032004,0.001000,0.001000,0.001000,0.001000,0.001000
1001.673077,0.030898,0.001000,0.001000,0.001000,0.001000,0.001000
1001.692308,0.029767,0.001000,0.001000,0.001000,0.001000,0.001000
1001.711538,0.028612,0.001000,0.001000,0.001000,0.001000,0.001000
1001.730769,0.027434,0.001000,0.001000,0.001000,0.001000,0.001000
1001.750000,0.026233,0.001000,0.001000,0.001000,0.001000,0.001000
1001.769231,0.025012,0.001000,0.001000,0.001000,0.001000,0.001000
1001.788462,0.023770,0.001000,0.001000,0.001000,0.001000,0.001000
1001.807692,0.022509,0.001000,0.001000,0.001000,0.001000,0.001000
1001.826923,0.021230,0.001000,0.001000,0.001000,0.001000,0.001000
1001.846154,0.019933,0.001000,0.001000,0.001000,0.001000,0.001000
1001.865385,0.018620,0.001000,0.001000,0.001000,0.001000,0.001000
1001.884615,0.017293,0.001000,0.001000,0.001000,0.001000,0.001000
1001.903846,0.015951,0.001000,0.001000,0.001000,0.001000,0.001000
1001.923077,0.014596,0.001000,0.001000,0.001000,0.001000,0.001000
1001.942308,0.013230,0.001000,0.001000,0.001000,0.001000,0.001000
1001.961538,0.011853,0.001000,0.001000,0.001000,0.001000,0.001000
1001.980769,0.010466,0.001000,0.001000,0.001000,0.001000,0.001000
1002.000000,0.009071,0.001000,0.001000,0.001000,0.001000,0.001000
1002.019231,0.007668,0.001000,0.001000,0.001000,0.001000,0.001000
1002.038462,0.006260,0.001000,0.001000,0.001000,0.001000,0.001000
1002.057692,0.004846,0.001000,0.001000,0.001000,0.001000,0.001000
1002.076923,0.003428,0.001000,0.001000,0.001000,0.001000,0.001000
1002.096154,0.002008,0.001000,0.001000,0.001000,0.001000,0.001000
1002.115385,0.000585,0.001000,0.001000,0.001000,0.001000,0.001000
1002.134615,-0.000837,0.001000,0.001000,0.001000,0.001000,0.001000
1002.153846,-0.002259,0.001000,0.001000,0.001000,0.001000,0.001000
1002.173077,-0.003679,0.001000,0.001000,0.001000,0.001000,0.001000
1002.192308,-0.005096,0.001000,0.001000,0.001000,0.001000,0.001000
1002.211538,-0.006509,0.001000,0.001000,0.001000,0.001000,0.001000
1002.230769,-0.007917,0.001000,0.001000,0.001000,0.001000,0.001000
1002.250000,-0.009318,0.001000,0.001000,0.001000,0.001000,0.001000
1002.269231,-0.010712,0.001000,0.001000,0.001000,0.001000,0.001000
1002.288462,-0.012097,0.001000,0.001000,0.001000,0.001000,0.001000
1002.307692,-0.013473,0.001000,0.001000,0.001000,0.001000,0.001000
1002.326923,-0.014837,0.001000,0.001000,0.001000,0.001000,0.001000
1002.346154,-0.016190,0.001000,0.001000,0.001000,0.001000,0.001000
1002.365385,-0.017529,0.001000,0.001000,0.001000,0.001000,0.001000
1002.384615,-0.018854,0.001000,0.001000,0.001000,0.001000,0.001000
1002.403846,-0.020164,0.001000,0.001000,0.001000,0.001000,0.001000
1002.423077,-0.021457,0.001000,0.001000,0.001000,0.001000,0.001000
1002.442308,-0.022733,0.001000,0.001000,0.001000,0.001000,0.001000
1002.461538,-0.023991,0.001000,0.001000,0.001000,0.001000,0.001000
1002.480769,-0.025230,0.001000,0.001000,0.001000,0.001000,0.001000
1002.500000,-0.026447,0.001000,0.001000,0.001000,0.001000,0.001000
1002.519231,-0.027644,0.001000,0.001000,0.001000,0.001000,0.001000
1002.538462,-0.028818,0.001000,0.001000,0.001000,0.001000,0.001000
1002.557692,-0.029969,0.001000,0.001000,0.001000,0.001000,0.001000
1002.576923,-0.031095,0.001000,0.001000,0.001000,0.001000,0.001000
1002.596154,-0.032197,0.001000,0.001000,0.001000,0.001000,0.001000
1002.615385,-0.033272,0.001000,0.001000,0.001000,0.001000,0.001000
1002.634615,-0.034320,0.001000,0.001000,0.001000,0.001000,0.001000
1002.653846,-0.035341,0.001000,0.001000,0.001000,0.001000,0.001000
1002.673077,-0.036333,0.001000,0.001000,0.001000,0.001000,0.001000
1002.692308,-0.037295,0.001000,0.001000,0.001000,0.001000,0.001000
1002.711538,-0.038228,0.001000,0.001000,0.001000,0.001000,0.001000
1002.730769,-0.039129,0.001000,0.001000,0.001000,0.001000,0.001000
1002.750000,-0.039999,0.001000,0.001000,0.001000,0.001000,0.001000
1002.769231,-0.040836,0.001000,0.001000,0.001000,0.001000,0.001000
1002.788462,-0.041640,0.001000,0.001000,0.001000,0.001000,0.001000
1002.807692,-0.042411,0.001000,0.001000,0.001000,0.001000,0.001000
1002.826923,-0.043147,0.001000,0.001000,0.001000,0.001000,0.001000
1002.846154,-0.043849,0.001000,0.001000,0.001000,0.001000,0.001000
1002.865385,-0.044514,0.001000,0.001000,0.001000,0.001000,0.001000
1002.884615,-0.045144,0.001000,0.001000,0.001000,0.001000,0.001000
1002.903846,-0.045737,0.001000,0.001000,0.001000,0.001000,0.001000
1002.923077,-0.046294,0.001000,0.001000,0.001000,0.001000,0.001000
1002.942308,-0.046812,0.001000,0.001000,0.001000,0.001000,0.001000
1002.961538,-0.047293,0.001000,0.001000,0.001000,0.001000,0.001000
1002.980769,-0.047736,0.001000,0.001000,0.001000,0.001000,0.001000
1003.000000,-0.048140,0.001000,0.001000,0.001000,0.001000,0.001000
1003.019231,-0.048505,0.001000,0.001000,0.001000,0.001000,0.001000
1003.038462,-0.048830,0.001000,0.001000,0.001000,0.001000,0.001000
1003.057692,-0.049116,0.001000,0.001000,0.001000,0.001000,0.001000
1003.076923,-0.049363,0.001000,0.001000,0.001000,0.001000,0.001000
1003.096154,-0.049569,0.001000,0.001000,0.001000,0.001000,0.001000
1003.115385,-0.049735,0.001000,0.001000,0.001000,0.001000,0.001000
1003.134615,-0.049861,0.001000,0.001000,0.001000,0.001000,0.001000
1003.153846,-0.049947,0.001000,0.001000,0.001000,0.001000,0.001000
1003.173077,-0.049992,0.001000,0.001000,0.001000,0.001000,0.001000
1003.192308,-0.049997,0.001000,0.001000,0.001000,0.001000,0.001000
1003.211538,-0.049961,0.001000,0.001000,0.001000,0.001000,0.001000
1003.230769,-0.049885,0.001000,0.001000,0.001000,0.001000,0.001000
1003.250000,-0.049769,0.001000,0.001000,0.001000,0.001000,0.001000
1003.269231,-0.049612,0.001000,0.001000,0.001000,0.001000,0.001000
1003.288462,-0.049415,0.001000,0.001000,0.001000,0.001000,0.001000
1003.307692,-0.049178,0.001000,0.001000,0.001000,0.001000,0.001000
1003.326923,-0.048901,0.001000,0.001000,0.001000,0.001000,0.001000
1003.346154,-0.048584,0.001000,0.001000,0.001000,0.001000,0.001000
1003.365385,-0.048229,0.001000,0.001000,0.001000,0.001000,0.001000
1003.384615,-0.047834,0.001000,0.001000,0.001000,0.001000,0.001000
1003.403846,-0.047400,0.001000,0.001000,0.001000,0.001000,0.001000
1003.423077,-0.046929,0.001000,0.001000,0.001000,0.001000,0.001000
1003.442308,-0.046419,0.001000,0.001000,0.001000,0.001000,0.001000
1003.461538,-0.045871,0.001000,0.001000,0.001000,0.001000,0.001000
1003.480769,-0.045287,0.001000,0.001000,0.001000,0.001000,0.001000
1003.500000,-0.044665,0.001000,0.001000,0.001000,0.001000,0.001000
1003.519231,-0.044008,0.001000,0.001000,0.001000,0.001000,0.001000
1003.538462,-0.043315,0.001000,0.001000,0.001000,0.001000,0.001000
1003.557692,-0.042587,0.001000,0.001000,0.001000,0.001000,0.001000
1003.576923,-0.041824,0.001000,0.001000,0.001000,0.001000,0.001000
1003.596154,-0.041028,0.001000,0.001000,0.001000,0.001000,0.001000
1003.615385,-0.040198,0.001000,0.001000,0.001000,0.001000,0.001000
1003.634615,-0.039336,0.001000,0.001000,0.001000,0.001000,0.001000
1003.653846,-0.038442,0.001000,0.001000,0.001000,0.001000,0.001000
1003.673077,-0.037517,0.001000,0.001000,0.001000,0.001000,0.001000
1003.692308,-0.036561,0.001000,0.001000,0.001000,0.001000,0.001000
1003.711538,-0.035576,0.001000,0.001000,0.001000,0.001000,0.001000
1003.730769,-0.034562,0.001000,0.001000,0.001000,0.001000,0.001000
1003.750000,-0.033520,0.001000,0.001000,0.001000,0.001000,0.001000
1003.769231,-0.032451,0.001000,0.001000,0.001000,0.001000,0.001000
1003.788462,-0.031356,0.001000,0.001000,0.001000,0.001000,0.001000
1003.807692,-0.030235,0.001000,0.001000,0.001000,0.001000,0.001000
1003.826923,-0.029090,0.001000,0.001000,0.001000,0.001000,0.001000
1003.846154,-0.027921,0.001000,0.001000,0.001000,0.001000,0.001000
1003.865385,-0.026730,0.001000,0.001000,0.001000,0.001000,0.001000
1003.884615,-0.025517,0.001000,0.001000,0.001000,0.001000,0.001000
1003.903846,-0.024283,0.001000,0.001000,0.001000,0.001000,0.001000
1003.923077,-0.023030,0.001000,0.001000,0.001000,0.001000,0.001000
1003.942308,-0.021758,0.001000,0.001000,0.001000,0.001000,0.001000
1003.961538,-0.020469,0.001000,0.001000,0.001000,0.001000,0.001000
1003.980769,-0.019163,0.001000,0.001000,0.001000,0.001000,0.001000
1004.000000,-0.017841,0.001000,0.001000,0.001000,0.001000,0.001000
1004.019231,-0.016505,0.001000,0.001000,0.001000,0.001000,0.001000
1004.038462,-0.015155,0.001000,0.001000,0.001000,0.001000,0.001000
1004.057692,-0.013794,0.001000,0.001000,0.001000,0.001000,0.001000
1004.076923,-0.012421,0.001000,0.001000,0.001000,0.001000,0.001000
1004.096154,-0.011038,0.001000,0.001000,0.001000,0.001000,0.001000
1004.115385,-0.009646,0.001000,0.001000,0.001000,0.001000,0.001000
1004.134615,-0.008246,0.001000,0.001000,0.001000,0.001000,0.001000
1004.153846,-0.006840,0.001000,0.001000,0.001000,0.001000,0.001000
1004.173077,-0.005428,0.001000,0.001000,0.001000,0.001000,0.001000
1004.192308,-0.004012,0.001000,0.001000,0.001000,0.001000,0.001000
1004.211538,-0.002592,0.001000,0.001000,0.001000,0.001000,0.001000
1004.230769,-0.001171,0.001000,0.001000,0.001000,0.001000,0.001000
1004.250000,0.000252,0.001000,0.001000,0.001000,0.001000,0.001000
1004.269231,0.001674,0.001000,0.001000,0.001000,0.001000,0.001000
1004.288462,0.003095,0.001000,0.001000,0.001000,0.001000,0.001000
1004.307692,0.004514,0.001000,0.001000,0.001000,0.001000,0.001000
1004.326923,0.005928,0.001000,0.001000,0.001000,0.001000,0.001000
1004.346154,0.007339,0.001000,0.001000,0.001000,0.001000,0.001000
1004.365385,0.008743,0.001000,0.001000,0.001000,0.001000,0.001000
1004.384615,0.010140,0.001000,0.001000,0.001000,0.001000,0.001000
1004.403846,0.011528,0.001000,0.001000,0.001000,0.001000,0.001000
1004.423077,0.012908,0.001000,0.001000,0.001000,0.001000,0.001000
1004.442308,0.014277,0.001000,0.001000,0.001000,0.001000,0.001000
1004.461538,0.015635,0.001000,0.001000,0.001000,0.001000,0.001000
1004.480769,0.016979,0.001000,0.001000,0.001000,0.001000,0.001000
1004.500000,0.018310,0.001000,0.001000,0.001000,0.001000,0.001000
1004.519231,0.019627,0.001000,0.001000,0.001000,0.001000,0.001000
1004.538462,0.020927,0.001000,0.001000,0.001000,0.001000,0.001000
1004.557692,0.022210,0.001000,0.001000,0.001000,0.001000,0.001000
1004.576923,0.023476,0.001000,0.001000,0.001000,0.001000,0.001000
1004.596154,0.024722,0.001000,0.001000,0.001000,0.001000,0.001000
1004.615385,0.025949,0.001000,0.001000,0.001000,0.001000,0.001000
1004.634615,0.027154,0.001000,0.001000,0.001000,0.001000,0.001000
1004.653846,0.028338,0.001000,0.001000,0.001000,0.001000,0.001000
1004.673077,0.029498,0.001000,0.001000,0.001000,0.001000,0.001000
1004.692308,0.030635,0.001000,0.001000,0.001000,0.001000,0.001000
1004.711538,0.031747,0.001000,0.001000,0.001000,0.001000,0.001000
1004.730769,0.032833,0.001000,0.001000,0.001000,0.001000,0.001000
1004.750000,0.033892,0.001000,0.001000,0.001000,0.001000,0.001000
1004.769231,0.034924,0.001000,0.001000,0.001000,0.001000,0.001000
1004.788462,0.035928,0.001000,0.001000,0.001000,0.001000,0.001000
1004.807692,0.036903,0.001000,0.001000,0.001000,0.001000,0.001000
1004.826923,0.037848,0.001000,0.001000,0.001000,0.001000,0.001000
1004.846154,0.038762,0.001000,0.001000,0.001000,0.001000,0.001000
1004.865385,0.039645,0.001000,0.001000,0.001000,0.001000,0.001000
1004.884615,0.040496,0.001000,0.001000,0.001000,0.001000,0.001000
1004.903846,0.041314,0.001000,0.001000,0.001000,0.001000,0.001000
1004.923077,0.042098,0.001000,0.001000,0.001000,0.001000,0.001000
1004.942308,0.042848,0.001000,0.001000,0.001000,0.001000,0.001000
1004.961538,0.043564,0.001000,0.001000,0.001000,0.001000,0.001000
1004.980769,0.044245,0.001000,0.001000,0.001000,0.001000,0.001000
1005.000000,0.044889,0.001000,0.001000,0.001000,0.001000,0.001000
1005.019231,0.045498,0.001000,0.001000,0.001000,0.001000,0.001000
1005.038462,0.046069,0.001000,0.001000,0.001000,0.001000,0.001000
1005.057692,0.046603,0.001000,0.001000,0.001000,0.001000,0.001000
1005.076923,0.047100,0.001000,0.001000,0.001000,0.001000,0.001000
1005.096154,0.047558,0.001000,0.001000,0.001000,0.001000,0.001000
1005.115385,0.047978,0.001000,0.001000,0.001000,0.001000,0.001000
1005.134615,0.048359,0.001000,0.001000,0.001000,0.001000,0.001000
1005.153846,0.048701,0.001000,0.001000,0.001000,0.001000,0.001000
1005.173077,0.049003,0.001000,0.001000,0.001000,0.001000,0.001000
1005.192308,0.049266,0.001000,0.001000,0.001000,0.001000,0.001000
1005.211538,0.049489,0.001000,0.001000,0.001000,0.001000,0.001000
1005.230769,0.049672,0.001000,0.001000,0.001000,0.001000,0.001000
1005.250000,0.049814,0.001000,0.001000,0.001000,0.001000,0.001000
1005.269231,0.049917,0.001000,0.001000,0.001000,0.001000,0.001000
1005.288462,0.049979,0.001000,0.001000,0.001000,0.001000,0.001000
1005.307692,0.050000,0.001000,0.001000,0.001000,0.001000,0.001000
1005.326923,0.049981,0.001000,0.001000,0.001000,0.001000,0.001000
1005.346154,0.049921,0.001000,0.001000,0.001000,0.001000,0.001000
1005.365385,0.049821,0.001000,0.001000,0.001000,0.001000,0.001000
1005.384615,0.049681,0.001000,0.001000,0.001000,0.001000,0.001000
1005.403846,0.049501,0.001000,0.001000,0.001000,0.001000,0.001000
1005.423077,0.049280,0.001000,0.001000,0.001000,0.001000,0.001000
1005.442308,0.049020,0.001000,0.001000,0.001000,0.001000,0.001000
1005.461538,0.048719,0.001000,0.001000,0.001000,0.001000,0.001000
1005.480769,0.048380,0.001000,0.001000,0.001000,0.001000,0.001000
1005.500000,0.048001,0.001000,0.001000,0.001000,0.001000,0.001000
1005.519231,0.047583,0.001000,0.001000,0.001000,0.001000,0.001000
1005.538462,0.047127,0.001000,0.001000,0.001000,0.001000,0.001000
1005.557692,0.046633,0.001000,0.001000,0.001000,0.001000,0.001000
1005.576923,0.046101,0.001000,0.001000,0.001000,0.001000,0.001000
1005.596154,0.045532,0.001000,0.001000,0.001000,0.001000,0.001000
1005.615385,0.044925,0.001000,0.001000,0.001000,0.001000,0.001000
1005.634615,0.044283,0.001000,0.001000,0.001000,0.001000,0.001000
1005.653846,0.043604,0.001000,0.001000,0.001000,0.001000,0.001000
1005.673077,0.042891,0.001000,0.001000,0.001000,0.001000,0.001000
1005.692308,0.042142,0.001000,0.001000,0.001000,0.001000,0.001000
1005.711538,0.041360,0.001000,0.001000,0.001000,0.001000,0.001000
1005.730769,0.040544,0.001000,0.001000,0.001000,0.001000,0.001000
1005.750000,0.039695,0.001000,0.001000,0.001000,0.001000,0.001000
1005.769231,0.038814,0.001000,0.001000,0.001000,0.001000,0.001000
1005.788462,0.037901,0.001000,0.001000,0.001000,0.001000,0.001000
1005.807692,0.036958,0.001000,0.001000,0.001000,0.001000,0.001000
1005.826923,0.035985,0.001000,0.001000,0.001000,0.001000,0.001000
1005.846154,0.034983,0.001000,0.001000,0.001000,0.001000,0.001000
1005.865385,0.033952,0.001000,0.001000,0.001000,0.001000,0.001000
1005.884615,0.032894,0.001000,0.001000,0.001000,0.001000,0.001000
1005.903846,0.031810,0.001000,0.001000,0.001000,0.001000,0.001000
1005.923077,0.030699,0.001000,0.001000,0.001000,0.001000,0.001000
1005.942308,0.029564,0.001000,0.001000,0.001000,0.001000,0.001000
1005.961538,0.028405,0.001000,0.001000,0.001000,0.001000,0.001000
1005.980769,0.027223,0.001000,0.001000,0.001000,0.001000,0.001000
1006.000000,0.026019,0.001000,0.001000,0.001000,0.001000,0.001000
1006.019231,0.024794,0.001000,0.001000,0.001000,0.001000,0.001000
1006.038462,0.023548,0.001000,0.001000,0.001000,0.001000,0.001000
1006.057692,0.022284,0.001000,0.001000,0.001000,0.001000,0.001000
1006.076923,0.021001,0.001000,0.001000,0.001000,0.001000,0.001000
1006.096154,0.019702,0.001000,0.001000,0.001000,0.001000,0.001000
1006.115385,0.018387,0.001000,0.001000,0.001000,0.001000,0.001000
1006.134615,0.017056,0.001000,0.001000,0.001000,0.001000,0.001000
1006.153846,0.015712,0.001000,0.001000,0.001000,0.001000,0.001000
1006.173077,0.014356,0.001000,0.001000,0.001000,0.001000,0.001000
1006.192308,0.012987,0.001000,0.001000,0.001000,0.001000,0.001000
1006.211538,0.011608,0.001000,0.001000,0.001000,0.001000,0.001000
1006.230769,0.010220,0.001000,0.001000,0.001000,0.001000,0.001000
1006.250000,0.008823,0.001000,0.001000,0.001000,0.001000,0.001000
1006.269231,0.007420,0.001000,0.001000,0.001000,0.001000,0.001000
1006.288462,0.006010,0.001000,0.001000,0.001000,0.001000,0.001000
1006.307692,0.004595,0.001000,0.001000,0.001000,0.001000,0.001000
1006.326923,0.003177,0.001000,0.001000,0.001000,0.001000,0.001000
1006.346154,0.001756,0.001000,0.001000,0.001000,0.001000,0.001000
1006.365385,0.000334,0.001000,0.001000,0.001000,0.001000,0.001000
1006.384615,-0.001089,0.001000,0.001000,0.001000,0.001000,0.001000
1006.403846,-0.002511,0.001000,0.001000,0.001000,0.001000,0.001000
1006.423077,-0.003930,0.001000,0.001000,0.001000,0.001000,0.001000
1006.442308,-0.005347,0.001000,0.001000,0.001000,0.001000,0.001000
1006.461538,-0.006759,0.001000,0.001000,0.001000,0.001000,0.001000
1006.480769,-0.008166,0.001000,0.001000,0.001000,0.001000,0.001000
1006.500000,-0.009566,0.001000,0.001000,0.001000,0.001000,0.001000
1006.519231,-0.010958,0.001000,0.001000,0.001000,0.001000,0.001000
1006.538462,-0.012342,0.001000,0.001000,0.001000,0.001000,0.001000
1006.557692,-0.013715,0.001000,0.001000,0.001000,0.001000,0.001000
1006.576923,-0.015077,0.001000,0.001000,0.001000,0.001000,0.001000
1006.596154,-0.016428,0.001000,0.001000,0.001000,0.001000,0.001000
1006.615385,-0.017764,0.001000,0.001000,0.001000,0.001000,0.001000
1006.634615,-0.019087,0.001000,0.001000,0.001000,0.001000,0.001000
1006.653846,-0.020394,0.001000,0.001000,0.001000,0.001000,0.001000
1006.673077,-0.021684,0.001000,0.001000,0.001000,0.001000,0.001000
1006.692308,-0.022957,0.001000,0.001000,0.001000,0.001000,0.001000
1006.711538,-0.024212,0.001000,0.001000,0.001000,0.001000,0.001000
1006.730769,-0.025447,0.001000,0.001000,0.001000,0.001000,0.001000
1006.750000,-0.026661,0.001000,0.001000,0.001000,0.001000,0.001000
1006.769231,-0.027853,0.001000,0.001000,0.001000,0.001000,0.001000
1006.788462,-0.029023,0.001000,0.001000,0.001000,0.001000,0.001000
1006.807692,-0.030170,0.001000,0.001000,0.001000,0.001000,0.001000
1006.826923,-0.031292,0.001000,0.001000,0.001000,0.001000,0.001000
1006.846154,-0.032389,0.001000,0.001000,0.001000,0.001000,0.001000
1006.865385,-0.033459,0.001000,0.001000,0.001000,0.001000,0.001000
1006.884615,-0.034503,0.001000,0.001000,0.001000,0.001000,0.001000
1006.903846,-0.035519,0.001000,0.001000,0.001000,0.001000,0.001000
1006.923077,-0.036505,0.001000,0.001000,0.001000,0.001000,0.001000
1006.942308,-0.037463,0.001000,0.001000,0.001000,0.001000,0.001000
1006.961538,-0.038389,0.001000,0.001000,0.001000,0.001000,0.001000
1006.980769,-0.039285,0.001000,0.001000,0.001000,0.001000,0.001000
1007.000000,-0.040149,0.001000,0.001000,0.001000,0.001000,0.001000
1007.019231,-0.040981,0.001000,0.001000,0.001000,0.001000,0.001000
1007.038462,-0.041779,0.001000,0.001000,0.001000,0.001000,0.001000
1007.057692,-0.042544,0.001000,0.001000,0.001000,0.001000,0.001000
1007.076923,-0.043274,0.001000,0.001000,0.001000,0.001000,0.001000
1007.096154,-0.043969,0.001000,0.001000,0.001000,0.001000,0.001000
1007.115385,-0.044628,0.001000,0.001000,0.001000,0.001000,0.001000
1007.134615,-0.045252,0.001000,0.001000,0.001000,0.001000,0.001000
1007.153846,-0.045839,0.001000,0.001000,0.001000,0.001000,0.001000
1007.173077,-0.046388,0.001000,0.001000,0.001000,0.001000,0.001000
1007.192308,-0.046900,0.001000,0.001000,0.001000,0.001000,0.001000
1007.211538,-0.047374,0.001000,0.001000,0.001000,0.001000,0.001000
1007.230769,-0.047810,0.001000,0.001000,0.001000,0.001000,0.001000
1007.250000,-0.048207,0.001000,0.001000,0.001000,0.001000,0.001000
1007.269231,-0.048565,0.001000,0.001000,0.001000,0.001000,0.001000
1007.288462,-0.048884,0.001000,0.001000,0.001000,0.001000,0.001000
1007.307692,-0.049163,0.001000,0.001000,0.001000,0.001000,0.001000
1007.326923,-0.049402,0.001000,0.001000,0.001000,0.001000,0.001000
1007.346154,-0.049601,0.001000,0.001000,0.001000,0.001000,0.001000
1007.365385,-0.049761,0.001000,0.001000,0.001000,0.001000,0.001000
1007.384615,-0.049880,0.001000,0.001000,0.001000,0.001000,0.001000
1007.403846,-0.049958,0.001000,0.001000,0.001000,0.001000,0.001000
1007.423077,-0.049996,0.001000,0.001000,0.001000,0.001000,0.001000
1007.442308,-0.049994,0.001000,0.001000,0.001000,0.001000,0.001000
1007.461538,-0.049951,0.001000,0.001000,0.001000,0.001000,0.001000
1007.480769,-0.049867,0.001000,0.001000,0.001000,0.001000,0.001000
1007.500000,-0.049744,0.001000,0.001000,0.001000,0.001000,0.001000
1007.519231,-0.049580,0.001000,0.001000,0.001000,0.001000,0.001000
1007.538462,-0.049376,0.001000,0.001000,0.001000,0.001000,0.001000
1007.557692,-0.049132,0.001000,0.001000,0.001000,0.001000,0.001000
1007.576923,-0.048848,0.001000,0.001000,0.001000,0.001000,0.001000
1007.596154,-0.048524,0.001000,0.001000,0.001000,0.001000,0.001000
1007.615385,-0.048162,0.001000,0.001000,0.001000,0.001000,0.001000
1007.634615,-0.047760,0.001000,0.001000,0.001000,0.001000,0.001000
1007.653846,-0.047320,0.001000,0.001000,0.001000,0.001000,0.001000
1007.673077,-0.046841,0.001000,0.001000,0.001000,0.001000,0.001000
1007.692308,-0.046324,0.001000,0.001000,0.001000,0.001000,0.001000
1007.711538,-0.045770,0.001000,0.001000,0.001000,0.001000,0.001000
1007.730769,-0.045179,0.001000,0.001000,0.001000,0.001000,0.001000
1007.750000,-0.044552,0.001000,0.001000,0.001000,0.001000,0.001000
1007.769231,-0.043888,0.001000,0.001000,0.001000,0.001000,0.001000
1007.788462,-0.043189,0.001000,0.001000,0.001000,0.001000,0.001000
1007.807692,-0.042454,0.001000,0.001000,0.001000,0.001000,0.001000
1007.826923,-0.041686,0.001000,0.001000,0.001000,0.001000,0.001000
1007.846154,-0.040883,0.001000,0.001000,0.001000,0.001000,0.001000
1007.865385,-0.040048,0.001000,0.001000,0.001000,0.001000,0.001000
1007.884615,-0.039180,0.001000,0.001000,0.001000,0.001000,0.001000
1007.903846,-0.038280,0.001000,0.001000,0.001000,0.001000,0.001000
1007.923077,-0.037350,0.001000,0.001000,0.001000,0.001000,0.001000
1007.942308,-0.036389,0.001000,0.001000,0.001000,0.001000,0.001000
1007.961538,-0.035399,0.001000,0.001000,0.001000,0.001000,0.001000
1007.980769,-0.034380,0.001000,0.001000,0.001000,0.001000,0.001000
1008.000000,-0.033333,0.001000,0.001000,0.001000,0.001000,0.001000
1008.019231,-0.032259,0.001000,0.001000,0.001000,0.001000,0.001000
1008.038462,-0.031159,0.001000,0.001000,0.001000,0.001000,0.001000
1008.057692,-0.030034,0.001000,0.001000,0.001000,0.001000,0.001000
1008.076923,-0.028885,0.001000,0.001000,0.001000,0.001000,0.001000
1008.096154,-0.027712,0.001000,0.001000,0.001000,0.001000,0.001000
1008.115385,-0.026517,0.001000,0.001000,0.001000,0.001000,0.001000
1008.134615,-0.025300,0.001000,0.001000,0.001000,0.001000,0.001000
1008.153846,-0.024063,0.001000,0.001000,0.001000,0.001000,0.001000
1008.173077,-0.022806,0.001000,0.001000,0.001000,0.001000,0.001000
1008.192308,-0.021531,0.001000,0.001000,0.001000,0.001000,0.001000
1008.211538,-0.020239,0.001000,0.001000,0.001000,0.001000,0.001000
1008.230769,-0.018930,0.001000,0.001000,0.001000,0.001000,0.001000
1008.250000,-0.017606,0.001000,0.001000,0.001000,0.001000,0.001000
1008.269231,-0.016267,0.001000,0.001000,0.001000,0.001000,0.001000
1008.288462,-0.014915,0.001000,0.001000,0.001000,0.001000,0.001000
1008.307692,-0.013552,0.001000,0.001000,0.001000,0.001000,0.001000
1008.326923,-0.012177,0.001000,0.001000,0.001000,0.001000,0.001000
1008.346154,-0.010792,0.001000,0.001000,0.001000,0.001000,0.001000
1008.365385,-0.009399,0.001000,0.001000,0.001000,0.001000,0.001000
1008.384615,-0.007998,0.001000,0.001000,0.001000,0.001000,0.001000
1008.403846,-0.006591,0.001000,0.001000,0.001000,0.001000,0.001000
1008.423077,-0.005178,0.001000,0.001000,0.001000,0.001000,0.001000
1008.442308,-0.003761,0.001000,0.001000,0.001000,0.001000,0.001000
1008.461538,-0.002341,0.001000,0.001000,0.001000,0.001000,0.001000
1008.480769,-0.000919,0.001000,0.001000,0.001000,0.001000,0.001000
1008.500000,0.000504,0.001000,0.001000,0.001000,0.001000,0.001000
1008.519231,0.001926,0.001000,0.001000,0.001000,0.001000,0.001000
1008.538462,0.003346,0.001000,0.001000,0.001000,0.001000,0.001000
1008.557692,0.004764,0.001000,0.001000,0.001000,0.001000,0.001000
1008.576923,0.006178,0.001000,0.001000,0.001000,0.001000,0.001000
1008.596154,0.007587,0.001000,0.001000,0.001000,0.001000,0.001000
1008.615385,0.008990,0.001000,0.001000,0.001000,0.001000,0.001000
1008.634615,0.010386,0.001000,0.001000,0.001000,0.001000,0.001000
1008.653846,0.011773,0.001000,0.001000,0.001000,0.001000,0.001000
1008.673077,0.013151,0.001000,0.001000,0.001000,0.001000,0.001000
1008.692308,0.014518,0.001000,0.001000,0.001000,0.001000,0.001000
1008.711538,0.015873,0.001000,0.001000,0.001000,0.001000,0.001000
1008.730769,0.017216,0.001000,0.001000,0.001000,0.001000,0.001000
1008.750000,0.018544,0.001000,0.001000,0.001000,0.001000,0.001000
1008.769231,0.019858,0.001000,0.001000,0.001000,0.001000,0.001000
1008.788462,0.021155,0.001000,0.001000,0.001000,0.001000,0.001000
1008.807692,0.022436,0.001000,0.001000,0.001000,0.001000,0.001000
1008.826923,0.023698,0.001000,0.001000,0.001000,0.001000,0.001000
1008.846154,0.024941,0.001000,0.001000,0.001000,0.001000,0.001000
1008.865385,0.026164,0.001000,0.001000,0.001000,0.001000,0.001000
1008.884615,0.027365,0.001000,0.001000,0.001000,0.001000,0.001000
1008.903846,0.028545,0.001000,0.001000,0.001000,0.001000,0.001000
1008.923077,0.029701,0.001000,0.001000,0.001000,0.001000,0.001000
1008.942308,0.030833,0.001000,0.001000,0.001000,0.001000,0.001000
1008.961538,0.031941,0.001000,0.001000,0.001000,0.001000,0.001000
1008.980769,0.033022,0.001000,0.001000,0.001000,0.001000,0.001000
1009.000000,0.034077,0.001000,0.001000,0.001000,0.001000,0.001000
1009.019231,0.035104,0.001000,0.001000,0.001000,0.001000,0.001000
1009.038462,0.036103,0.001000,0.001000,0.001000,0.001000,0.001000
1009.057692,0.037072,0.001000,0.001000,0.001000,0.001000,0.001000
1009.076923,0.038012,0.001000,0.001000,0.001000,0.001000,0.001000
1009.096154,0.038920,0.001000,0.001000,0.001000,0.001000,0.001000
1009.115385,0.039798,0.001000,0.001000,0.001000,0.001000,0.001000
1009.134615,0.040643,0.001000,0.001000,0.001000,0.001000,0.001000
1009.153846,0.041455,0.001000,0.001000,0.001000,0.001000,0.001000
1009.173077,0.042233,0.001000,0.001000,0.001000,0.001000,0.001000
1009.192308,0.042978,0.001000,0.001000,0.001000,0.001000,0.001000
1009.211538,0.043687,0.001000,0.001000,0.001000,0.001000,0.001000
1009.230769,0.044361,0.001000,0.001000,0.001000,0.001000,0.001000
1009.250000,0.045000,0.001000,0.001000,0.001000,0.001000,0.001000
1009.269231,0.045602,0.001000,0.001000,0.001000,0.001000,0.001000
1009.288462,0.046167,0.001000,0.001000,0.001000,0.001000,0.001000
1009.307692,0.046694,0.001000,0.001000,0.001000,0.001000,0.001000
1009.326923,0.047184,0.001000,0.001000,0.001000,0.001000,0.001000
1009.346154,0.047635,0.001000,0.001000,0.001000,0.001000,0.001000
1009.365385,0.048048,0.001000,0.001000,0.001000,0.001000,0.001000
1009.384615,0.048422,0.001000,0.001000,0.001000,0.001000,0.001000
1009.403846,0.048757,0.001000,0.001000,0.001000,0.001000,0.001000
1009.423077,0.049053,0.001000,0.001000,0.001000,0.001000,0.001000
1009.442308,0.049309,0.001000,0.001000,0.001000,0.001000,0.001000
1009.461538,0.049524,0.001000,0.001000,0.001000,0.001000,0.001000
1009.480769,0.049700,0.001000,0.001000,0.001000,0.001000,0.001000
1009.500000,0.049835,0.001000,0.001000,0.001000,0.001000,0.001000
1009.519231,0.049931,0.001000,0.001000,0.001000,0.001000,0.001000
1009.538462,0.049985,0.001000,0.001000,0.001000,0.001000,0.001000
1009.557692,0.050000,0.001000,0.001000,0.001000,0.001000,0.001000
1009.576923,0.049973,0.001000,0.001000,0.001000,0.001000,0.001000
1009.596154,0.049907,0.001000,0.001000,0.001000,0.001000,0.001000
1009.615385,0.049800,0.001000,0.001000,0.001000,0.001000,0.001000
1009.634615,0.049652,0.001000,0.001000,0.001000,0.001000,0.001000
1009.653846,0.049465,0.001000,0.001000,0.001000,0.001000,0.001000
1009.673077,0.049237,0.001000,0.001000,0.001000,0.001000,0.001000
1009.692308,0.048969,0.001000,0.001000,0.001000,0.001000,0.001000
1009.711538,0.048662,0.001000,0.001000,0.001000,0.001000,0.001000
1009.730769,0.048316,0.001000,0.001000,0.001000,0.001000,0.001000
1009.750000,0.047930,0.001000,0.001000,0.001000,0.001000,0.001000
1009.769231,0.047506,0.001000,0.001000,0.001000,0.001000,0.001000
1009.788462,0.047043,0.001000,0.001000,0.001000,0.001000,0.001000
1009.807692,0.046542,0.001000,0.001000,0.001000,0.001000,0.001000
1009.826923,0.046003,0.001000,0.001000,0.001000,0.001000,0.001000
1009.846154,0.045427,0.001000,0.001000,0.001000,0.001000,0.001000
1009.865385,0.044814,0.001000,0.001000,0.001000,0.001000,0.001000
1009.884615,0.044165,0.001000,0.001000,0.001000,0.001000,0.001000
1009.903846,0.043481,0.001000,0.001000,0.001000,0.001000,0.001000
1009.923077,0.042761,0.001000,0.001000,0.001000,0.001000,0.001000
1009.942308,0.042006,0.001000,0.001000,0.001000,0.001000,0.001000
1009.961538,0.041218,0.001000,0.001000,0.001000,0.001000,0.001000
1009.980769,0.040396,0.001000,0.001000,0.001000,0.001000,0.001000
1010.000000,0.039541,0.001000,0.001000,0.001000,0.001000,0.001000
1010.019231,0.038654,0.001000,0.001000,0.001000,0.001000,0.001000
1010.038462,0.037737,0.001000,0.001000,0.001000,0.001000,0.001000
1010.057692,0.036788,0.001000,0.001000,0.001000,0.001000,0.001000
1010.076923,0.035810,0.001000,0.001000,0.001000,0.001000,0.001000
1010.096154,0.034803,0.001000,0.001000,0.001000,0.001000,0.001000
1010.115385,0.033767,0.001000,0.001000,0.001000,0.001000,0.001000
1010.134615,0.032704,0.001000,0.001000,0.001000,0.001000,0.001000
1010.153846,0.031615,0.001000,0.001000,0.001000,0.001000,0.001000
1010.173077,0.030500,0.001000,0.001000,0.001000,0.001000,0.001000
1010.192308,0.029361,0.001000,0.001000,0.001000,0.001000,0.001000
1010.211538,0.028198,0.001000,0.001000,0.001000,0.001000,0.001000
1010.230769,0.027011,0.001000,0.001000,0.001000,0.001000,0.001000
1010.250000,0.025803,0.001000,0.001000,0.001000,0.001000,0.001000
1010.269231,0.024575,0.001000,0.001000,0.001000,0.001000,0.001000
1010.288462,0.023326,0.001000,0.001000,0.001000,0.001000,0.001000
1010.307692,0.022058,0.001000,0.001000,0.001000,0.001000,0.001000
1010.326923,0.020773,0.001000,0.001000,0.001000,0.001000,0.001000
1010.346154,0.019470,0.001000,0.001000,0.001000,0.001000,0.001000
1010.365385,0.018152,0.001000,0.001000,0.001000,0.001000,0.001000
1010.384615,0.016819,0.001000,0.001000,0.001000,0.001000,0.001000
1010.403846,0.015473,0.001000,0.001000,0.001000,0.001000,0.001000
1010.423077,0.014114,0.001000,0.001000,0.001000,0.001000,0.001000
1010.442308,0.012744,0.001000,0.001000,0.001000,0.001000,0.001000
1010.461538,0.011363,0.001000,0.001000,0.001000,0.001000,0.001000
1010.480769,0.009973,0.001000,0.001000,0.001000,0.001000,0.001000
1010.500000,0.008575,0.001000,0.001000,0.001000,0.001000,0.001000
1010.519231,0.007170,0.001000,0.001000,0.001000,0.001000,0.001000
1010.538462,0.005760,0.001000,0.001000,0.001000,0.001000,0.001000
1010.557692,0.004344,0.001000,0.001000,0.001000,0.001000,0.001000
1010.576923,0.002926,0.001000,0.001000,0.001000,0.001000,0.001000
1010.596154,0.001504,0.001000,0.001000,0.001000,0.001000,0.001000
1010.615385,0.000082,0.001000,0.001000,0.001000,0.001000,0.001000
1010.634615,-0.001341,0.001000,0.001000,0.001000,0.001000,0.001000
1010.653846,-0.002762,0.001000,0.001000,0.001000,0.001000,0.001000
1010.673077,-0.004181,0.001000,0.001000,0.001000,0.001000,0.001000
1010.692308,-0.005597,0.001000,0.001000,0.001000,0.001000,0.001000
1010.711538,-0.007008,0.001000,0.001000,0.001000,0.001000,0.001000
1010.730769,-0.008414,0.001000,0.001000,0.001000,0.001000,0.001000
1010.750000,-0.009813,0.001000,0.001000,0.001000,0.001000,0.001000
1010.769231,-0.011204,0.001000,0.001000,0.001000,0.001000,0.001000
1010.788462,-0.012585,0.001000,0.001000,0.001000,0.001000,0.001000
1010.807692,-0.013957,0.001000,0.001000,0.001000,0.001000,0.001000
1010.826923,-0.015317,0.001000,0.001000,0.001000,0.001000,0.001000
1010.846154,-0.016665,0.001000,0.001000,0.001000,0.001000,0.001000
1010.865385,-0.017999,0.001000,0.001000,0.001000,0.001000,0.001000
1010.884615,-0.019319,0.001000,0.001000,0.001000,0.001000,0.001000
1010.903846,-0.020624,0.001000,0.001000,0.001000,0.001000,0.001000
1010.923077,-0.021911,0.001000,0.001000,0.001000,0.001000,0.001000
1010.942308,-0.023181,0.001000,0.001000,0.001000,0.001000,0.001000
1010.961538,-0.024432,0.001000,0.001000,0.001000,0.001000,0.001000
1010.980769,-0.025663,0.001000,0.001000,0.001000,0.001000,0.001000
1011.000000,-0.026873,0.001000,0.001000,0.001000,0.001000,0.001000
1011.019231,-0.028062,0.001000,0.001000,0.001000,0.001000,0.001000
1011.038462,-0.029228,0.001000,0.001000,0.001000,0.001000,0.001000
1011.057692,-0.030370,0.001000,0.001000,0.001000,0.001000,0.001000
1011.076923,-0.031488,0.001000,0.001000,0.001000,0.001000,0.001000
1011.096154,-0.032580,0.001000,0.001000,0.001000,0.001000,0.001000
1011.115385,-0.033646,0.001000,0.001000,0.001000,0.001000,0.001000
1011.134615,-0.034685,0.001000,0.001000,0.001000,0.001000,0.001000
1011.153846,-0.035695,0.001000,0.001000,0.001000,0.001000,0.001000
1011.173077,-0.036677,0.001000,0.001000,0.001000,0.001000,0.001000
1011.192308,-0.037629,0.001000,0.001000,0.001000,0.001000,0.001000
1011.211538,-0.038550,0.001000,0.001000,0.001000,0.001000,0.001000
1011.230769,-0.039441,0.001000,0.001000,0.001000,0.001000,0.001000
1011.250000,-0.040299,0.001000,0.001000,0.001000,0.001000,0.001000
1011.269231,-0.041125,0.001000,0.001000,0.001000,0.001000,0.001000
1011.288462,-0.041917,0.001000,0.001000,0.001000,0.001000,0.001000
1011.307692,-0.042676,0.001000,0.001000,0.001000,0.001000,0.001000
1011.326923,-0.043400,0.001000,0.001000,0.001000,0.001000,0.001000
1011.346154,-0.044088,0.001000,0.001000,0.001000,0.001000,0.001000
1011.365385,-0.044741,0.001000,0.001000,0.001000,0.001000,0.001000
1011.384615,-0.045358,0.001000,0.001000,0.001000,0.001000,0.001000
1011.403846,-0.045939,0.001000,0.001000,0.001000,0.001000,0.001000
1011.423077,-0.046482,0.001000,0.001000,0.001000,0.001000,0.001000
1011.442308,-0.046987,0.001000,0.001000,0.001000,0.001000,0.001000
1011.461538,-0.047454,0.001000,0.001000,0.001000,0.001000,0.001000
1011.480769,-0.047883,0.001000,0.001000,0.001000,0.001000,0.001000
1011.500000,-0.048273,0.001000,0.001000,0.001000,0.001000,0.001000
1011.519231,-0.048624,0.001000,0.001000,0.001000,0.001000,0.001000
1011.538462,-0.048936,0.001000,0.001000,0.001000,0.001000,0.001000
1011.557692,-0.049208,0.001000,0.001000,0.001000,0.001000,0.001000
1011.576923,-0.049440,0.001000,0.001000,0.001000,0.001000,0.001000
1011.596154,-0.049633,0.001000,0.001000,0.001000,0.001000,0.001000
1011.615385,-0.049785,0.001000,0.001000,0.001000,0.001000,0.001000
1011.634615,-0.049896,0.001000,0.001000,0.001000,0.001000,0.001000
1011.653846,-0.049968,0.001000,0.001000,0.001000,0.001000,0.001000
1011.673077,-0.049999,0.001000,0.001000,0.001000,0.001000,0.001000
1011.692308,-0.049989,0.001000,0.001000,0.001000,0.001000,0.001000
1011.711538,-0.049939,0.001000,0.001000,0.001000,0.001000,0.001000
1011.730769,-0.049848,0.001000,0.001000,0.001000,0.001000,0.001000
1011.750000,-0.049718,0.001000,0.001000,0.001000,0.001000,0.001000
1011.769231,-0.049547,0.001000,0.001000,0.001000,0.001000,0.001000
1011.788462,-0.049335,0.001000,0.001000,0.001000,0.001000,0.001000
1011.807692,-0.049084,0.001000,0.001000,0.001000,0.001000,0.001000
1011.826923,-0.048793,0.001000,0.001000,0.001000,0.001000,0.001000
1011.846154,-0.048463,0.001000,0.001000,0.001000,0.001000,0.001000
1011.865385,-0.048093,0.001000,0.001000,0.001000,0.001000,0.001000
1011.884615,-0.047685,0.001000,0.001000,0.001000,0.001000,0.001000
1011.903846,-0.047238,0.001000,0.001000,0.001000,0.001000,0.001000
1011.923077,-0.046752,0.001000,0.001000,0.001000,0.001000,0.001000
1011.942308,-0.046229,0.001000,0.001000,0.001000,0.001000,0.001000
1011.961538,-0.045669,0.001000,0.001000,0.001000,0.001000,0.001000
1011.980769,-0.045071,0.001000,0.001000,0.001000,0.001000,0.001000
1012.000000,-0.044437,0.001000,0.001000,0.001000,0.001000,0.001000
1012.019231,-0.043767,0.001000,0.001000,0.001000,0.001000,0.001000
1012.038462,-0.043061,0.001000,0.001000,0.001000,0.001000,0.001000
1012.057692,-0.042321,0.001000,0.001000,0.001000,0.001000,0.001000
1012.076923,-0.041546,0.001000,0.001000,0.001000,0.001000,0.001000
1012.096154,-0.040738,0.001000,0.001000,0.001000,0.001000,0.001000
1012.115385,-0.039897,0.001000,0.001000,0.001000,0.001000,0.001000
1012.134615,-0.039023,0.001000,0.001000,0.001000,0.001000,0.001000
1012.153846,-0.038118,0.001000,0.001000,0.001000,0.001000,0.001000
1012.173077,-0.037182,0.001000,0.001000,0.001000,0.001000,0.001000
1012.192308,-0.036216,0.001000,0.001000,0.001000,0.001000,0.001000
1012.211538,-0.035220,0.001000,0.001000,0.001000,0.001000,0.001000
1012.230769,-0.034197,0.001000,0.001000,0.001000,0.001000,0.001000
1012.250000,-0.033145,0.001000,0.001000,0.001000,0.001000,0.001000
1012.269231,-0.032067,0.001000,0.001000,0.001000,0.001000,0.001000
1012.288462,-0.030962,0.001000,0.001000,0.001000,0.001000,0.001000
1012.307692,-0.029833,0.001000,0.001000,0.001000,0.001000,0.001000
1012.326923,-0.028679,0.001000,0.001000,0.001000,0.001000,0.001000
1012.346154,-0.027502,0.001000,0.001000,0.001000,0.001000,0.001000
1012.365385,-0.026303,0.001000,0.001000,0.001000,0.001000,0.001000
1012.384615,-0.025083,0.001000,0.001000,0.001000,0.001000,0.001000
1012.403846,-0.023842,0.001000,0.001000,0.001000,0.001000,0.001000
1012.423077,-0.022582,0.001000,0.001000,0.001000,0.001000,0.001000
1012.442308,-0.021304,0.001000,0.001000,0.001000,0.001000,0.001000
1012.461538,-0.020008,0.001000,0.001000,0.001000,0.001000,0.001000
1012.480769,-0.018696,0.001000,0.001000,0.001000,0.001000,0.001000
1012.500000,-0.017370,0.001000,0.001000,0.001000,0.001000,0.001000
1012.519231,-0.016029,0.001000,0.001000,0.001000,0.001000,0.001000
1012.538462,-0.014675,0.001000,0.001000,0.001000,0.001000,0.001000
1012.557692,-0.013309,0.001000,0.001000,0.001000,0.001000,0.001000
1012.576923,-0.011932,0.001000,0.001000,0.001000,0.001000,0.001000
1012.596154,-0.010546,0.001000,0.001000,0.001000,0.001000,0.001000
1012.615385,-0.009152,0.001000,0.001000,0.001000,0.001000,0.001000
1012.634615,-0.007749,0.001000,0.001000,0.001000,0.001000,0.001000
1012.653846,-0.006341,0.001000,0.001000,0.001000,0.001000,0.001000
1012.673077,-0.004927,0.001000,0.001000,0.001000,0.001000,0.001000
1012.692308,-0.003510,0.001000,0.001000,0.001000,0.001000,0.001000
1012.711538,-0.002089,0.001000,0.001000,0.001000,0.001000,0.001000
1012.730769,-0.000667,0.001000,0.001000,0.001000,0.001000,0.001000
1012.750000,0.000755,0.001000,0.001000,0.001000,0.001000,0.001000
1012.769231,0.002177,0.001000,0.001000,0.001000,0.001000,0.001000
1012.788462,0.003598,0.001000,0.001000,0.001000,0.001000,0.001000
1012.807692,0.005015,0.001000,0.001000,0.001000,0.001000,0.001000
1012.826923,0.006428,0.001000,0.001000,0.001000,0.001000,0.001000
1012.846154,0.007836,0.001000,0.001000,0.001000,0.001000,0.001000
1012.865385,0.009238,0.001000,0.001000,0.001000,0.001000,0.001000
1012.884615,0.010632,0.001000,0.001000,0.001000,0.001000,0.001000
1012.903846,0.012018,0.001000,0.001000,0.001000,0.001000,0.001000
1012.923077,0.013394,0.001000,0.001000,0.001000,0.001000,0.001000
1012.942308,0.014759,0.001000,0.001000,0.001000,0.001000,0.001000
1012.961538,0.016112,0.001000,0.001000,0.001000,0.001000,0.001000
1012.980769,0.017452,0.001000,0.001000,0.001000,0.001000,0.001000
1013.000000,0.018778,0.001000,0.001000,0.001000,0.001000,0.001000
1013.019231,0.020089,0.001000,0.001000,0.001000,0.001000,0.001000
1013.038462,0.021383,0.001000,0.001000,0.001000,0.001000,0.001000
1013.057692,0.022660,0.001000,0.001000,0.001000,0.001000,0.001000
1013.076923,0.023919,0.001000,0.001000,0.001000,0.001000,0.001000
1013.096154,0.025159,0.001000,0.001000,0.001000,0.001000,0.001000
1013.115385,0.026378,0.001000,0.001000,0.001000,0.001000,0.001000
1013.134615,0.027576,0.001000,0.001000,0.001000,0.001000,0.001000
1013.153846,0.028751,0.001000,0.001000,0.001000,0.001000,0.001000
1013.173077,0.029903,0.001000,0.001000,0.001000,0.001000,0.001000
1013.192308,0.031031,0.001000,0.001000,0.001000,0.001000,0.001000
1013.211538,0.032134,0.001000,0.001000,0.001000,0.001000,0.001000
1013.230769,0.033211,0.001000,0.001000,0.001000,0.001000,0.001000
1013.250000,0.034261,0.001000,0.001000,0.001000,0.001000,0.001000
1013.269231,0.035283,0.001000,0.001000,0.001000,0.001000,0.001000
1013.288462,0.036276,0.001000,0.001000,0.001000,0.001000,0.001000
1013.307692,0.037241,0.001000,0.001000,0.001000,0.001000,0.001000
1013.326923,0.038175,0.001000,0.001000,0.001000,0.001000,0.001000
1013.346154,0.039078,0.001000,0.001000,0.001000,0.001000,0.001000
1013.365385,0.039950,0.001000,0.001000,0.001000,0.001000,0.001000
1013.384615,0.040789,0.001000,0.001000,0.001000,0.001000,0.001000
1013.403846,0.041595,0.001000,0.001000,0.001000,0.001000,0.001000
1013.423077,0.042368,0.001000,0.001000,0.001000,0.001000,0.001000
1013.442308,0.043106,0.001000,0.001000,0.001000,0.001000,0.001000
1013.461538,0.043809,0.001000,0.001000,0.001000,0.001000,0.001000
1013.480769,0.044477,0.001000,0.001000,0.001000,0.001000,0.001000
1013.500000,0.045109,0.001000,0.001000,0.001000,0.001000,0.001000
1013.519231,0.045704,0.001000,0.001000,0.001000,0.001000,0.001000
1013.538462,0.046263,0.001000,0.001000,0.001000,0.001000,0.001000
1013.557692,0.046783,0.001000,0.001000,0.001000,0.001000,0.001000
1013.576923,0.047267,0.001000,0.001000,0.001000,0.001000,0.001000
1013.596154,0.047711,0.001000,0.001000,0.001000,0.001000,0.001000
1013.615385,0.048117,0.001000,0.001000,0.001000,0.001000,0.001000
1013.634615,0.048485,0.001000,0.001000,0.001000,0.001000,0.001000
1013.653846,0.048813,0.001000,0.001000,0.001000,0.001000,0.001000
1013.673077,0.049101,0.001000,0.001000,0.001000,0.001000,0.001000
1013.692308,0.049350,0.001000,0.001000,0.001000,0.001000,0.001000
1013.711538,0.049558,0.001000,0.001000,0.001000,0.001000,0.001000
1013.730769,0.049727,0.001000,0.001000,0.001000,0.001000,0.001000
1013.750000,0.049855,0.001000,0.001000,0.001000,0.001000,0.001000
1013.769231,0.049943,0.001000,0.001000,0.001000,0.001000,0.001000
1013.788462,0.049991,0.001000,0.001000,0.001000,0.001000,0.001000
1013.807692,0.049998,0.001000,0.001000,0.001000,0.001000,0.001000
1013.826923,0.049964,0.001000,0.001000,0.001000,0.001000,0.001000
1013.846154,0.049891,0.001000,0.001000,0.001000,0.001000,0.001000
1013.865385,0.049776,0.001000,0.001000,0.001000,0.001000,0.001000
1013.884615,0.049622,0.001000,0.001000,0.001000,0.001000,0.001000
1013.903846,0.049427,0.001000,0.001000,0.001000,0.001000,0.001000
1013.923077,0.049192,0.001000,0.001000,0.001000,0.001000,0.001000
1013.942308,0.048918,0.001000,0.001000,0.001000,0.001000,0.001000
1013.961538,0.048604,0.001000,0.001000,0.001000,0.001000,0.001000
1013.980769,0.048250,0.001000,0.001000,0.001000,0.001000,0.001000
1014.000000,0.047858,0.001000,0.001000,0.001000,0.001000,0.001000
1014.019231,0.047426,0.001000,0.001000,0.001000,0.001000,0.001000
1014.038462,0.046957,0.001000,0.001000,0.001000,0.001000,0.001000
1014.057692,0.046449,0.001000,0.001000,0.001000,0.001000,0.001000
1014.076923,0.045904,0.001000,0.001000,0.001000,0.001000,0.001000
1014.096154,0.045321,0.001000,0.001000,0.001000,0.001000,0.001000
1014.115385,0.044702,0.001000,0.001000,0.001000,0.001000,0.001000
1014.134615,0.044047,0.001000,0.001000,0.001000,0.001000,0.001000
1014.153846,0.043356,0.001000,0.001000,0.001000,0.001000,0.001000
1014.173077,0.042630,0.001000,0.001000,0.001000,0.001000,0.001000
1014.192308,0.041869,0.001000,0.001000,0.001000,0.001000,0.001000
1014.211538,0.041075,0.001000,0.001000,0.001000,0.001000,0.001000
1014.230769,0.040247,0.001000,0.001000,0.001000,0.001000,0.001000
1014.250000,0.039386,0.001000,0.001000,0.001000,0.001000,0.001000
1014.269231,0.038494,0.001000,0.001000,0.001000,0.001000,0.001000
1014.288462,0.037571,0.001000,0.001000,0.001000,0.001000,0.001000
1014.307692,0.036617,0.001000,0.001000,0.001000,0.001000,0.001000
1014.326923,0.035634,0.001000,0.001000,0.001000,0.001000,0.001000
1014.346154,0.034621,0.001000,0.001000,0.001000,0.001000,0.001000
1014.365385,0.033581,0.001000,0.001000,0.001000,0.001000,0.001000
1014.384615,0.032514,0.001000,0.001000,0.001000,0.001000,0.001000
1014.403846,0.031420,0.001000,0.001000,0.001000,0.001000,0.001000
1014.423077,0.030300,0.001000,0.001000,0.001000,0.001000,0.001000
1014.442308,0.029157,0.001000,0.001000,0.001000,0.001000,0.001000
1014.461538,0.027989,0.001000,0.001000,0.001000,0.001000,0.001000
1014.480769,0.026799,0.001000,0.001000,0.001000,0.001000,0.001000
1014.500000,0.025587,0.001000,0.001000,0.001000,0.001000,0.001000
1014.519231,0.024355,0.001000,0.001000,0.001000,0.001000,0.001000
1014.538462,0.023103,0.001000,0.001000,0.001000,0.001000,0.001000
1014.557692,0.021832,0.001000,0.001000,0.001000,0.001000,0.001000
1014.576923,0.020543,0.001000,0.001000,0.001000,0.001000,0.001000
1014.596154,0.019238,0.001000,0.001000,0.001000,0.001000,0.001000
1014.615385,0.017917,0.001000,0.001000,0.001000,0.001000,0.001000
1014.634615,0.016582,0.001000,0.001000,0.001000,0.001000,0.001000
1014.653846,0.015233,0.001000,0.001000,0.001000,0.001000,0.001000
1014.673077,0.013872,0.001000,0.001000,0.001000,0.001000,0.001000
1014.692308,0.012500,0.001000,0.001000,0.001000,0.001000,0.001000
1014.711538,0.011118,0.001000,0.001000,0.001000,0.001000,0.001000
1014.730769,0.009726,0.001000,0.001000,0.001000,0.001000,0.001000
1014.750000,0.008327,0.001000,0.001000,0.001000,0.001000,0.001000
1014.769231,0.006921,0.001000,0.001000,0.001000,0.001000,0.001000
1014.788462,0.005510,0.001000,0.001000,0.001000,0.001000,0.001000
1014.807692,0.004094,0.001000,0.001000,0.001000,0.001000,0.001000
1014.826923,0.002674,0.001000,0.001000,0.001000,0.001000,0.001000
1014.846154,0.001253,0.001000,0.001000,0.001000,0.001000,0.001000
1014.865385,-0.000170,0.001000,0.001000,0.001000,0.001000,0.001000
1014.884615,-0.001592,0.001000,0.001000,0.001000,0.001000,0.001000
1014.903846,-0.003013,0.001000,0.001000,0.001000,0.001000,0.001000
1014.923077,-0.004432,0.001000,0.001000,0.001000,0.001000,0.001000
1014.942308,-0.005847,0.001000,0.001000,0.001000,0.001000,0.001000
1014.961538,-0.007258,0.001000,0.001000,0.001000,0.001000,0.001000
1014.980769,-0.008662,0.001000,0.001000,0.001000,0.001000,0.001000
1015.000000,-0.010059,0.001000,0.001000,0.001000,0.001000,0.001000
1015.019231,-0.011449,0.001000,0.001000,0.001000,0.001000,0.001000
1015.038462,-0.012829,0.001000,0.001000,0.001000,0.001000,0.001000
1015.057692,-0.014199,0.001000,0.001000,0.001000,0.001000,0.001000
1015.076923,-0.015557,0.001000,0.001000,0.001000,0.001000,0.001000
1015.096154,-0.016902,0.001000,0.001000,0.001000,0.001000,0.001000
1015.115385,-0.018234,0.001000,0.001000,0.001000,0.001000,0.001000
1015.134615,-0.019551,0.001000,0.001000,0.001000,0.001000,0.001000
1015.153846,-0.020853,0.001000,0.001000,0.001000,0.001000,0.001000
1015.173077,-0.022137,0.001000,0.001000,0.001000,0.001000,0.001000
1015.192308,-0.023404,0.001000,0.001000,0.001000,0.001000,0.001000
1015.211538,-0.024651,0.001000,0.001000,0.001000,0.001000,0.001000
1015.230769,-0.025879,0.001000,0.001000,0.001000,0.001000,0.001000
1015.250000,-0.027085,0.001000,0.001000,0.001000,0.001000,0.001000
1015.269231,-0.028270,0.001000,0.001000,0.001000,0.001000,0.001000
1015.288462,-0.029432,0.001000,0.001000,0.001000,0.001000,0.001000
1015.307692,-0.030570,0.001000,0.001000,0.001000,0.001000,0.001000
1015.326923,-0.031683,0.001000,0.001000,0.001000,0.001000,0.001000
1015.346154,-0.032771,0.001000,0.001000,0.001000,0.001000,0.001000
1015.365385,-0.033832,0.001000,0.001000,0.001000,0.001000,0.001000
1015.384615,-0.034866,0.001000,0.001000,0.001000,0.001000,0.001000
1015.403846,-0.035871,0.001000,0.001000,0.001000,0.001000,0.001000
1015.423077,-0.036848,0.001000,0.001000,0.001000,0.001000,0.001000
1015.442308,-0.037794,0.001000,0.001000,0.001000,0.001000,0.001000
1015.461538,-0.038710,0.001000,0.001000,0.001000,0.001000,0.001000
1015.480769,-0.039595,0.001000,0.001000,0.001000,0.001000,0.001000
1015.500000,-0.040447,0.001000,0.001000,0.001000,0.001000,0.001000
1015.519231,-0.041267,0.001000,0.001000,0.001000,0.001000,0.001000
1015.538462,-0.042054,0.001000,0.001000,0.001000,0.001000,0.001000
1015.557692,-0.042806,0.001000,0.001000,0.001000,0.001000,0.001000
1015.576923,-0.043524,0.001000,0.001000,0.001000,0.001000,0.001000
1015.596154,-0.044207,0.001000,0.001000,0.001000,0.001000,0.001000
1015.615385,-0.044853,0.001000,0.001000,0.001000,0.001000,0.001000
1015.634615,-0.045464,0.001000,0.001000,0.001000,0.001000,0.001000
1015.653846,-0.046037,0.001000,0.001000,0.001000,0.001000,0.001000
1015.673077,-0.046574,0.001000,0.001000,0.001000,0.001000,0.001000
1015.692308,-0.047072,0.001000,0.001000,0.001000,0.001000,0.001000
1015.711538,-0.047533,0.001000,0.001000,0.001000,0.001000,0.001000
1015.730769,-0.047955,0.001000,0.001000,0.001000,0.001000,0.001000
1015.750000,-0.048338,0.001000,0.001000,0.001000,0.001000,0.001000
1015.769231,-0.048682,0.001000,0.001000,0.001000,0.001000,0.001000
1015.788462,-0.048987,0.001000,0.001000,0.001000,0.001000,0.001000
1015.807692,-0.049252,0.001000,0.001000,0.001000,0.001000,0.001000
1015.826923,-0.049477,0.001000,0.001000,0.001000,0.001000,0.001000
1015.846154,-0.049662,0.001000,0.001000,0.001000,0.001000,0.001000
1015.865385,-0.049807,0.001000,0.001000,0.001000,0.001000,0.001000
1015.884615,-0.049912,0.001000,0.001000,0.001000,0.001000,0.001000
1015.903846,-0.049976,0.001000,0.001000,0.001000,0.001000,0.001000
1015.923077,-0.050000,0.001000,0.001000,0.001000,0.001000,0.001000
1015.942308,-0.049983,0.001000,0.001000,0.001000,0.001000,0.001000
1015.961538,-0.049926,0.001000,0.001000,0.001000,0.001000,0.001000
1015.980769,-0.049828,0.001000,0.001000,0.001000,0.001000,0.001000
1016.000000,-0.049690,0.001000,0.001000,0.001000,0.001000,0.001000
1016.019231,-0.049512,0.001000,0.001000,0.001000,0.001000,0.001000
1016.038462,-0.049294,0.001000,0.001000,0.001000,0.001000,0.001000
1016.057692,-0.049036,0.001000,0.001000,0.001000,0.001000,0.001000
1016.076923,-0.048738,0.001000,0.001000,0.001000,0.001000,0.001000
1016.096154,-0.048400,0.001000,0.001000,0.001000,0.001000,0.001000
1016.115385,-0.048024,0.001000,0.001000,0.001000,0.001000,0.001000
1016.134615,-0.047609,0.001000,0.001000,0.001000,0.001000,0.001000
1016.153846,-0.047155,0.001000,0.001000,0.001000,0.001000,0.001000
1016.173077,-0.046663,0.001000,0.001000,0.001000,0.001000,0.001000
1016.192308,-0.046133,0.001000,0.001000,0.001000,0.001000,0.001000
1016.211538,-0.045565,0.001000,0.001000,0.001000,0.001000,0.001000
1016.230769,-0.044961,0.001000,0.001000,0.001000,0.001000,0.001000
1016.250000,-0.044321,0.001000,0.001000,0.001000,0.001000,0.001000
1016.269231,-0.043644,0.001000,0.001000,0.001000,0.001000,0.001000
1016.288462,-0.042933,0.001000,0.001000,0.001000,0.001000,0.001000
1016.307692,-0.042186,0.001000,0.001000,0.001000,0.001000,0.001000
1016.326923,-0.041406,0.001000,0.001000,0.001000,0.001000,0.001000
1016.346154,-0.040591,0.001000,0.001000,0.001000,0.001000,0.001000
1016.365385,-0.039744,0.001000,0.001000,0.001000,0.001000,0.001000
1016.384615,-0.038865,0.001000,0.001000,0.001000,0.001000,0.001000
1016.403846,-0.037955,0.001000,0.001000,0.001000,0.001000,0.001000
1016.423077,-0.037013,0.001000,0.001000,0.001000,0.001000,0.001000
1016.442308,-0.036042,0.001000,0.001000,0.001000,0.001000,0.001000
1016.461538,-0.035041,0.001000,0.001000,0.001000,0.001000,0.001000
1016.480769,-0.034012,0.001000,0.001000,0.001000,0.001000,0.001000
1016.500000,-0.032956,0.001000,0.001000,0.001000,0.001000,0.001000
1016.519231,-0.031873,0.001000,0.001000,0.001000,0.001000,0.001000
1016.538462,-0.030764,0.001000,0.001000,0.001000,0.001000,0.001000
1016.557692,-0.029630,0.001000,0.001000,0.001000,0.001000,0.001000
1016.576923,-0.028472,0.001000,0.001000,0.001000,0.001000,0.001000
1016.596154,-0.027292,0.001000,0.001000,0.001000,0.001000,0.001000
1016.615385,-0.026089,0.001000,0.001000,0.001000,0.001000,0.001000
1016.634615,-0.024865,0.001000,0.001000,0.001000,0.001000,0.001000
1016.653846,-0.023620,0.001000,0.001000,0.001000,0.001000,0.001000
1016.673077,-0.022357,0.001000,0.001000,0.001000,0.001000,0.001000
1016.692308,-0.021076,0.001000,0.001000,0.001000,0.001000,0.001000
1016.711538,-0.019777,0.001000,0.001000,0.001000,0.001000,0.001000
1016.730769,-0.018463,0.001000,0.001000,0.001000,0.001000,0.001000
1016.750000,-0.017133,0.001000,0.001000,0.001000,0.001000,0.001000
1016.769231,-0.015790,0.001000,0.001000,0.001000,0.001000,0.001000
1016.788462,-0.014434,0.001000,0.001000,0.001000,0.001000,0.001000
1016.807692,-0.013066,0.001000,0.001000,0.001000,0.001000,0.001000
1016.826923,-0.011688,0.001000,0.001000,0.001000,0.001000,0.001000
1016.846154,-0.010300,0.001000,0.001000,0.001000,0.001000,0.001000
1016.865385,-0.008904,0.001000,0.001000,0.001000,0.001000,0.001000
1016.884615,-0.007501,0.001000,0.001000,0.001000,0.001000,0.001000
1016.903846,-0.006091,0.001000,0.001000,0.001000,0.001000,0.001000
1016.923077,-0.004677,0.001000,0.001000,0.001000,0.001000,0.001000
1016.942308,-0.003259,0.001000,0.001000,0.001000,0.001000,0.001000
1016.961538,-0.001838,0.001000,0.001000,0.001000,0.001000,0.001000
1016.980769,-0.000416,0.001000,0.001000,0.001000,0.001000,0.001000
1017.000000,0.001007,0.001000,0.001000,0.001000,0.001000,0.001000
1017.019231,0.002429,0.001000,0.001000,0.001000,0.001000,0.001000
1017.038462,0.003849,0.001000,0.001000,0.001000,0.001000,0.001000
1017.057692,0.005265,0.001000,0.001000,0.001000,0.001000,0.001000
1017.076923,0.006678,0.001000,0.001000,0.001000,0.001000,0.001000
1017.096154,0.008085,0.001000,0.001000,0.001000,0.001000,0.001000
1017.115385,0.009485,0.001000,0.001000,0.001000,0.001000,0.001000
1017.134615,0.010878,0.001000,0.001000,0.001000,0.001000,0.001000
1017.153846,0.012262,0.001000,0.001000,0.001000,0.001000,0.001000
1017.173077,0.013636,0.001000,0.001000,0.001000,0.001000,0.001000
1017.192308,0.014999,0.001000,0.001000,0.001000,0.001000,0.001000
1017.211538,0.016350,0.001000,0.001000,0.001000,0.001000,0.001000
1017.230769,0.017688,0.001000,0.001000,0.001000,0.001000,0.001000
1017.250000,0.019011,0.001000,0.001000,0.001000,0.001000,0.001000
1017.269231,0.020319,0.001000,0.001000,0.001000,0.001000,0.001000
1017.288462,0.021611,0.001000,0.001000,0.001000,0.001000,0.001000
1017.307692,0.022885,0.001000,0.001000,0.001000,0.001000,0.001000
1017.326923,0.024140,0.001000,0.001000,0.001000,0.001000,0.001000
1017.346154,0.025376,0.001000,0.001000,0.001000,0.001000,0.001000
1017.365385,0.026591,0.001000,0.001000,0.001000,0.001000,0.001000
1017.384615,0.027785,0.001000,0.001000,0.001000,0.001000,0.001000
1017.403846,0.028957,0.001000,0.001000,0.001000,0.001000,0.001000
1017.423077,0.030105,0.001000,0.001000,0.001000,0.001000,0.001000
1017.442308,0.031228,0.001000,0.001000,0.001000,0.001000,0.001000
1017.461538,0.032326,0.001000,0.001000,0.001000,0.001000,0.001000
1017.480769,0.033399,0.001000,0.001000,0.001000,0.001000,0.001000
1017.500000,0.034444,0.001000,0.001000,0.001000,0.001000,0.001000
1017.519231,0.035461,0.001000,0.001000,0.001000,0.001000,0.001000
1017.538462,0.036449,0.001000,0.001000,0.001000,0.001000,0.001000
1017.557692,0.037408,0.001000,0.001000,0.001000,0.001000,0.001000
1017.576923,0.038337,0.001000,0.001000,0.001000,0.001000,0.001000
1017.596154,0.039235,0.001000,0.001000,0.001000,0.001000,0.001000
1017.615385,0.040101,0.001000,0.001000,0.001000,0.001000,0.001000
1017.634615,0.040934,0.001000,0.001000,0.001000,0.001000,0.001000
1017.653846,0.041734,0.001000,0.001000,0.001000,0.001000,0.001000
1017.673077,0.042501,0.001000,0.001000,0.001000,0.001000,0.001000
1017.692308,0.043233,0.001000,0.001000,0.001000,0.001000,0.001000
1017.711538,0.043930,0.001000,0.001000,0.001000,0.001000,0.001000
1017.730769,0.044591,0.001000,0.001000,0.001000,0.001000,0.001000
1017.750000,0.045217,0.001000,0.001000,0.001000,0.001000,0.001000
1017.769231,0.045806,0.001000,0.001000,0.001000,0.001000,0.001000
1017.788462,0.046358,0.001000,0.001000,0.001000,0.001000,0.001000
1017.807692,0.046872,0.001000,0.001000,0.001000,0.001000,0.001000
1017.826923,0.047348,0.001000,0.001000,0.001000,0.001000,0.001000
1017.846154,0.047786,0.001000,0.001000,0.001000,0.001000,0.001000
1017.865385,0.048185,0.001000,0.001000,0.001000,0.001000,0.001000
1017.884615,0.048545,0.001000,0.001000,0.001000,0.001000,0.001000
1017.903846,0.048866,0.001000,0.001000,0.001000,0.001000,0.001000
1017.923077,0.049148,0.001000,0.001000,0.001000,0.001000,0.001000
1017.942308,0.049389,0.001000,0.001000,0.001000,0.001000,0.001000
1017.961538,0.049591,0.001000,0.001000,0.001000,0.001000,0.001000
1017.980769,0.049753,0.001000,0.001000,0.001000,0.001000,0.001000
1018.000000,0.049874,0.001000,0.001000,0.001000,0.001000,0.001000
1018.019231,0.049955,0.001000,0.001000,0.001000,0.001000,0.001000
1018.038462,0.049995,0.001000,0.001000,0.001000,0.001000,0.001000
1018.057692,0.049995,0.001000,0.001000,0.001000,0.001000,0.001000
1018.076923,0.049954,0.001000,0.001000,0.001000,0.001000,0.001000
1018.096154,0.049873,0.001000,0.001000,0.001000,0.001000,0.001000
1018.115385,0.049752,0.001000,0.001000,0.001000,0.001000,0.001000
1018.134615,0.049590,0.001000,0.001000,0.001000,0.001000,0.001000
1018.153846,0.049389,0.001000,0.001000,0.001000,0.001000,0.001000
1018.173077,0.049147,0.001000,0.001000,0.001000,0.001000,0.001000
1018.192308,0.048865,0.001000,0.001000,0.001000,0.001000,0.001000
1018.211538,0.048544,0.001000,0.001000,0.001000,0.001000,0.001000
1018.230769,0.048184,0.001000,0.001000,0.001000,0.001000,0.001000
1018.250000,0.047784,0.001000,0.001000,0.001000,0.001000,0.001000
1018.269231,0.047346,0.001000,0.001000,0.001000,0.001000,0.001000
1018.288462,0.046870,0.001000,0.001000,0.001000,0.001000,0.001000
1018.307692,0.046355,0.001000,0.001000,0.001000,0.001000,0.001000
1018.326923,0.045803,0.001000,0.001000,0.001000,0.001000,0.001000
1018.346154,0.045214,0.001000,0.001000,0.001000,0.001000,0.001000
1018.365385,0.044589,0.001000,0.001000,0.001000,0.001000,0.001000
1018.384615,0.043927,0.001000,0.001000,0.001000,0.001000,0.001000
1018.403846,0.043230,0.001000,0.001000,0.001000,0.001000,0.001000
1018.423077,0.042498,0.001000,0.001000,0.001000,0.001000,0.001000
1018.442308,0.041731,0.001000,0.001000,0.001000,0.001000,0.001000
1018.461538,0.040930,0.001000,0.001000,0.001000,0.001000,0.001000
1018.480769,0.040097,0.001000,0.001000,0.001000,0.001000,0.001000
1018.500000,0.039231,0.001000,0.001000,0.001000,0.001000,0.001000
1018.519231,0.038333,0.001000,0.001000,0.001000,0.001000,0.001000
1018.538462,0.037404,0.001000,0.001000,0.001000,0.001000,0.001000
1018.557692,0.036445,0.001000,0.001000,0.001000,0.001000,0.001000
1018.576923,0.035457,0.001000,0.001000,0.001000,0.001000,0.001000
1018.596154,0.034439,0.001000,0.001000,0.001000,0.001000,0.001000
1018.615385,0.033394,0.001000,0.001000,0.001000,0.001000,0.001000
1018.634615,0.032322,0.001000,0.001000,0.001000,0.001000,0.001000
1018.653846,0.031223,0.001000,0.001000,0.001000,0.001000,0.001000
1018.673077,0.030100,0.001000,0.001000,0.001000,0.001000,0.001000
1018.692308,0.028952,0.001000,0.001000,0.001000,0.001000,0.001000
1018.711538,0.027780,0.001000,0.001000,0.001000,0.001000,0.001000
1018.730769,0.026586,0.001000,0.001000,0.001000,0.001000,0.001000
1018.750000,0.025371,0.001000,0.001000,0.001000,0.001000,0.001000
1018.769231,0.024135,0.001000,0.001000,0.001000,0.001000,0.001000
1018.788462,0.022879,0.001000,0.001000,0.001000,0.001000,0.001000
1018.807692,0.021605,0.001000,0.001000,0.001000,0.001000,0.001000
1018.826923,0.020314,0.001000,0.001000,0.001000,0.001000,0.001000
1018.846154,0.019006,0.001000,0.001000,0.001000,0.001000,0.001000
1018.865385,0.017682,0.001000,0.001000,0.001000,0.001000,0.001000
1018.884615,0.016344,0.001000,0.001000,0.001000,0.001000,0.001000
1018.903846,0.014993,0.001000,0.001000,0.001000,0.001000,0.001000
1018.923077,0.013630,0.001000,0.001000,0.001000,0.001000,0.001000
1018.942308,0.012256,0.001000,0.001000,0.001000,0.001000,0.001000
1018.961538,0.010872,0.001000,0.001000,0.001000,0.001000,0.001000
1018.980769,0.009479,0.001000,0.001000,0.001000,0.001000,0.001000
1019.000000,0.008079,0.001000,0.001000,0.001000,0.001000,0.001000
1019.019231,0.006672,0.001000,0.001000,0.001000,0.001000,0.001000
1019.038462,0.005259,0.001000,0.001000,0.001000,0.001000,0.001000
1019.057692,0.003843,0.001000,0.001000,0.001000,0.001000,0.001000
1019.076923,0.002423,0.001000,0.001000,0.001000,0.001000,0.001000
1019.096154,0.001001,0.001000,0.001000,0.001000,0.001000,0.001000
1019.115385,-0.000422,0.001000,0.001000,0.001000,0.001000,0.001000
1019.134615,-0.001844,0.001000,0.001000,0.001000,0.001000,0.001000
1019.153846,-0.003265,0.001000,0.001000,0.001000,0.001000,0.001000
1019.173077,-0.004683,0.001000,0.001000,0.001000,0.001000,0.001000
1019.192308,-0.006097,0.001000,0.001000,0.001000,0.001000,0.001000
1019.211538,-0.007507,0.001000,0.001000,0.001000,0.001000,0.001000
1019.230769,-0.008910,0.001000,0.001000,0.001000,0.001000,0.001000
1019.250000,-0.010306,0.001000,0.001000,0.001000,0.001000,0.001000
1019.269231,-0.011694,0.001000,0.001000,0.001000,0.001000,0.001000
1019.288462,-0.013072,0.001000,0.001000,0.001000,0.001000,0.001000
1019.307692,-0.014440,0.001000,0.001000,0.001000,0.001000,0.001000
1019.326923,-0.015796,0.001000,0.001000,0.001000,0.001000,0.001000
1019.346154,-0.017139,0.001000,0.001000,0.001000,0.001000,0.001000
1019.365385,-0.018468,0.001000,0.001000,0.001000,0.001000,0.001000
1019.384615,-0.019783,0.001000,0.001000,0.001000,0.001000,0.001000
1019.403846,-0.021081,0.001000,0.001000,0.001000,0.001000,0.001000
1019.423077,-0.022363,0.001000,0.001000,0.001000,0.001000,0.001000
1019.442308,-0.023626,0.001000,0.001000,0.001000,0.001000,0.001000
1019.461538,-0.024870,0.001000,0.001000,0.001000,0.001000,0.001000
1019.480769,-0.026094,0.001000,0.001000,0.001000,0.001000,0.001000
1019.500000,-0.027297,0.001000,0.001000,0.001000,0.001000,0.001000
1019.519231,-0.028477,0.001000,0.001000,0.001000,0.001000,0.001000
1019.538462,-0.029635,0.001000,0.001000,0.001000,0.001000,0.001000
1019.557692,-0.030769,0.001000,0.001000,0.001000,0.001000,0.001000
1019.576923,-0.031878,0.001000,0.001000,0.001000,0.001000,0.001000
1019.596154,-0.032961,0.001000,0.001000,0.001000,0.001000,0.001000
1019.615385,-0.034017,0.001000,0.001000,0.001000,0.001000,0.001000
1019.634615,-0.035046,0.001000,0.001000,0.001000,0.001000,0.001000
1019.653846,-0.036046,0.001000,0.001000,0.001000,0.001000,0.001000
1019.673077,-0.037017,0.001000,0.001000,0.001000,0.001000,0.001000
1019.692308,-0.037959,0.001000,0.001000,0.001000,0.001000,0.001000
1019.711538,-0.038869,0.001000,0.001000,0.001000,0.001000,0.001000
1019.730769,-0.039748,0.001000,0.001000,0.001000,0.001000,0.001000
1019.750000,-0.040595,0.001000,0.001000,0.001000,0.001000,0.001000
1019.769231,-0.041409,0.001000,0.001000,0.001000,0.001000,0.001000
1019.788462,-0.042189,0.001000,0.001000,0.001000,0.001000,0.001000
1019.807692,-0.042936,0.001000,0.001000,0.001000,0.001000,0.001000
1019.826923,-0.043647,0.001000,0.001000,0.001000,0.001000,0.001000
1019.846154,-0.044324,0.001000,0.001000,0.001000,0.001000,0.001000
1019.865385,-0.044964,0.001000,0.001000,0.001000,0.001000,0.001000
1019.884615,-0.045568,0.001000,0.001000,0.001000,0.001000,0.001000
1019.903846,-0.046135,0.001000,0.001000,0.001000,0.001000,0.001000
1019.923077,-0.046665,0.001000,0.001000,0.001000,0.001000,0.001000
1019.942308,-0.047157,0.001000,0.001000,0.001000,0.001000,0.001000
1019.961538,-0.047610,0.001000,0.001000,0.001000,0.001000,0.001000
1019.980769,-0.048026,0.001000,0.001000,0.001000,0.001000,0.001000
1020.000000,-0.048402,0.001000,0.001000,0.001000,0.001000,0.001000
1020.019231,-0.048739,0.001000,0.001000,0.001000,0.001000,0.001000
1020.038462,-0.049037,0.001000,0.001000,0.001000,0.001000,0.001000
1020.057692,-0.049295,0.001000,0.001000,0.001000,0.001000,0.001000
1020.076923,-0.049513,0.001000,0.001000,0.001000,0.001000,0.001000
1020.096154,-0.049691,0.001000,0.001000,0.001000,0.001000,0.001000
1020.115385,-0.049829,0.001000,0.001000,0.001000,0.001000,0.001000
1020.134615,-0.049926,0.001000,0.001000,0.001000,0.001000,0.001000
1020.153846,-0.049983,0.001000,0.001000,0.001000,0.001000,0.001000
1020.173077,-0.050000,0.001000,0.001000,0.001000,0.001000,0.001000
1020.192308,-0.049976,0.001000,0.001000,0.001000,0.001000,0.001000
1020.211538,-0.049912,0.001000,0.001000,0.001000,0.001000,0.001000
1020.230769,-0.049807,0.001000,0.001000,0.001000,0.001000,0.001000
1020.250000,-0.049662,0.001000,0.001000,0.001000,0.001000,0.001000
1020.269231,-0.049476,0.001000,0.001000,0.001000,0.001000,0.001000
1020.288462,-0.049251,0.001000,0.001000,0.001000,0.001000,0.001000
1020.307692,-0.048986,0.001000,0.001000,0.001000,0.001000,0.001000
1020.326923,-0.048681,0.001000,0.001000,0.001000,0.001000,0.001000
1020.346154,-0.048337,0.001000,0.001000,0.001000,0.001000,0.001000
1020.365385,-0.047953,0.001000,0.001000,0.001000,0.001000,0.001000
1020.384615,-0.047531,0.001000,0.001000,0.001000,0.001000,0.001000
1020.403846,-0.047070,0.001000,0.001000,0.001000,0.001000,0.001000
1020.423077,-0.046572,0.001000,0.001000,0.001000,0.001000,0.001000
1020.442308,-0.046035,0.001000,0.001000,0.001000,0.001000,0.001000
1020.461538,-0.045461,0.001000,0.001000,0.001000,0.001000,0.001000
1020.480769,-0.044851,0.001000,0.001000,0.001000,0.001000,0.001000
1020.500000,-0.044204,0.001000,0.001000,0.001000,0.001000,0.001000
1020.519231,-0.043521,0.001000,0.001000,0.001000,0.001000,0.001000
1020.538462,-0.042803,0.001000,0.001000,0.001000,0.001000,0.001000
1020.557692,-0.042051,0.001000,0.001000,0.001000,0.001000,0.001000
1020.576923,-0.041264,0.001000,0.001000,0.001000,0.001000,0.001000
1020.596154,-0.040444,0.001000,0.001000,0.001000,0.001000,0.001000
1020.615385,-0.039591,0.001000,0.001000,0.001000,0.001000,0.001000
1020.634615,-0.038706,0.001000,0.001000,0.001000,0.001000,0.001000
1020.653846,-0.037790,0.001000,0.001000,0.001000,0.001000,0.001000
1020.673077,-0.036843,0.001000,0.001000,0.001000,0.001000,0.001000
1020.692308,-0.035867,0.001000,0.001000,0.001000,0.001000,0.001000
1020.711538,-0.034861,0.001000,0.001000,0.001000,0.001000,0.001000
1020.730769,-0.033827,0.001000,0.001000,0.001000,0.001000,0.001000
1020.750000,-0.032766,0.001000,0.001000,0.001000,0.001000,0.001000
1020.769231,-0.031679,0.001000,0.001000,0.001000,0.001000,0.001000
1020.788462,-0.030565,0.001000,0.001000,0.001000,0.001000,0.001000
1020.807692,-0.029427,0.001000,0.001000,0.001000,0.001000,0.001000
1020.826923,-0.028265,0.001000,0.001000,0.001000,0.001000,0.001000
1020.846154,-0.027080,0.001000,0.001000,0.001000,0.001000,0.001000
1020.865385,-0.025874,0.001000,0.001000,0.001000,0.001000,0.001000
1020.884615,-0.024646,0.001000,0.001000,0.001000,0.001000,0.001000
1020.903846,-0.023398,0.001000,0.001000,0.001000,0.001000,0.001000
1020.923077,-0.022132,0.001000,0.001000,0.001000,0.001000,0.001000
1020.942308,-0.020847,0.001000,0.001000,0.001000,0.001000,0.001000
1020.961538,-0.019546,0.001000,0.001000,0.001000,0.001000,0.001000
1020.980769,-0.018229,0.001000,0.001000,0.001000,0.001000,0.001000
1021.000000,-0.016897,0.001000,0.001000,0.001000,0.001000,0.001000
1021.019231,-0.015551,0.001000,0.001000,0.001000,0.001000,0.001000
1021.038462,-0.014193,0.001000,0.001000,0.001000,0.001000,0.001000
1021.057692,-0.012823,0.001000,0.001000,0.001000,0.001000,0.001000
1021.076923,-0.011443,0.001000,0.001000,0.001000,0.001000,0.001000
1021.096154,-0.010054,0.001000,0.001000,0.001000,0.001000,0.001000
1021.115385,-0.008656,0.001000,0.001000,0.001000,0.001000,0.001000
1021.134615,-0.007252,0.001000,0.001000,0.001000,0.001000,0.001000
1021.153846,-0.005841,0.001000,0.001000,0.001000,0.001000,0.001000
1021.173077,-0.004426,0.001000,0.001000,0.001000,0.001000,0.001000
1021.192308,-0.003007,0.001000,0.001000,0.001000,0.001000,0.001000
1021.211538,-0.001586,0.001000,0.001000,0.001000,0.001000,0.001000
1021.230769,-0.000164,0.001000,0.001000,0.001000,0.001000,0.001000
1021.250000,0.001259,0.001000,0.001000,0.001000,0.001000,0.001000
1021.269231,0.002680,0.001000,0.001000,0.001000,0.001000,0.001000
1021.288462,0.004100,0.001000,0.001000,0.001000,0.001000,0.001000
1021.307692,0.005516,0.001000,0.001000,0.001000,0.001000,0.001000
1021.326923,0.006927,0.001000,0.001000,0.001000,0.001000,0.001000
1021.346154,0.008333,0.001000,0.001000,0.001000,0.001000,0.001000
1021.365385,0.009732,0.001000,0.001000,0.001000,0.001000,0.001000
1021.384615,0.011124,0.001000,0.001000,0.001000,0.001000,0.001000
1021.403846,0.012506,0.001000,0.001000,0.001000,0.001000,0.001000
1021.423077,0.013878,0.001000,0.001000,0.001000,0.001000,0.001000
1021.442308,0.015239,0.001000,0.001000,0.001000,0.001000,0.001000
1021.461538,0.016588,0.001000,0.001000,0.001000,0.001000,0.001000
1021.480769,0.017923,0.001000,0.001000,0.001000,0.001000,0.001000
1021.500000,0.019244,0.001000,0.001000,0.001000,0.001000,0.001000
1021.519231,0.020549,0.001000,0.001000,0.001000,0.001000,0.001000
1021.538462,0.021837,0.001000,0.001000,0.001000,0.001000,0.001000
1021.557692,0.023108,0.001000,0.001000,0.001000,0.001000,0.001000
1021.576923,0.024360,0.001000,0.001000,0.001000,0.001000,0.001000
1021.596154,0.025593,0.001000,0.001000,0.001000,0.001000,0.001000
1021.615385,0.026804,0.001000,0.001000,0.001000,0.001000,0.001000
1021.634615,0.027994,0.001000,0.001000,0.001000,0.001000,0.001000
1021.653846,0.029162,0.001000,0.001000,0.001000,0.001000,0.001000
1021.673077,0.030305,0.001000,0.001000,0.001000,0.001000,0.001000
1021.692308,0.031424,0.001000,0.001000,0.001000,0.001000,0.001000
1021.711538,0.032518,0.001000,0.001000,0.001000,0.001000,0.001000
1021.730769,0.033585,0.001000,0.001000,0.001000,0.001000,0.001000
1021.750000,0.034626,0.001000,0.001000,0.001000,0.001000,0.001000
1021.769231,0.035638,0.001000,0.001000,0.001000,0.001000,0.001000
1021.788462,0.036621,0.001000,0.001000,0.001000,0.001000,0.001000
1021.807692,0.037575,0.001000,0.001000,0.001000,0.001000,0.001000
1021.826923,0.038498,0.001000,0.001000,0.001000,0.001000,0.001000
1021.846154,0.039390,0.001000,0.001000,0.001000,0.001000,0.001000
1021.865385,0.040250,0.001000,0.001000,0.001000,0.001000,0.001000
1021.884615,0.041078,0.001000,0.001000,0.001000,0.001000,0.001000
1021.903846,0.041872,0.001000,0.001000,0.001000,0.001000,0.001000
1021.923077,0.042633,0.001000,0.001000,0.001000,0.001000,0.001000
1021.942308,0.043359,0.001000,0.001000,0.001000,0.001000,0.001000
1021.961538,0.044050,0.001000,0.001000,0.001000,0.001000,0.001000
1021.980769,0.044705,0.001000,0.001000,0.001000,0.001000,0.001000
1022.000000,0.045324,0.001000,0.001000,0.001000,0.001000,0.001000
1022.019231,0.045906,0.001000,0.001000,0.001000,0.001000,0.001000
1022.038462,0.046451,0.001000,0.001000,0.001000,0.001000,0.001000
1022.057692,0.046959,0.001000,0.001000,0.001000,0.001000,0.001000
1022.076923,0.047428,0.001000,0.001000,0.001000,0.001000,0.001000
1022.096154,0.047859,0.001000,0.001000,0.001000,0.001000,0.001000
1022.115385,0.048252,0.001000,0.001000,0.001000,0.001000,0.001000
1022.134615,0.048605,0.001000,0.001000,0.001000,0.001000,0.001000
1022.153846,0.048919,0.001000,0.001000,0.001000,0.001000,0.001000
1022.173077,0.049194,0.001000,0.001000,0.001000,0.001000,0.001000
1022.192308,0.049428,0.001000,0.001000,0.001000,0.001000,0.001000
1022.211538,0.049623,0.001000,0.001000,0.001000,0.001000,0.001000
1022.230769,0.049777,0.001000,0.001000,0.001000,0.001000,0.001000
1022.250000,0.049891,0.001000,0.001000,0.001000,0.001000,0.001000
1022.269231,0.049965,0.001000,0.001000,0.001000,0.001000,0.001000
1022.288462,0.049998,0.001000,0.001000,0.001000,0.001000,0.001000
1022.307692,0.049991,0.001000,0.001000,0.001000,0.001000,0.001000
1022.326923,0.049943,0.001000,0.001000,0.001000,0.001000,0.001000
1022.346154,0.049855,0.001000,0.001000,0.001000,0.001000,0.001000
1022.365385,0.049726,0.001000,0.001000,0.001000,0.001000,0.001000
1022.384615,0.049558,0.001000,0.001000,0.001000,0.001000,0.001000
1022.403846,0.049349,0.001000,0.001000,0.001000,0.001000,0.001000
1022.423077,0.049100,0.001000,0.001000,0.001000,0.001000,0.001000
1022.442308,0.048811,0.001000,0.001000,0.001000,0.001000,0.001000
1022.461538,0.048483,0.001000,0.001000,0.001000,0.001000,0.001000
1022.480769,0.048116,0.001000,0.001000,0.001000,0.001000,0.001000
1022.500000,0.047709,0.001000,0.001000,0.001000,0.001000,0.001000
1022.519231,0.047265,0.001000,0.001000,0.001000,0.001000,0.001000
1022.538462,0.046781,0.001000,0.001000,0.001000,0.001000,0.001000
1022.557692,0.046260,0.001000,0.001000,0.001000,0.001000,0.001000
1022.576923,0.045702,0.001000,0.001000,0.001000,0.001000,0.001000
1022.596154,0.045106,0.001000,0.001000,0.001000,0.001000,0.001000
1022.615385,0.044474,0.001000,0.001000,0.001000,0.001000,0.001000
1022.634615,0.043806,0.001000,0.001000,0.001000,0.001000,0.001000
1022.653846,0.043103,0.001000,0.001000,0.001000,0.001000,0.001000
1022.673077,0.042364,0.001000,0.001000,0.001000,0.001000,0.001000
1022.692308,0.041592,0.001000,0.001000,0.001000,0.001000,0.001000
1022.711538,0.040785,0.001000,0.001000,0.001000,0.001000,0.001000
1022.730769,0.039946,0.001000,0.001000,0.001000,0.001000,0.001000
1022.750000,0.039074,0.001000,0.001000,0.001000,0.001000,0.001000
1022.769231,0.038171,0.001000,0.001000,0.001000,0.001000,0.001000
1022.788462,0.037237,0.001000,0.001000,0.001000,0.001000,0.001000
1022.807692,0.036272,0.001000,0.001000,0.001000,0.001000,0.001000
1022.826923,0.035279,0.001000,0.001000,0.001000,0.001000,0.001000
1022.846154,0.034256,0.001000,0.001000,0.001000,0.001000,0.001000
1022.865385,0.033206,0.001000,0.001000,0.001000,0.001000,0.001000
1022.884615,0.032129,0.001000,0.001000,0.001000,0.001000,0.001000
1022.903846,0.031026,0.001000,0.001000,0.001000,0.001000,0.001000
1022.923077,0.029898,0.001000,0.001000,0.001000,0.001000,0.001000
1022.942308,0.028746,0.001000,0.001000,0.001000,0.001000,0.001000
1022.961538,0.027571,0.001000,0.001000,0.001000,0.001000,0.001000
1022.980769,0.026373,0.001000,0.001000,0.001000,0.001000,0.001000
1023.000000,0.025154,0.001000,0.001000,0.001000,0.001000,0.001000
1023.019231,0.023914,0.001000,0.001000,0.001000,0.001000,0.001000
1023.038462,0.022655,0.001000,0.001000,0.001000,0.001000,0.001000
1023.057692,0.021378,0.001000,0.001000,0.001000,0.001000,0.001000
1023.076923,0.020083,0.001000,0.001000,0.001000,0.001000,0.001000
1023.096154,0.018772,0.001000,0.001000,0.001000,0.001000,0.001000
1023.115385,0.017446,0.001000,0.001000,0.001000,0.001000,0.001000
1023.134615,0.016106,0.001000,0.001000,0.001000,0.001000,0.001000
1023.153846,0.014753,0.001000,0.001000,0.001000,0.001000,0.001000
1023.173077,0.013388,0.001000,0.001000,0.001000,0.001000,0.001000
1023.192308,0.012012,0.001000,0.001000,0.001000,0.001000,0.001000
1023.211538,0.010626,0.001000,0.001000,0.001000,0.001000,0.001000
1023.230769,0.009232,0.001000,0.001000,0.001000,0.001000,0.001000
1023.250000,0.007830,0.001000,0.001000,0.001000,0.001000,0.001000
1023.269231,0.006422,0.001000,0.001000,0.001000,0.001000,0.001000
1023.288462,0.005009,0.001000,0.001000,0.001000,0.001000,0.001000
1023.307692,0.003592,0.001000,0.001000,0.001000,0.001000,0.001000
1023.326923,0.002171,0.001000,0.001000,0.001000,0.001000,0.001000
1023.346154,0.000749,0.001000,0.001000,0.001000,0.001000,0.001000
1023.365385,-0.000673,0.001000,0.001000,0.001000,0.001000,0.001000
1023.384615,-0.002095,0.001000,0.001000,0.001000,0.001000,0.001000
1023.403846,-0.003516,0.001000,0.001000,0.001000,0.001000,0.001000
1023.423077,-0.004933,0.001000,0.001000,0.001000,0.001000,0.001000
1023.442308,-0.006347,0.001000,0.001000,0.001000,0.001000,0.001000
1023.461538,-0.007755,0.001000,0.001000,0.001000,0.001000,0.001000
1023.480769,-0.009157,0.001000,0.001000,0.001000,0.001000,0.001000
1023.500000,-0.010552,0.001000,0.001000,0.001000,0.001000,0.001000
1023.519231,-0.011938,0.001000,0.001000,0.001000,0.001000,0.001000
1023.538462,-0.013315,0.001000,0.001000,0.001000,0.001000,0.001000
1023.557692,-0.014681,0.001000,0.001000,0.001000,0.001000,0.001000
1023.576923,-0.016034,0.001000,0.001000,0.001000,0.001000,0.001000
1023.596154,-0.017375,0.001000,0.001000,0.001000,0.001000,0.001000
1023.615385,-0.018702,0.001000,0.001000,0.001000,0.001000,0.001000
1023.634615,-0.020014,0.001000,0.001000,0.001000,0.001000,0.001000
1023.653846,-0.021309,0.001000,0.001000,0.001000,0.001000,0.001000
1023.673077,-0.022587,0.001000,0.001000,0.001000,0.001000,0.001000
1023.692308,-0.023847,0.001000,0.001000,0.001000,0.001000,0.001000
1023.711538,-0.025088,0.001000,0.001000,0.001000,0.001000,0.001000
1023.730769,-0.026308,0.001000,0.001000,0.001000,0.001000,0.001000
1023.750000,-0.027507,0.001000,0.001000,0.001000,0.001000,0.001000
1023.769231,-0.028684,0.001000,0.001000,0.001000,0.001000,0.001000
1023.788462,-0.029837,0.001000,0.001000,0.001000,0.001000,0.001000
1023.807692,-0.030967,0.001000,0.001000,0.001000,0.001000,0.001000
1023.826923,-0.032071,0.001000,0.001000,0.001000,0.001000,0.001000
1023.846154,-0.033149,0.001000,0.001000,0.001000,0.001000,0.001000
1023.865385,-0.034201,0.001000,0.001000,0.001000,0.001000,0.001000
1023.884615,-0.035225,0.001000,0.001000,0.001000,0.001000,0.001000
1023.903846,-0.036220,0.001000,0.001000,0.001000,0.001000,0.001000
1023.923077,-0.037186,0.001000,0.001000,0.001000,0.001000,0.001000
1023.942308,-0.038122,0.001000,0.001000,0.001000,0.001000,0.001000
1023.961538,-0.039027,0.001000,0.001000,0.001000,0.001000,0.001000
1023.980769,-0.039900,0.001000,0.001000,0.001000,0.001000,0.001000
1024.000000,-0.040741,0.001000,0.001000,0.001000,0.001000,0.001000
1024.019231,-0.041550,0.001000,0.001000,0.001000,0.001000,0.001000
1024.038462,-0.042324,0.001000,0.001000,0.001000,0.001000,0.001000
1024.057692,-0.043064,0.001000,0.001000,0.001000,0.001000,0.001000
1024.076923,-0.043770,0.001000,0.001000,0.001000,0.001000,0.001000
1024.096154,-0.044440,0.001000,0.001000,0.001000,0.001000,0.001000
1024.115385,-0.045074,0.001000,0.001000,0.001000,0.001000,0.001000
1024.134615,-0.045671,0.001000,0.001000,0.001000,0.001000,0.001000
1024.153846,-0.046231,0.001000,0.001000,0.001000,0.001000,0.001000
1024.173077,-0.046755,0.001000,0.001000,0.001000,0.001000,0.001000
1024.192308,-0.047240,0.001000,0.001000,0.001000,0.001000,0.001000
1024.211538,-0.047687,0.001000,0.001000,0.001000,0.001000,0.001000
1024.230769,-0.048095,0.001000,0.001000,0.001000,0.001000,0.001000
1024.250000,-0.048465,0.001000,0.001000,0.001000,0.001000,0.001000
1024.269231,-0.048795,0.001000,0.001000,0.001000,0.001000,0.001000
1024.288462,-0.049085,0.001000,0.001000,0.001000,0.001000,0.001000
1024.307692,-0.049336,0.001000,0.001000,0.001000,0.001000,0.001000
1024.326923,-0.049547,0.001000,0.001000,0.001000,0.001000,0.001000
1024.346154,-0.049718,0.001000,0.001000,0.001000,0.001000,0.001000
1024.365385,-0.049849,0.001000,0.001000,0.001000,0.001000,0.001000
1024.384615,-0.049939,0.001000,0.001000,0.001000,0.001000,0.001000
1024.403846,-0.049989,0.001000,0.001000,0.001000,0.001000,0.001000
1024.423077,-0.049999,0.001000,0.001000,0.001000,0.001000,0.001000
1024.442308,-0.049967,0.001000,0.001000,0.001000,0.001000,0.001000
1024.461538,-0.049896,0.001000,0.001000,0.001000,0.001000,0.001000
1024.480769,-0.049784,0.001000,0.001000,0.001000,0.001000,0.001000
1024.500000,-0.049632,0.001000,0.001000,0.001000,0.001000,0.001000
1024.519231,-0.049439,0.001000,0.001000,0.001000,0.001000,0.001000
1024.538462,-0.049207,0.001000,0.001000,0.001000,0.001000,0.001000
1024.557692,-0.048935,0.001000,0.001000,0.001000,0.001000,0.001000
1024.576923,-0.048623,0.001000,0.001000,0.001000,0.001000,0.001000
1024.596154,-0.048272,0.001000,0.001000,0.001000,0.001000,0.001000
1024.615385,-0.047881,0.001000,0.001000,0.001000,0.001000,0.001000
1024.634615,-0.047452,0.001000,0.001000,0.001000,0.001000,0.001000
1024.653846,-0.046985,0.001000,0.001000,0.001000,0.001000,0.001000
1024.673077,-0.046479,0.001000,0.001000,0.001000,0.001000,0.001000
1024.692308,-0.045936,0.001000,0.001000,0.001000,0.001000,0.001000
1024.711538,-0.045356,0.001000,0.001000,0.001000,0.001000,0.001000
1024.730769,-0.044739,0.001000,0.001000,0.001000,0.001000,0.001000
1024.750000,-0.044085,0.001000,0.001000,0.001000,0.001000,0.001000
1024.769231,-0.043397,0.001000,0.001000,0.001000,0.001000,0.001000
1024.788462,-0.042672,0.001000,0.001000,0.001000,0.001000,0.001000
1024.807692,-0.041914,0.001000,0.001000,0.001000,0.001000,0.001000
1024.826923,-0.041121,0.001000,0.001000,0.001000,0.001000,0.001000
1024.846154,-0.040295,0.001000,0.001000,0.001000,0.001000,0.001000
1024.865385,-0.039437,0.001000,0.001000,0.001000,0.001000,0.001000
1024.884615,-0.038546,0.001000,0.001000,0.001000,0.001000,0.001000
1024.903846,-0.037625,0.001000,0.001000,0.001000,0.001000,0.001000
1024.923077,-0.036673,0.001000,0.001000,0.001000,0.001000,0.001000
1024.942308,-0.035691,0.001000,0.001000,0.001000,0.001000,0.001000
1024.961538,-0.034680,0.001000,0.001000,0.001000,0.001000,0.001000
1024.980769,-0.033642,0.001000,0.001000,0.001000,0.001000,0.001000
1025.000000,-0.032576,0.001000,0.001000,0.001000,0.001000,0.001000
1025.019231,-0.031483,0.001000,0.001000,0.001000,0.001000,0.001000
1025.038462,-0.030366,0.001000,0.001000,0.001000,0.001000,0.001000
1025.057692,-0.029223,0.001000,0.001000,0.001000,0.001000,0.001000
1025.076923,-0.028057,0.001000,0.001000,0.001000,0.001000,0.001000
1025.096154,-0.026868,0.001000,0.001000,0.001000,0.001000,0.001000
1025.115385,-0.025658,0.001000,0.001000,0.001000,0.001000,0.001000
1025.134615,-0.024426,0.001000,0.001000,0.001000,0.001000,0.001000
1025.153846,-0.023175,0.001000,0.001000,0.001000,0.001000,0.001000
1025.173077,-0.021906,0.001000,0.001000,0.001000,0.001000,0.001000
1025.192308,-0.020618,0.001000,0.001000,0.001000,0.001000,0.001000
1025.211538,-0.019314,0.001000,0.001000,0.001000,0.001000,0.001000
1025.230769,-0.017994,0.001000,0.001000,0.001000,0.001000,0.001000
1025.250000,-0.016659,0.001000,0.001000,0.001000,0.001000,0.001000
1025.269231,-0.015311,0.001000,0.001000,0.001000,0.001000,0.001000
1025.288462,-0.013951,0.001000,0.001000,0.001000,0.001000,0.001000
1025.307692,-0.012579,0.001000,0.001000,0.001000,0.001000,0.001000
1025.326923,-0.011198,0.001000,0.001000,0.001000,0.001000,0.001000
1025.346154,-0.009807,0.001000,0.001000,0.001000,0.001000,0.001000
1025.365385,-0.008408,0.001000,0.001000,0.001000,0.001000,0.001000
1025.384615,-0.007002,0.001000,0.001000,0.001000,0.001000,0.001000
1025.403846,-0.005591,0.001000,0.001000,0.001000,0.001000,0.001000
1025.423077,-0.004175,0.001000,0.001000,0.001000,0.001000,0.001000
1025.442308,-0.002756,0.001000,0.001000,0.001000,0.001000,0.001000
1025.461538,-0.001335,0.001000,0.001000,0.001000,0.001000,0.001000
1025.480769,0.000088,0.001000,0.001000,0.001000,0.001000,0.001000
1025.500000,0.001510,0.001000,0.001000,0.001000,0.001000,0.001000
1025.519231,0.002932,0.001000,0.001000,0.001000,0.001000,0.001000
1025.538462,0.004350,0.001000,0.001000,0.001000,0.001000,0.001000
1025.557692,0.005766,0.001000,0.001000,0.001000,0.001000,0.001000
1025.576923,0.007176,0.001000,0.001000,0.001000,0.001000,0.001000
1025.596154,0.008581,0.001000,0.001000,0.001000,0.001000,0.001000
1025.615385,0.009979,0.001000,0.001000,0.001000,0.001000,0.001000
1025.634615,0.011369,0.001000,0.001000,0.001000,0.001000,0.001000
1025.653846,0.012750,0.001000,0.001000,0.001000,0.001000,0.001000
1025.673077,0.014120,0.001000,0.001000,0.001000,0.001000,0.001000
1025.692308,0.015479,0.001000,0.001000,0.001000,0.001000,0.001000
1025.711538,0.016825,0.001000,0.001000,0.001000,0.001000,0.001000
1025.730769,0.018158,0.001000,0.001000,0.001000,0.001000,0.001000
1025.750000,0.019476,0.001000,0.001000,0.001000,0.001000,0.001000
1025.769231,0.020778,0.001000,0.001000,0.001000,0.001000,0.001000
1025.788462,0.022064,0.001000,0.001000,0.001000,0.001000,0.001000
1025.807692,0.023331,0.001000,0.001000,0.001000,0.001000,0.001000
1025.826923,0.024580,0.001000,0.001000,0.001000,0.001000,0.001000
1025.846154,0.025809,0.001000,0.001000,0.001000,0.001000,0.001000
1025.865385,0.027016,0.001000,0.001000,0.001000,0.001000,0.001000
1025.884615,0.028202,0.001000,0.001000,0.001000,0.001000,0.001000
1025.903846,0.029366,0.001000,0.001000,0.001000,0.001000,0.001000
1025.923077,0.030505,0.001000,0.001000,0.001000,0.001000,0.001000
1025.942308,0.031620,0.001000,0.001000,0.001000,0.001000,0.001000
1025.961538,0.032709,0.001000,0.001000,0.001000,0.001000,0.001000
1025.980769,0.033772,0.001000,0.001000,0.001000,0.001000,0.001000
1026.000000,0.034807,0.001000,0.001000,0.001000,0.001000,0.001000
1026.019231,0.035814,0.001000,0.001000,0.001000,0.001000,0.001000
1026.038462,0.036792,0.001000,0.001000,0.001000,0.001000,0.001000
1026.057692,0.037740,0.001000,0.001000,0.001000,0.001000,0.001000
1026.076923,0.038658,0.001000,0.001000,0.001000,0.001000,0.001000
1026.096154,0.039545,0.001000,0.001000,0.001000,0.001000,0.001000
1026.115385,0.040399,0.001000,0.001000,0.001000,0.001000,0.001000
1026.134615,0.041221,0.001000,0.001000,0.001000,0.001000,0.001000
1026.153846,0.042009,0.001000,0.001000,0.001000,0.001000,0.001000
1026.173077,0.042764,0.001000,0.001000,0.001000,0.001000,0.001000
1026.192308,0.043484,0.001000,0.001000,0.001000,0.001000,0.001000
1026.211538,0.044168,0.001000,0.001000,0.001000,0.001000,0.001000
1026.230769,0.044817,0.001000,0.001000,0.001000,0.001000,0.001000
1026.250000,0.045430,0.001000,0.001000,0.001000,0.001000,0.001000
1026.269231,0.046005,0.001000,0.001000,0.001000,0.001000,0.001000
1026.288462,0.046544,0.001000,0.001000,0.001000,0.001000,0.001000
1026.307692,0.047045,0.001000,0.001000,0.001000,0.001000,0.001000
1026.326923,0.047507,0.001000,0.001000,0.001000,0.001000,0.001000
1026.346154,0.047932,0.001000,0.001000,0.001000,0.001000,0.001000
1026.365385,0.048317,0.001000,0.001000,0.001000,0.001000,0.001000
1026.384615,0.048664,0.001000,0.001000,0.001000,0.001000,0.001000
1026.403846,0.048971,0.001000,0.001000,0.001000,0.001000,0.001000
1026.423077,0.049238,0.001000,0.001000,0.001000,0.001000,0.001000
1026.442308,0.049465,0.001000,0.001000,0.001000,0.001000,0.001000
1026.461538,0.049653,0.001000,0.001000,0.001000,0.001000,0.001000
1026.480769,0.049800,0.001000,0.001000,0.001000,0.001000,0.001000
1026.500000,0.049907,0.001000,0.001000,0.001000,0.001000,0.001000
1026.519231,0.049974,0.001000,0.001000,0.001000,0.001000,0.001000
1026.538462,0.050000,0.001000,0.001000,0.001000,0.001000,0.001000
1026.557692,0.049985,0.001000,0.001000,0.001000,0.001000,0.001000
1026.576923,0.049930,0.001000,0.001000,0.001000,0.001000,0.001000
1026.596154,0.049835,0.001000,0.001000,0.001000,0.001000,0.001000
1026.615385,0.049699,0.001000,0.001000,0.001000,0.001000,0.001000
1026.634615,0.049523,0.001000,0.001000,0.001000,0.001000,0.001000
1026.653846,0.049308,0.001000,0.001000,0.001000,0.001000,0.001000
1026.673077,0.049052,0.001000,0.001000,0.001000,0.001000,0.001000
1026.692308,0.048756,0.001000,0.001000,0.001000,0.001000,0.001000
1026.711538,0.048421,0.001000,0.001000,0.001000,0.001000,0.001000
1026.730769,0.048047,0.001000,0.001000,0.001000,0.001000,0.001000
1026.750000,0.047634,0.001000,0.001000,0.001000,0.001000,0.001000
1026.769231,0.047182,0.001000,0.001000,0.001000,0.001000,0.001000
1026.788462,0.046692,0.001000,0.001000,0.001000,0.001000,0.001000
1026.807692,0.046164,0.001000,0.001000,0.001000,0.001000,0.001000
1026.826923,0.045599,0.001000,0.001000,0.001000,0.001000,0.001000
1026.846154,0.044997,0.001000,0.001000,0.001000,0.001000,0.001000
1026.865385,0.044359,0.001000,0.001000,0.001000,0.001000,0.001000
1026.884615,0.043684,0.001000,0.001000,0.001000,0.001000,0.001000
1026.903846,0.042975,0.001000,0.001000,0.001000,0.001000,0.001000
1026.923077,0.042230,0.001000,0.001000,0.001000,0.001000,0.001000
1026.942308,0.041451,0.001000,0.001000,0.001000,0.001000,0.001000
1026.961538,0.040639,0.001000,0.001000,0.001000,0.001000,0.001000
1026.980769,0.039794,0.001000,0.001000,0.001000,0.001000,0.001000
1027.000000,0.038917,0.001000,0.001000,0.001000,0.001000,0.001000
1027.019231,0.038008,0.001000,0.001000,0.001000,0.001000,0.001000
1027.038462,0.037068,0.001000,0.001000,0.001000,0.001000,0.001000
1027.057692,0.036099,0.001000,0.001000,0.001000,0.001000,0.001000
1027.076923,0.035100,0.001000,0.001000,0.001000,0.001000,0.001000
1027.096154,0.034072,0.001000,0.001000,0.001000,0.001000,0.001000
1027.115385,0.033018,0.001000,0.001000,0.001000,0.001000,0.001000
1027.134615,0.031936,0.001000,0.001000,0.001000,0.001000,0.001000
1027.153846,0.030829,0.001000,0.001000,0.001000,0.001000,0.001000
1027.173077,0.029696,0.001000,0.001000,0.001000,0.001000,0.001000
1027.192308,0.028540,0.001000,0.001000,0.001000,0.001000,0.001000
1027.211538,0.027360,0.001000,0.001000,0.001000,0.001000,0.001000
1027.230769,0.026158,0.001000,0.001000,0.001000,0.001000,0.001000
1027.250000,0.024936,0.001000,0.001000,0.001000,0.001000,0.001000
1027.269231,0.023693,0.001000,0.001000,0.001000,0.001000,0.001000
1027.288462,0.022430,0.001000,0.001000,0.001000,0.001000,0.001000
1027.307692,0.021150,0.001000,0.001000,0.001000,0.001000,0.001000
1027.326923,0.019852,0.001000,0.001000,0.001000,0.001000,0.001000
1027.346154,0.018539,0.001000,0.001000,0.001000,0.001000,0.001000
1027.365385,0.017210,0.001000,0.001000,0.001000,0.001000,0.001000
1027.384615,0.015868,0.001000,0.001000,0.001000,0.001000,0.001000
1027.403846,0.014512,0.001000,0.001000,0.001000,0.001000,0.001000
1027.423077,0.013145,0.001000,0.001000,0.001000,0.001000,0.001000
1027.442308,0.011767,0.001000,0.001000,0.001000,0.001000,0.001000
1027.461538,0.010380,0.001000,0.001000,0.001000,0.001000,0.001000
1027.480769,0.008984,0.001000,0.001000,0.001000,0.001000,0.001000
1027.500000,0.007582,0.001000,0.001000,0.001000,0.001000,0.001000
1027.519231,0.006172,0.001000,0.001000,0.001000,0.001000,0.001000
1027.538462,0.004758,0.001000,0.001000,0.001000,0.001000,0.001000
1027.557692,0.003340,0.001000,0.001000,0.001000,0.001000,0.001000
1027.576923,0.001920,0.001000,0.001000,0.001000,0.001000,0.001000
1027.596154,0.000497,0.001000,0.001000,0.001000,0.001000,0.001000
1027.615385,-0.000925,0.001000,0.001000,0.001000,0.001000,0.001000
1027.634615,-0.002347,0.001000,0.001000,0.001000,0.001000,0.001000
1027.653846,-0.003767,0.001000,0.001000,0.001000,0.001000,0.001000
1027.673077,-0.005184,0.001000,0.001000,0.001000,0.001000,0.001000
1027.692308,-0.006597,0.001000,0.001000,0.001000,0.001000,0.001000
1027.711538,-0.008004,0.001000,0.001000,0.001000,0.001000,0.001000
1027.730769,-0.009405,0.001000,0.001000,0.001000,0.001000,0.001000
1027.750000,-0.010798,0.001000,0.001000,0.001000,0.001000,0.001000
1027.769231,-0.012183,0.001000,0.001000,0.001000,0.001000,0.001000
1027.788462,-0.013557,0.001000,0.001000,0.001000,0.001000,0.001000
1027.807692,-0.014921,0.001000,0.001000,0.001000,0.001000,0.001000
1027.826923,-0.016273,0.001000,0.001000,0.001000,0.001000,0.001000
1027.846154,-0.017611,0.001000,0.001000,0.001000,0.001000,0.001000
1027.865385,-0.018935,0.001000,0.001000,0.001000,0.001000,0.001000
1027.884615,-0.020244,0.001000,0.001000,0.001000,0.001000,0.001000
1027.903846,-0.021537,0.001000,0.001000,0.001000,0.001000,0.001000
1027.923077,-0.022812,0.001000,0.001000,0.001000,0.001000,0.001000
1027.942308,-0.024068,0.001000,0.001000,0.001000,0.001000,0.001000
1027.961538,-0.025305,0.001000,0.001000,0.001000,0.001000,0.001000
1027.980769,-0.026522,0.001000,0.001000,0.001000,0.001000,0.001000
1028.000000,-0.027717,0.001000,0.001000,0.001000,0.001000,0.001000
1028.019231,-0.028890,0.001000,0.001000,0.001000,0.001000,0.001000
1028.038462,-0.030039,0.001000,0.001000,0.001000,0.001000,0.001000
1028.057692,-0.031164,0.001000,0.001000,0.001000,0.001000,0.001000
1028.076923,-0.032264,0.001000,0.001000,0.001000,0.001000,0.001000
1028.096154,-0.033338,0.001000,0.001000,0.001000,0.001000,0.001000
1028.115385,-0.034384,0.001000,0.001000,0.001000,0.001000,0.001000
1028.134615,-0.035403,0.001000,0.001000,0.001000,0.001000,0.001000
1028.153846,-0.036393,0.001000,0.001000,0.001000,0.001000,0.001000
1028.173077,-0.037354,0.001000,0.001000,0.001000,0.001000,0.001000
1028.192308,-0.038284,0.001000,0.001000,0.001000,0.001000,0.001000
1028.211538,-0.039184,0.001000,0.001000,0.001000,0.001000,0.001000
1028.230769,-0.040052,0.001000,0.001000,0.001000,0.001000,0.001000
1028.250000,-0.040887,0.001000,0.001000,0.001000,0.001000,0.001000
1028.269231,-0.041689,0.001000,0.001000,0.001000,0.001000,0.001000
1028.288462,-0.042458,0.001000,0.001000,0.001000,0.001000,0.001000
1028.307692,-0.043192,0.001000,0.001000,0.001000,0.001000,0.001000
1028.326923,-0.043891,0.001000,0.001000,0.001000,0.001000,0.001000
1028.346154,-0.044554,0.001000,0.001000,0.001000,0.001000,0.001000
1028.365385,-0.045182,0.001000,0.001000,0.001000,0.001000,0.001000
1028.384615,-0.045773,0.001000,0.001000,0.001000,0.001000,0.001000
1028.403846,-0.046327,0.001000,0.001000,0.001000,0.001000,0.001000
1028.423077,-0.046843,0.001000,0.001000,0.001000,0.001000,0.001000
1028.442308,-0.047322,0.001000,0.001000,0.001000,0.001000,0.001000
1028.461538,-0.047762,0.001000,0.001000,0.001000,0.001000,0.001000
1028.480769,-0.048163,0.001000,0.001000,0.001000,0.001000,0.001000
1028.500000,-0.048526,0.001000,0.001000,0.001000,0.001000,0.001000
1028.519231,-0.048849,0.001000,0.001000,0.001000,0.001000,0.001000
1028.538462,-0.049133,0.001000,0.001000,0.001000,0.001000,0.001000
1028.557692,-0.049377,0.001000,0.001000,0.001000,0.001000,0.001000
1028.576923,-0.049581,0.001000,0.001000,0.001000,0.001000,0.001000
1028.596154,-0.049744,0.001000,0.001000,0.001000,0.001000,0.001000
1028.615385,-0.049868,0.001000,0.001000,0.001000,0.001000,0.001000
1028.634615,-0.049951,0.001000,0.001000,0.001000,0.001000,0.001000
1028.653846,-0.049994,0.001000,0.001000,0.001000,0.001000,0.001000
1028.673077,-0.049996,0.001000,0.001000,0.001000,0.001000,0.001000
1028.692308,-0.049958,0.001000,0.001000,0.001000,0.001000,0.001000
1028.711538,-0.049879,0.001000,0.001000,0.001000,0.001000,0.001000
1028.730769,-0.049760,0.001000,0.001000,0.001000,0.001000,0.001000
1028.750000,-0.049601,0.001000,0.001000,0.001000,0.001000,0.001000
1028.769231,-0.049401,0.001000,0.001000,0.001000,0.001000,0.001000
1028.788462,-0.049162,0.001000,0.001000,0.001000,0.001000,0.001000
1028.807692,-0.048882,0.001000,0.001000,0.001000,0.001000,0.001000
1028.826923,-0.048564,0.001000,0.001000,0.001000,0.001000,0.001000
1028.846154,-0.048205,0.001000,0.001000,0.001000,0.001000,0.001000
1028.865385,-0.047808,0.001000,0.001000,0.001000,0.001000,0.001000
1028.884615,-0.047372,0.001000,0.001000,0.001000,0.001000,0.001000
1028.903846,-0.046898,0.001000,0.001000,0.001000,0.001000,0.001000
1028.923077,-0.046386,0.001000,0.001000,0.001000,0.001000,0.001000
1028.942308,-0.045836,0.001000,0.001000,0.001000,0.001000,0.001000
1028.961538,-0.045249,0.001000,0.001000,0.001000,0.001000,0.001000
1028.980769,-0.044626,0.001000,0.001000,0.001000,0.001000,0.001000
1029.000000,-0.043966,0.001000,0.001000,0.001000,0.001000,0.001000
1029.019231,-0.043271,0.001000,0.001000,0.001000,0.001000,0.001000
1029.038462,-0.042541,0.001000,0.001000,0.001000,0.001000,0.001000
1029.057692,-0.041776,0.001000,0.001000,0.001000,0.001000,0.001000
1029.076923,-0.040977,0.001000,0.001000,0.001000,0.001000,0.001000
1029.096154,-0.040146,0.001000,0.001000,0.001000,0.001000,0.001000
1029.115385,-0.039282,0.001000,0.001000,0.001000,0.001000,0.001000
1029.134615,-0.038386,0.001000,0.001000,0.001000,0.001000,0.001000
1029.153846,-0.037459,0.001000,0.001000,0.001000,0.001000,0.001000
1029.173077,-0.036501,0.001000,0.001000,0.001000,0.001000,0.001000
1029.192308,-0.035514,0.001000,0.001000,0.001000,0.001000,0.001000
1029.211538,-0.034499,0.001000,0.001000,0.001000,0.001000,0.001000
1029.230769,-0.033455,0.001000,0.001000,0.001000,0.001000,0.001000
1029.250000,-0.032384,0.001000,0.001000,0.001000,0.001000,0.001000
1029.269231,-0.031287,0.001000,0.001000,0.001000,0.001000,0.001000
1029.288462,-0.030165,0.001000,0.001000,0.001000,0.001000,0.001000
1029.307692,-0.029018,0.001000,0.001000,0.001000,0.001000,0.001000
1029.326923,-0.027848,0.001000,0.001000,0.001000,0.001000,0.001000
1029.346154,-0.026656,0.001000,0.001000,0.001000,0.001000,0.001000
1029.365385,-0.025441,0.001000,0.001000,0.001000,0.001000,0.001000
1029.384615,-0.024206,0.001000,0.001000,0.001000,0.001000,0.001000
1029.403846,-0.022952,0.001000,0.001000,0.001000,0.001000,0.001000
1029.423077,-0.021679,0.001000,0.001000,0.001000,0.001000,0.001000
1029.442308,-0.020388,0.001000,0.001000,0.001000,0.001000,0.001000
1029.461538,-0.019081,0.001000,0.001000,0.001000,0.001000,0.001000
1029.480769,-0.017759,0.001000,0.001000,0.001000,0.001000,0.001000
1029.500000,-0.016422,0.001000,0.001000,0.001000,0.001000,0.001000
1029.519231,-0.015072,0.001000,0.001000,0.001000,0.001000,0.001000
1029.538462,-0.013709,0.001000,0.001000,0.001000,0.001000,0.001000
1029.557692,-0.012336,0.001000,0.001000,0.001000,0.001000,0.001000
1029.576923,-0.010952,0.001000,0.001000,0.001000,0.001000,0.001000
1029.596154,-0.009560,0.001000,0.001000,0.001000,0.001000,0.001000
1029.615385,-0.008160,0.001000,0.001000,0.001000,0.001000,0.001000
1029.634615,-0.006753,0.001000,0.001000,0.001000,0.001000,0.001000
1029.653846,-0.005341,0.001000,0.001000,0.001000,0.001000,0.001000
1029.673077,-0.003924,0.001000,0.001000,0.001000,0.001000,0.001000
1029.692308,-0.002505,0.001000,0.001000,0.001000,0.001000,0.001000
1029.711538,-0.001083,0.001000,0.001000,0.001000,0.001000,0.001000
1029.730769,0.000340,0.001000,0.001000,0.001000,0.001000,0.001000
1029.750000,0.001762,0.001000,0.001000,0.001000,0.001000,0.001000
1029.769231,0.003183,0.001000,0.001000,0.001000,0.001000,0.001000
1029.788462,0.004601,0.001000,0.001000,0.001000,0.001000,0.001000
1029.807692,0.006016,0.001000,0.001000,0.001000,0.001000,0.001000
1029.826923,0.007426,0.001000,0.001000,0.001000,0.001000,0.001000
1029.846154,0.008829,0.001000,0.001000,0.001000,0.001000,0.001000
1029.865385,0.010226,0.001000,0.001000,0.001000,0.001000,0.001000
1029.884615,0.011614,0.001000,0.001000,0.001000,0.001000,0.001000
1029.903846,0.012993,0.001000,0.001000,0.001000,0.001000,0.001000
1029.923077,0.014361,0.001000,0.001000,0.001000,0.001000,0.001000
1029.942308,0.015718,0.001000,0.001000,0.001000,0.001000,0.001000
1029.961538,0.017062,0.001000,0.001000,0.001000,0.001000,0.001000
1029.980769,0.018392,0.001000,0.001000,0.001000,0.001000,0.001000
1030.000000,0.000000,0.001000,0.001000,0.001000,0.001000,0.001000
1030.019231,0.001343,0.001000,0.001000,0.001000,0.001000,0.001000
1030.038462,0.002685,0.001000,0.001000,0.001000,0.001000,0.001000
1030.057692,0.004025,0.001000,0.001000,0.001000,0.001000,0.001000
1030.076923,0.005362,0.001000,0.001000,0.001000,0.001000,0.001000
1030.096154,0.006695,0.001000,0.001000,0.001000,0.001000,0.001000
1030.115385,0.008024,0.001000,0.001000,0.001000,0.001000,0.001000
1030.134615,0.009346,0.001000,0.001000,0.001000,0.001000,0.001000
1030.153846,0.010662,0.001000,0.001000,0.001000,0.001000,0.001000
1030.173077,0.011971,0.001000,0.001000,0.001000,0.001000,0.001000
1030.192308,0.013270,0.001000,0.001000,0.001000,0.001000,0.001000
1030.211538,0.014560,0.001000,0.001000,0.001000,0.001000,0.001000
1030.230769,0.015840,0.001000,0.001000,0.001000,0.001000,0.001000
1030.250000,0.017108,0.001000,0.001000,0.001000,0.001000,0.001000
1030.269231,0.018363,0.001000,0.001000,0.001000,0.001000,0.001000
1030.288462,0.019606,0.001000,0.001000,0.001000,0.001000,0.001000
1030.307692,0.020834,0.001000,0.001000,0.001000,0.001000,0.001000
1030.326923,0.022047,0.001000,0.001000,0.001000,0.001000,0.001000
1030.346154,0.023245,0.001000,0.001000,0.001000,0.001000,0.001000
1030.365385,0.024425,0.001000,0.001000,0.001000,0.001000,0.001000
1030.384615,0.025588,0.001000,0.001000,0.001000,0.001000,0.001000
1030.403846,0.026733,0.001000,0.001000,0.001000,0.001000,0.001000
1030.423077,0.027858,0.001000,0.001000,0.001000,0.001000,0.001000
1030.442308,0.028963,0.001000,0.001000,0.001000,0.001000,0.001000
1030.461538,0.030047,0.001000,0.001000,0.001000,0.001000,0.001000
1030.480769,0.031110,0.001000,0.001000,0.001000,0.001000,0.001000
1030.500000,0.032150,0.001000,0.001000,0.001000,0.001000,0.001000
1030.519231,0.033167,0.001000,0.001000,0.001000,0.001000,0.001000
1030.538462,0.034160,0.001000,0.001000,0.001000,0.001000,0.001000
1030.557692,0.035128,0.001000,0.001000,0.001000,0.001000,0.001000
1030.576923,0.036071,0.001000,0.001000,0.001000,0.001000,0.001000
1030.596154,0.036988,0.001000,0.001000,0.001000,0.001000,0.001000
1030.615385,0.037879,0.001000,0.001000,0.001000,0.001000,0.001000
1030.634615,0.038742,0.001000,0.001000,0.001000,0.001000,0.001000
1030.653846,0.039577,0.001000,0.001000,0.001000,0.001000,0.001000
1030.673077,0.040383,0.001000,0.001000,0.001000,0.001000,0.001000
1030.692308,0.041160,0.001000,0.001000,0.001000,0.001000,0.001000
1030.711538,0.041908,0.001000,0.001000,0.001000,0.001000,0.001000
1030.730769,0.042625,0.001000,0.001000,0.001000,0.001000,0.001000
1030.750000,0.043312,0.001000,0.001000,0.001000,0.001000,0.001000
1030.769231,0.043967,0.001000,0.001000,0.001000,0.001000,0.001000
1030.788462,0.044591,0.001000,0.001000,0.001000,0.001000,0.001000
1030.807692,0.045182,0.001000,0.001000,0.001000,0.001000,0.001000
1030.826923,0.045741,0.001000,0.001000,0.001000,0.001000,0.001000
1030.846154,0.046267,0.001000,0.001000,0.001000,0.001000,0.001000
1030.865385,0.046759,0.001000,0.001000,0.001000,0.001000,0.001000
1030.884615,0.047218,0.001000,0.001000,0.001000,0.001000,0.001000
1030.903846,0.047643,0.001000,0.001000,0.001000,0.001000,0.001000
1030.923077,0.048033,0.001000,0.001000,0.001000,0.001000,0.001000
1030.942308,0.048389,0.001000,0.001000,0.001000,0.001000,0.001000
1030.961538,0.048709,0.001000,0.001000,0.001000,0.001000,0.001000
1030.980769,0.048995,0.001000,0.001000,0.001000,0.001000,0.001000
1031.000000,0.049245,0.001000,0.001000,0.001000,0.001000,0.001000
1031.019231,0.049460,0.001000,0.001000,0.001000,0.001000,0.001000
1031.038462,0.049639,0.001000,0.001000,0.001000,0.001000,0.001000
1031.057692,0.049782,0.001000,0.001000,0.001000,0.001000,0.001000
1031.076923,0.049889,0.001000,0.001000,0.001000,0.001000,0.001000
1031.096154,0.049961,0.001000,0.001000,0.001000,0.001000,0.001000
1031.115385,0.049996,0.001000,0.001000,0.001000,0.001000,0.001000
1031.134615,0.049995,0.001000,0.001000,0.001000,0.001000,0.001000
1031.153846,0.049958,0.001000,0.001000,0.001000,0.001000,0.001000
1031.173077,0.049885,0.001000,0.001000,0.001000,0.001000,0.001000
1031.192308,0.049776,0.001000,0.001000,0.001000,0.001000,0.001000
1031.211538,0.049631,0.001000,0.001000,0.001000,0.001000,0.001000
1031.230769,0.049451,0.001000,0.001000,0.001000,0.001000,0.001000
1031.250000,0.049234,0.001000,0.001000,0.001000,0.001000,0.001000
1031.269231,0.048982,0.001000,0.001000,0.001000,0.001000,0.001000
1031.288462,0.048695,0.001000,0.001000,0.001000,0.001000,0.001000
1031.307692,0.048373,0.001000,0.001000,0.001000,0.001000,0.001000
1031.326923,0.048016,0.001000,0.001000,0.001000,0.001000,0.001000
1031.346154,0.047624,0.001000,0.001000,0.001000,0.001000,0.001000
1031.365385,0.047197,0.001000,0.001000,0.001000,0.001000,0.001000
1031.384615,0.046737,0.001000,0.001000,0.001000,0.001000,0.001000
1031.403846,0.046243,0.001000,0.001000,0.001000,0.001000,0.001000
1031.423077,0.045716,0.001000,0.001000,0.001000,0.001000,0.001000
1031.442308,0.045155,0.001000,0.001000,0.001000,0.001000,0.001000
1031.461538,0.044562,0.001000,0.001000,0.001000,0.001000,0.001000
1031.480769,0.043937,0.001000,0.001000,0.001000,0.001000,0.001000
1031.500000,0.043280,0.001000,0.001000,0.001000,0.001000,0.001000
1031.519231,0.042592,0.001000,0.001000,0.001000,0.001000,0.001000
1031.538462,0.041873,0.001000,0.001000,0.001000,0.001000,0.001000
1031.557692,0.041124,0.001000,0.001000,0.001000,0.001000,0.001000
1031.576923,0.040346,0.001000,0.001000,0.001000,0.001000,0.001000
1031.596154,0.039538,0.001000,0.001000,0.001000,0.001000,0.001000
1031.615385,0.038701,0.001000,0.001000,0.001000,0.001000,0.001000
1031.634615,0.037837,0.001000,0.001000,0.001000,0.001000,0.001000
1031.653846,0.036946,0.001000,0.001000,0.001000,0.001000,0.001000
1031.673077,0.036027,0.001000,0.001000,0.001000,0.001000,0.001000
1031.692308,0.035083,0.001000,0.001000,0.001000,0.001000,0.001000
1031.711538,0.034114,0.001000,0.001000,0.001000,0.001000,0.001000
1031.730769,0.033120,0.001000,0.001000,0.001000,0.001000,0.001000
1031.750000,0.032102,0.001000,0.001000,0.001000,0.001000,0.001000
1031.769231,0.031060,0.001000,0.001000,0.001000,0.001000,0.001000
1031.788462,0.029997,0.001000,0.001000,0.001000,0.001000,0.001000
1031.807692,0.028912,0.001000,0.001000,0.001000,0.001000,0.001000
1031.826923,0.027806,0.001000,0.001000,0.001000,0.001000,0.001000
1031.846154,0.026679,0.001000,0.001000,0.001000,0.001000,0.001000
1031.865385,0.025534,0.001000,0.001000,0.001000,0.001000,0.001000
1031.884615,0.024370,0.001000,0.001000,0.001000,0.001000,0.001000
1031.903846,0.023189,0.001000,0.001000,0.001000,0.001000,0.001000
1031.923077,0.021991,0.001000,0.001000,0.001000,0.001000,0.001000
1031.942308,0.020777,0.001000,0.001000,0.001000,0.001000,0.001000
1031.961538,0.019548,0.001000,0.001000,0.001000,0.001000,0.001000
1031.980769,0.018304,0.001000,0.001000,0.001000,0.001000,0.001000
1032.000000,0.017048,0.001000,0.001000,0.001000,0.001000,0.001000
1032.019231,0.015779,0.001000,0.001000,0.001000,0.001000,0.001000
1032.038462,0.014499,0.001000,0.001000,0.001000,0.001000,0.001000
1032.057692,0.013209,0.001000,0.001000,0.001000,0.001000,0.001000
1032.076923,0.011909,0.001000,0.001000,0.001000,0.001000,0.001000
1032.096154,0.010600,0.001000,0.001000,0.001000,0.001000,0.001000
1032.115385,0.009284,0.001000,0.001000,0.001000,0.001000,0.001000
1032.134615,0.007961,0.001000,0.001000,0.001000,0.001000,0.001000
1032.153846,0.006633,0.001000,0.001000,0.001000,0.001000,0.001000
1032.173077,0.005299,0.001000,0.001000,0.001000,0.001000,0.001000
1032.192308,0.003962,0.001000,0.001000,0.001000,0.001000,0.001000
1032.211538,0.002622,0.001000,0.001000,0.001000,0.001000,0.001000
1032.230769,0.001280,0.001000,0.001000,0.001000,0.001000,0.001000
1032.250000,-0.000063,0.001000,0.001000,0.001000,0.001000,0.001000
1032.269231,-0.001406,0.001000,0.001000,0.001000,0.001000,0.001000
1032.288462,-0.002748,0.001000,0.001000,0.001000,0.001000,0.001000
1032.307692,-0.004088,0.001000,0.001000,0.001000,0.001000,0.001000
1032.326923,-0.005425,0.001000,0.001000,0.001000,0.001000,0.001000
1032.346154,-0.006758,0.001000,0.001000,0.001000,0.001000,0.001000
1032.365385,-0.008086,0.001000,0.001000,0.001000,0.001000,0.001000
1032.384615,-0.009409,0.001000,0.001000,0.001000,0.001000,0.001000
1032.403846,-0.010724,0.001000,0.001000,0.001000,0.001000,0.001000
1032.423077,-0.012032,0.001000,0.001000,0.001000,0.001000,0.001000
1032.442308,-0.013331,0.001000,0.001000,0.001000,0.001000,0.001000
1032.461538,-0.014621,0.001000,0.001000,0.001000,0.001000,0.001000
1032.480769,-0.015900,0.001000,0.001000,0.001000,0.001000,0.001000
1032.500000,-0.017167,0.001000,0.001000,0.001000,0.001000,0.001000
1032.519231,-0.018422,0.001000,0.001000,0.001000,0.001000,0.001000
1032.538462,-0.019664,0.001000,0.001000,0.001000,0.001000,0.001000
1032.557692,-0.020892,0.001000,0.001000,0.001000,0.001000,0.001000
1032.576923,-0.022104,0.001000,0.001000,0.001000,0.001000,0.001000
1032.596154,-0.023301,0.001000,0.001000,0.001000,0.001000,0.001000
1032.615385,-0.024481,0.001000,0.001000,0.001000,0.001000,0.001000
1032.634615,-0.025643,0.001000,0.001000,0.001000,0.001000,0.001000
1032.653846,-0.026786,0.001000,0.001000,0.001000,0.001000,0.001000
1032.673077,-0.027911,0.001000,0.001000,0.001000,0.001000,0.001000
1032.692308,-0.029015,0.001000,0.001000,0.001000,0.001000,0.001000
1032.711538,-0.030098,0.001000,0.001000,0.001000,0.001000,0.001000
1032.730769,-0.031160,0.001000,0.001000,0.001000,0.001000,0.001000
1032.750000,-0.032199,0.001000,0.001000,0.001000,0.001000,0.001000
1032.769231,-0.033214,0.001000,0.001000,0.001000,0.001000,0.001000
1032.788462,-0.034206,0.001000,0.001000,0.001000,0.001000,0.001000
1032.807692,-0.035173,0.001000,0.001000,0.001000,0.001000,0.001000
1032.826923,-0.036115,0.001000,0.001000,0.001000,0.001000,0.001000
1032.846154,-0.037031,0.001000,0.001000,0.001000,0.001000,0.001000
1032.865385,-0.037920,0.001000,0.001000,0.001000,0.001000,0.001000
1032.884615,-0.038782,0.001000,0.001000,0.001000,0.001000,0.001000
1032.903846,-0.039615,0.001000,0.001000,0.001000,0.001000,0.001000
1032.923077,-0.040420,0.001000,0.001000,0.001000,0.001000,0.001000
1032.942308,-0.041196,0.001000,0.001000,0.001000,0.001000,0.001000
1032.961538,-0.041942,0.001000,0.001000,0.001000,0.001000,0.001000
1032.980769,-0.042658,0.001000,0.001000,0.001000,0.001000,0.001000
1033.000000,-0.043343,0.001000,0.001000,0.001000,0.001000,0.001000
1033.019231,-0.043997,0.001000,0.001000,0.001000,0.001000,0.001000
1033.038462,-0.044619,0.001000,0.001000,0.001000,0.001000,0.001000
1033.057692,-0.045209,0.001000,0.001000,0.001000,0.001000,0.001000
1033.076923,-0.045767,0.001000,0.001000,0.001000,0.001000,0.001000
1033.096154,-0.046291,0.001000,0.001000,0.001000,0.001000,0.001000
1033.115385,-0.046782,0.001000,0.001000,0.001000,0.001000,0.001000
1033.134615,-0.047239,0.001000,0.001000,0.001000,0.001000,0.001000
1033.153846,-0.047662,0.001000,0.001000,0.001000,0.001000,0.001000
1033.173077,-0.048051,0.001000,0.001000,0.001000,0.001000,0.001000
1033.192308,-0.048405,0.001000,0.001000,0.001000,0.001000,0.001000
1033.211538,-0.048724,0.001000,0.001000,0.001000,0.001000,0.001000
1033.230769,-0.049008,0.001000,0.001000,0.001000,0.001000,0.001000
1033.250000,-0.049256,0.001000,0.001000,0.001000,0.001000,0.001000
1033.269231,-0.049469,0.001000,0.001000,0.001000,0.001000,0.001000
1033.288462,-0.049647,0.001000,0.001000,0.001000,0.001000,0.001000
1033.307692,-0.049788,0.001000,0.001000,0.001000,0.001000,0.001000
1033.326923,-0.049894,0.001000,0.001000,0.001000,0.001000,0.001000
1033.346154,-0.049963,0.001000,0.001000,0.001000,0.001000,0.001000
1033.365385,-0.049997,0.001000,0.001000,0.001000,0.001000,0.001000
1033.384615,-0.049994,0.001000,0.001000,0.001000,0.001000,0.001000
1033.403846,-0.049956,0.001000,0.001000,0.001000,0.001000,0.001000
1033.423077,-0.049881,0.001000,0.001000,0.001000,0.001000,0.001000
1033.442308,-0.049770,0.001000,0.001000,0.001000,0.001000,0.001000
1033.461538,-0.049624,0.001000,0.001000,0.001000,0.001000,0.001000
1033.480769,-0.049441,0.001000,0.001000,0.001000,0.001000,0.001000
1033.500000,-0.049223,0.001000,0.001000,0.001000,0.001000,0.001000
1033.519231,-0.048970,0.001000,0.001000,0.001000,0.001000,0.001000
1033.538462,-0.048681,0.001000,0.001000,0.001000,0.001000,0.001000
1033.557692,-0.048357,0.001000,0.001000,0.001000,0.001000,0.001000
1033.576923,-0.047998,0.001000,0.001000,0.001000,0.001000,0.001000
1033.596154,-0.047604,0.001000,0.001000,0.001000,0.001000,0.001000
1033.615385,-0.047176,0.001000,0.001000,0.001000,0.001000,0.001000
1033.634615,-0.046714,0.001000,0.001000,0.001000,0.001000,0.001000
1033.653846,-0.046219,0.001000,0.001000,0.001000,0.001000,0.001000
1033.673077,-0.045690,0.001000,0.001000,0.001000,0.001000,0.001000
1033.692308,-0.045128,0.001000,0.001000,0.001000,0.001000,0.001000
1033.711538,-0.044533,0.001000,0.001000,0.001000,0.001000,0.001000
1033.730769,-0.043907,0.001000,0.001000,0.001000,0.001000,0.001000
1033.750000,-0.043248,0.001000,0.001000,0.001000,0.001000,0.001000
1033.769231,-0.042559,0.001000,0.001000,0.001000,0.001000,0.001000
1033.788462,-0.041839,0.001000,0.001000,0.001000,0.001000,0.001000
1033.807692,-0.041088,0.001000,0.001000,0.001000,0.001000,0.001000
1033.826923,-0.040308,0.001000,0.001000,0.001000,0.001000,0.001000
1033.846154,-0.039499,0.001000,0.001000,0.001000,0.001000,0.001000
1033.865385,-0.038661,0.001000,0.001000,0.001000,0.001000,0.001000
1033.884615,-0.037796,0.001000,0.001000,0.001000,0.001000,0.001000
1033.903846,-0.036903,0.001000,0.001000,0.001000,0.001000,0.001000
1033.923077,-0.035984,0.001000,0.001000,0.001000,0.001000,0.001000
1033.942308,-0.035038,0.001000,0.001000,0.001000,0.001000,0.001000
1033.961538,-0.034067,0.001000,0.001000,0.001000,0.001000,0.001000
1033.980769,-0.033072,0.001000,0.001000,0.001000,0.001000,0.001000
1034.000000,-0.032053,0.001000,0.001000,0.001000,0.001000,0.001000
1034.019231,-0.031011,0.001000,0.001000,0.001000,0.001000,0.001000
1034.038462,-0.029946,0.001000,0.001000,0.001000,0.001000,0.001000
1034.057692,-0.028860,0.001000,0.001000,0.001000,0.001000,0.001000
1034.076923,-0.027753,0.001000,0.001000,0.001000,0.001000,0.001000
1034.096154,-0.026626,0.001000,0.001000,0.001000,0.001000,0.001000
1034.115385,-0.025479,0.001000,0.001000,0.001000,0.001000,0.001000
1034.134615,-0.024315,0.001000,0.001000,0.001000,0.001000,0.001000
1034.153846,-0.023133,0.001000,0.001000,0.001000,0.001000,0.001000
1034.173077,-0.021934,0.001000,0.001000,0.001000,0.001000,0.001000
1034.192308,-0.020719,0.001000,0.001000,0.001000,0.001000,0.001000
1034.211538,-0.019489,0.001000,0.001000,0.001000,0.001000,0.001000
1034.230769,-0.018245,0.001000,0.001000,0.001000,0.001000,0.001000
1034.250000,-0.016989,0.001000,0.001000,0.001000,0.001000,0.001000
1034.269231,-0.015719,0.001000,0.001000,0.001000,0.001000,0.001000
1034.288462,-0.014439,0.001000,0.001000,0.001000,0.001000,0.001000
1034.307692,-0.013148,0.001000,0.001000,0.001000,0.001000,0.001000
1034.326923,-0.011848,0.001000,0.001000,0.001000,0.001000,0.001000
1034.346154,-0.010539,0.001000,0.001000,0.001000,0.001000,0.001000
1034.365385,-0.009222,0.001000,0.001000,0.001000,0.001000,0.001000
1034.384615,-0.007899,0.001000,0.001000,0.001000,0.001000,0.001000
1034.403846,-0.006570,0.001000,0.001000,0.001000,0.001000,0.001000
1034.423077,-0.005236,0.001000,0.001000,0.001000,0.001000,0.001000
1034.442308,-0.003899,0.001000,0.001000,0.001000,0.001000,0.001000
1034.461538,-0.002558,0.001000,0.001000,0.001000,0.001000,0.001000
1034.480769,-0.001216,0.001000,0.001000,0.001000,0.001000,0.001000
1034.500000,0.000127,0.001000,0.001000,0.001000,0.001000,0.001000
1034.519231,0.001470,0.001000,0.001000,0.001000,0.001000,0.001000
1034.538462,0.002811,0.001000,0.001000,0.001000,0.001000,0.001000
1034.557692,0.004151,0.001000,0.001000,0.001000,0.001000,0.001000
1034.576923,0.005488,0.001000,0.001000,0.001000,0.001000,0.001000
1034.596154,0.006821,0.001000,0.001000,0.001000,0.001000,0.001000
1034.615385,0.008149,0.001000,0.001000,0.001000,0.001000,0.001000
1034.634615,0.009471,0.001000,0.001000,0.001000,0.001000,0.001000
1034.653846,0.010786,0.001000,0.001000,0.001000,0.001000,0.001000
1034.673077,0.012093,0.001000,0.001000,0.001000,0.001000,0.001000
