timestamp,ax,ay,az,gx,gy,gz
1000.000000,0.000000,0.001000,0.001000,0.001000,0.001000,0.001000
1000.019231,0.001472,0.001000,0.001000,0.001000,0.001000,0.001000
1000.038462,0.002942,0.001000,0.001000,0.001000,0.001000,0.001000
1000.057692,0.004409,0.001000,0.001000,0.001000,0.001000,0.001000
1000.076923,0.005873,0.001000,0.001000,0.001000,0.001000,0.001000
1000.096154,0.007332,0.001000,0.001000,0.001000,0.001000,0.001000
1000.115385,0.008785,0.001000,0.001000,0.001000,0.001000,0.001000
1000.134615,0.010229,0.001000,0.001000,0.001000,0.001000,0.001000
1000.153846,0.011665,0.001000,0.001000,0.001000,0.001000,0.001000
1000.173077,0.013091,0.001000,0.001000,0.001000,0.001000,0.001000
1000.192308,0.014506,0.001000,0.001000,0.001000,0.001000,0.001000
1000.211538,0.015908,0.001000,0.001000,0.001000,0.001000,0.001000
1000.230769,0.017296,0.001000,0.001000,0.001000,0.001000,0.001000
1000.250000,0.018669,0.001000,0.001000,0.001000,0.001000,0.001000
1000.269231,0.020026,0.001000,0.001000,0.001000,0.001000,0.001000
1000.288462,0.021366,0.001000,0.001000,0.001000,0.001000,0.001000
1000.307692,0.022687,0.001000,0.001000,0.001000,0.001000,0.001000
1000.326923,0.023988,0.001000,0.001000,0.001000,0.001000,0.001000
1000.346154,0.025269,0.001000,0.001000,0.001000,0.001000,0.001000
1000.365385,0.026528,0.001000,0.001000,0.001000,0.001000,0.001000
1000.384615,0.027764,0.001000,0.001000,0.001000,0.001000,0.001000
1000.403846,0.028976,0.001000,0.001000,0.001000,0.001000,0.001000
1000.423077,0.030162,0.001000,0.001000,0.001000,0.001000,0.001000
1000.442308,0.031323,0.001000,0.001000,0.001000,0.001000,0.001000
1000.461538,0.032456,0.001000,0.001000,0.001000,0.001000,0.001000
1000.480769,0.033561,0.001000,0.001000,0.001000,0.001000,0.001000
1000.500000,0.034638,0.001000,0.001000,0.001000,0.001000,0.001000
1000.519231,0.035684,0.001000,0.001000,0.001000,0.001000,0.001000
1000.538462,0.036699,0.001000,0.001000,0.001000,0.001000,0.001000
1000.557692,0.037683,0.001000,0.001000,0.001000,0.001000,0.001000
1000.576923,0.038634,0.001000,0.001000,0.001000,0.001000,0.001000
1000.596154,0.039551,0.001000,0.001000,0.001000,0.001000,0.001000
1000.615385,0.040434,0.001000,0.001000,0.001000,0.001000,0.001000
1000.634615,0.041282,0.001000,0.001000,0.001000,0.001000,0.001000
1000.653846,0.042095,0.001000,0.001000,0.001000,0.001000,0.001000
1000.673077,0.042870,0.001000,0.001000,0.001000,0.001000,0.001000
1000.692308,0.043609,0.001000,0.001000,0.001000,0.001000,0.001000
1000.711538,0.044310,0.001000,0.001000,0.001000,0.001000,0.001000
1000.730769,0.044973,0.001000,0.001000,0.001000,0.001000,0.001000
1000.750000,0.045596,0.001000,0.001000,0.001000,0.001000,0.001000
1000.769231,0.046180,0.001000,0.001000,0.001000,0.001000,0.001000
1000.788462,0.046724,0.001000,0.001000,0.001000,0.001000,0.001000
1000.807692,0.047228,0.001000,0.001000,0.001000,0.001000,0.001000
1000.826923,0.047691,0.001000,0.001000,0.001000,0.001000,0.001000
1000.846154,0.048112,0.001000,0.001000,0.001000,0.001000,0.001000
1000.865385,0.048492,0.001000,0.001000,0.001000,0.001000,0.001000
1000.884615,0.048830,0.001000,0.001000,0.001000,0.001000,0.001000
1000.903846,0.049125,0.001000,0.001000,0.001000,0.001000,0.001000
1000.923077,0.049378,0.001000,0.001000,0.001000,0.001000,0.001000
1000.942308,0.049588,0.001000,0.001000,0.001000,0.001000,0.001000
1000.961538,0.049755,0.001000,0.001000,0.001000,0.001000,0.001000
1000.980769,0.049879,0.001000,0.001000,0.001000,0.001000,0.001000
1001.000000,0.049960,0.001000,0.001000,0.001000,0.001000,0.001000
1001.019231,0.049997,0.001000,0.001000,0.001000,0.001000,0.001000
1001.038462,0.049991,0.001000,0.001000,0.001000,0.001000,0.001000
1001.057692,0.049942,0.001000,0.001000,0.001000,0.001000,0.001000
1001.076923,0.049850,0.001000,0.001000,0.001000,0.001000,0.001000
1001.096154,0.049714,0.001000,0.001000,0.001000,0.001000,0.001000
1001.115385,0.049535,0.001000,0.001000,0.001000,0.001000,0.001000
1001.134615,0.049314,0.001000,0.001000,0.001000,0.001000,0.001000
1001.153846,0.049050,0.001000,0.001000,0.001000,0.001000,0.001000
1001.173077,0.048743,0.001000,0.001000,0.001000,0.001000,0.001000
1001.192308,0.048394,0.001000,0.001000,0.001000,0.001000,0.001000
1001.211538,0.048003,0.001000,0.001000,0.001000,0.001000,0.001000
1001.230769,0.047570,0.001000,0.001000,0.001000,0.001000,0.001000
1001.250000,0.047097,0.001000,0.001000,0.001000,0.001000,0.001000
1001.269231,0.046582,0.001000,0.001000,0.001000,0.001000,0.001000
1001.288462,0.046027,0.001000,0.001000,0.001000,0.001000,0.001000
1001.307692,0.045432,0.001000,0.001000,0.001000,0.001000,0.001000
1001.326923,0.044798,0.001000,0.001000,0.001000,0.001000,0.001000
1001.346154,0.044125,0.001000,0.001000,0.001000,0.001000,0.001000
1001.365385,0.043414,0.001000,0.001000,0.001000,0.001000,0.001000
1001.384615,0.042665,0.001000,0.001000,0.001000,0.001000,0.001000
1001.403846,0.041880,0.001000,0.001000,0.001000,0.001000,0.001000
1001.423077,0.041058,0.001000,0.001000,0.001000,0.001000,0.001000
1001.442308,0.040200,0.001000,0.001000,0.001000,0.001000,0.001000
1001.461538,0.039308,0.001000,0.001000,0.001000,0.001000,0.001000
1001.480769,0.038381,0.001000,0.001000,0.001000,0.001000,0.001000
1001.500000,0.037421,0.001000,0.001000,0.001000,0.001000,0.001000
1001.519231,0.036429,0.001000,0.001000,0.001000,0.001000,0.001000
1001.538462,0.035406,0.001000,0.001000,0.001000,0.001000,0.001000
1001.557692,0.034351,0.001000,0.001000,0.001000,0.001000,0.001000
1001.576923,0.033267,0.001000,0.001000,0.001000,0.001000,0.001000
1001.596154,0.032154,0.001000,0.001000,0.001000,0.001000,0.001000
1001.615385,0.031013,0.001000,0.001000,0.001000,0.001000,0.001000
1001.634615,0.029846,0.001000,0.001000,0.001000,0.001000,0.001000
1001.653846,0.028652,0.001000,0.001000,0.001000,0.001000,0.001000
1001.673077,0.027434,0.001000,0.001000,0.001000,0.001000,0.001000
1001.692308,0.026192,0.001000,0.001000,0.001000,0.001000,0.001000
1001.711538,0.024927,0.001000,0.001000,0.001000,0.001000,0.001000
1001.730769,0.023640,0.001000,0.001000,0.001000,0.001000,0.001000
1001.750000,0.022333,0.001000,0.001000,0.001000,0.001000,0.001000
1001.769231,0.021007,0.001000,0.001000,0.001000,0.001000,0.001000
1001.788462,0.019663,0.001000,0.001000,0.001000,0.001000,0.001000
1001.807692,0.018301,0.001000,0.001000,0.001000,0.001000,0.001000
1001.826923,0.016924,0.001000,0.001000,0.001000,0.001000,0.001000
1001.846154,0.015532,0.001000,0.001000,0.001000,0.001000,0.001000
1001.865385,0.014126,0.001000,0.001000,0.001000,0.001000,0.001000
1001.884615,0.012709,0.001000,0.001000,0.001000,0.001000,0.001000
1001.903846,0.011280,0.001000,0.001000,0.001000,0.001000,0.001000
1001.923077,0.009842,0.001000,0.001000,0.001000,0.001000,0.001000
1001.942308,0.008395,0.001000,0.001000,0.001000,0.001000,0.001000
1001.961538,0.006940,0.001000,0.001000,0.001000,0.001000,0.001000
1001.980769,0.005480,0.001000,0.001000,0.001000,0.001000,0.001000
1002.000000,0.004015,0.001000,0.001000,0.001000,0.001000,0.001000
1002.019231,0.002547,0.001000,0.001000,0.001000,0.001000,0.001000
1002.038462,0.001076,0.001000,0.001000,0.001000,0.001000,0.001000
1002.057692,-0.000396,0.001000,0.001000,0.001000,0.001000,0.001000
1002.076923,-0.001867,0.001000,0.001000,0.001000,0.001000,0.001000
1002.096154,-0.003337,0.001000,0.001000,0.001000,0.001000,0.001000
1002.115385,-0.004804,0.001000,0.001000,0.001000,0.001000,0.001000
1002.134615,-0.006266,0.001000,0.001000,0.001000,0.001000,0.001000
1002.153846,-0.007723,0.001000,0.001000,0.001000,0.001000,0.001000
1002.173077,-0.009174,0.001000,0.001000,0.001000,0.001000,0.001000
1002.192308,-0.010617,0.001000,0.001000,0.001000,0.001000,0.001000
1002.211538,-0.012050,0.001000,0.001000,0.001000,0.001000,0.001000
1002.230769,-0.013473,0.001000,0.001000,0.001000,0.001000,0.001000
1002.250000,-0.014884,0.001000,0.001000,0.001000,0.001000,0.001000
1002.269231,-0.016282,0.001000,0.001000,0.001000,0.001000,0.001000
1002.288462,-0.017667,0.001000,0.001000,0.001000,0.001000,0.001000
1002.307692,-0.019036,0.001000,0.001000,0.001000,0.001000,0.001000
1002.326923,-0.020388,0.001000,0.001000,0.001000,0.001000,0.001000
1002.346154,-0.021723,0.001000,0.001000,0.001000,0.001000,0.001000
1002.365385,-0.023039,0.001000,0.001000,0.001000,0.001000,0.001000
1002.384615,-0.024335,0.001000,0.001000,0.001000,0.001000,0.001000
1002.403846,-0.025610,0.001000,0.001000,0.001000,0.001000,0.001000
1002.423077,-0.026863,0.001000,0.001000,0.001000,0.001000,0.001000
1002.442308,-0.028092,0.001000,0.001000,0.001000,0.001000,0.001000
1002.461538,-0.029297,0.001000,0.001000,0.001000,0.001000,0.001000
1002.480769,-0.030477,0.001000,0.001000,0.001000,0.001000,0.001000
1002.500000,-0.031630,0.001000,0.001000,0.001000,0.001000,0.001000
1002.519231,-0.032756,0.001000,0.001000,0.001000,0.001000,0.001000
1002.538462,-0.033854,0.001000,0.001000,0.001000,0.001000,0.001000
1002.557692,-0.034922,0.001000,0.001000,0.001000,0.001000,0.001000
1002.576923,-0.035960,0.001000,0.001000,0.001000,0.001000,0.001000
1002.596154,-0.036967,0.001000,0.001000,0.001000,0.001000,0.001000
1002.615385,-0.037942,0.001000,0.001000,0.001000,0.001000,0.001000
1002.634615,-0.038884,0.001000,0.001000,0.001000,0.001000,0.001000
1002.653846,-0.039792,0.001000,0.001000,0.001000,0.001000,0.001000
1002.673077,-0.040666,0.001000,0.001000,0.001000,0.001000,0.001000
1002.692308,-0.041504,0.001000,0.001000,0.001000,0.001000,0.001000
1002.711538,-0.042307,0.001000,0.001000,0.001000,0.001000,0.001000
1002.730769,-0.043073,0.001000,0.001000,0.001000,0.001000,0.001000
1002.750000,-0.043801,0.001000,0.001000,0.001000,0.001000,0.001000
1002.769231,-0.044492,0.001000,0.001000,0.001000,0.001000,0.001000
1002.788462,-0.045144,0.001000,0.001000,0.001000,0.001000,0.001000
1002.807692,-0.045757,0.001000,0.001000,0.001000,0.001000,0.001000
1002.826923,-0.046331,0.001000,0.001000,0.001000,0.001000,0.001000
1002.846154,-0.046864,0.001000,0.001000,0.001000,0.001000,0.001000
1002.865385,-0.047357,0.001000,0.001000,0.001000,0.001000,0.001000
1002.884615,-0.047808,0.001000,0.001000,0.001000,0.001000,0.001000
1002.903846,-0.048218,0.001000,0.001000,0.001000,0.001000,0.001000
1002.923077,-0.048587,0.001000,0.001000,0.001000,0.001000,0.001000
1002.942308,-0.048913,0.001000,0.001000,0.001000,0.001000,0.001000
1002.961538,-0.049197,0.001000,0.001000,0.001000,0.001000,0.001000
1002.980769,-0.049438,0.001000,0.001000,0.001000,0.001000,0.001000
1003.000000,-0.049637,0.001000,0.001000,0.001000,0.001000,0.001000
1003.019231,-0.049792,0.001000,0.001000,0.001000,0.001000,0.001000
1003.038462,-0.049905,0.001000,0.001000,0.001000,0.001000,0.001000
1003.057692,-0.049974,0.001000,0.001000,0.001000,0.001000,0.001000
1003.076923,-0.050000,0.001000,0.001000,0.001000,0.001000,0.001000
1003.096154,-0.049982,0.001000,0.001000,0.001000,0.001000,0.001000
1003.115385,-0.049922,0.001000,0.001000,0.001000,0.001000,0.001000
1003.134615,-0.049818,0.001000,0.001000,0.001000,0.001000,0.001000
1003.153846,-0.049670,0.001000,0.001000,0.001000,0.001000,0.001000
1003.173077,-0.049480,0.001000,0.001000,0.001000,0.001000,0.001000
1003.192308,-0.049247,0.001000,0.001000,0.001000,0.001000,0.001000
1003.211538,-0.048971,0.001000,0.001000,0.001000,0.001000,0.001000
1003.230769,-0.048653,0.001000,0.001000,0.001000,0.001000,0.001000
1003.250000,-0.048293,0.001000,0.001000,0.001000,0.001000,0.001000
1003.269231,-0.047891,0.001000,0.001000,0.001000,0.001000,0.001000
1003.288462,-0.047447,0.001000,0.001000,0.001000,0.001000,0.001000
1003.307692,-0.046962,0.001000,0.001000,0.001000,0.001000,0.001000
1003.326923,-0.046437,0.001000,0.001000,0.001000,0.001000,0.001000
1003.346154,-0.045871,0.001000,0.001000,0.001000,0.001000,0.001000
1003.365385,-0.045266,0.001000,0.001000,0.001000,0.001000,0.001000
1003.384615,-0.044621,0.001000,0.001000,0.001000,0.001000,0.001000
1003.403846,-0.043938,0.001000,0.001000,0.001000,0.001000,0.001000
1003.423077,-0.043216,0.001000,0.001000,0.001000,0.001000,0.001000
1003.442308,-0.042458,0.001000,0.001000,0.001000,0.001000,0.001000
1003.461538,-0.041662,0.001000,0.001000,0.001000,0.001000,0.001000
1003.480769,-0.040830,0.001000,0.001000,0.001000,0.001000,0.001000
1003.500000,-0.039963,0.001000,0.001000,0.001000,0.001000,0.001000
1003.519231,-0.039062,0.001000,0.001000,0.001000,0.001000,0.001000
1003.538462,-0.038126,0.001000,0.001000,0.001000,0.001000,0.001000
1003.557692,-0.037158,0.001000,0.001000,0.001000,0.001000,0.001000
1003.576923,-0.036157,0.001000,0.001000,0.001000,0.001000,0.001000
1003.596154,-0.035125,0.001000,0.001000,0.001000,0.001000,0.001000
1003.615385,-0.034062,0.001000,0.001000,0.001000,0.001000,0.001000
1003.634615,-0.032970,0.001000,0.001000,0.001000,0.001000,0.001000
1003.653846,-0.031850,0.001000,0.001000,0.001000,0.001000,0.001000
1003.673077,-0.030702,0.001000,0.001000,0.001000,0.001000,0.001000
1003.692308,-0.029527,0.001000,0.001000,0.001000,0.001000,0.001000
1003.711538,-0.028327,0.001000,0.001000,0.001000,0.001000,0.001000
1003.730769,-0.027102,0.001000,0.001000,0.001000,0.001000,0.001000
1003.750000,-0.025854,0.001000,0.001000,0.001000,0.001000,0.001000
1003.769231,-0.024583,0.001000,0.001000,0.001000,0.001000,0.001000
1003.788462,-0.023291,0.001000,0.001000,0.001000,0.001000,0.001000
1003.807692,-0.021979,0.001000,0.001000,0.001000,0.001000,0.001000
1003.826923,-0.020647,0.001000,0.001000,0.001000,0.001000,0.001000
1003.846154,-0.019298,0.001000,0.001000,0.001000,0.001000,0.001000
1003.865385,-0.017932,0.001000,0.001000,0.001000,0.001000,0.001000
1003.884615,-0.016551,0.001000,0.001000,0.001000,0.001000,0.001000
1003.903846,-0.015155,0.001000,0.001000,0.001000,0.001000,0.001000
1003.923077,-0.013746,0.001000,0.001000,0.001000,0.001000,0.001000
1003.942308,-0.012326,0.001000,0.001000,0.001000,0.001000,0.001000
1003.961538,-0.010894,0.001000,0.001000,0.001000,0.001000,0.001000
1003.980769,-0.009453,0.001000,0.001000,0.001000,0.001000,0.001000
1004.000000,-0.008004,0.001000,0.001000,0.001000,0.001000,0.001000
1004.019231,-0.006548,0.001000,0.001000,0.001000,0.001000,0.001000
1004.038462,-0.005086,0.001000,0.001000,0.001000,0.001000,0.001000
1004.057692,-0.003620,0.001000,0.001000,0.001000,0.001000,0.001000
1004.076923,-0.002151,0.001000,0.001000,0.001000,0.001000,0.001000
1004.096154,-0.000680,0.001000,0.001000,0.001000,0.001000,0.001000
1004.115385,0.000792,0.001000,0.001000,0.001000,0.001000,0.001000
1004.134615,0.002263,0.001000,0.001000,0.001000,0.001000,0.001000
1004.153846,0.003732,0.001000,0.001000,0.001000,0.001000,0.001000
1004.173077,0.005198,0.001000,0.001000,0.001000,0.001000,0.001000
1004.192308,0.006659,0.001000,0.001000,0.001000,0.001000,0.001000
1004.211538,0.008114,0.001000,0.001000,0.001000,0.001000,0.001000
1004.230769,0.009563,0.001000,0.001000,0.001000,0.001000,0.001000
1004.250000,0.011003,0.001000,0.001000,0.001000,0.001000,0.001000
1004.269231,0.012434,0.001000,0.001000,0.001000,0.001000,0.001000
1004.288462,0.013854,0.001000,0.001000,0.001000,0.001000,0.001000
1004.307692,0.015262,0.001000,0.001000,0.001000,0.001000,0.001000
1004.326923,0.016656,0.001000,0.001000,0.001000,0.001000,0.001000
1004.346154,0.018036,0.001000,0.001000,0.001000,0.001000,0.001000
1004.365385,0.019401,0.001000,0.001000,0.001000,0.001000,0.001000
1004.384615,0.020749,0.001000,0.001000,0.001000,0.001000,0.001000
1004.403846,0.022079,0.001000,0.001000,0.001000,0.001000,0.001000
1004.423077,0.023390,0.001000,0.001000,0.001000,0.001000,0.001000
1004.442308,0.024680,0.001000,0.001000,0.001000,0.001000,0.001000
1004.461538,0.025949,0.001000,0.001000,0.001000,0.001000,0.001000
1004.480769,0.027196,0.001000,0.001000,0.001000,0.001000,0.001000
1004.500000,0.028419,0.001000,0.001000,0.001000,0.001000,0.001000
1004.519231,0.029617,0.001000,0.001000,0.001000,0.001000,0.001000
1004.538462,0.030790,0.001000,0.001000,0.001000,0.001000,0.001000
1004.557692,0.031936,0.001000,0.001000,0.001000,0.001000,0.001000
1004.576923,0.033054,0.001000,0.001000,0.001000,0.001000,0.001000
1004.596154,0.034144,0.001000,0.001000,0.001000,0.001000,0.001000
1004.615385,0.035204,0.001000,0.001000,0.001000,0.001000,0.001000
1004.634615,0.036234,0.001000,0.001000,0.001000,0.001000,0.001000
1004.653846,0.037232,0.001000,0.001000,0.001000,0.001000,0.001000
1004.673077,0.038198,0.001000,0.001000,0.001000,0.001000,0.001000
1004.692308,0.039131,0.001000,0.001000,0.001000,0.001000,0.001000
1004.711538,0.040030,0.001000,0.001000,0.001000,0.001000,0.001000
1004.730769,0.040895,0.001000,0.001000,0.001000,0.001000,0.001000
1004.750000,0.041724,0.001000,0.001000,0.001000,0.001000,0.001000
1004.769231,0.042517,0.001000,0.001000,0.001000,0.001000,0.001000
1004.788462,0.043272,0.001000,0.001000,0.001000,0.001000,0.001000
1004.807692,0.043991,0.001000,0.001000,0.001000,0.001000,0.001000
1004.826923,0.044671,0.001000,0.001000,0.001000,0.001000,0.001000
1004.846154,0.045313,0.001000,0.001000,0.001000,0.001000,0.001000
1004.865385,0.045915,0.001000,0.001000,0.001000,0.001000,0.001000
1004.884615,0.046478,0.001000,0.001000,0.001000,0.001000,0.001000
1004.903846,0.047000,0.001000,0.001000,0.001000,0.001000,0.001000
1004.923077,0.047482,0.001000,0.001000,0.001000,0.001000,0.001000
1004.942308,0.047923,0.001000,0.001000,0.001000,0.001000,0.001000
1004.961538,0.048322,0.001000,0.001000,0.001000,0.001000,0.001000
1004.980769,0.048679,0.001000,0.001000,0.001000,0.001000,0.001000
1005.000000,0.048994,0.001000,0.001000,0.001000,0.001000,0.001000
1005.019231,0.049266,0.001000,0.001000,0.001000,0.001000,0.001000
1005.038462,0.049496,0.001000,0.001000,0.001000,0.001000,0.001000
1005.057692,0.049683,0.001000,0.001000,0.001000,0.001000,0.001000
1005.076923,0.049827,0.001000,0.001000,0.001000,0.001000,0.001000
1005.096154,0.049928,0.001000,0.001000,0.001000,0.001000,0.001000
1005.115385,0.049985,0.001000,0.001000,0.001000,0.001000,0.001000
1005.134615,0.049999,0.001000,0.001000,0.001000,0.001000,0.001000
1005.153846,0.049970,0.001000,0.001000,0.001000,0.001000,0.001000
1005.173077,0.049898,0.001000,0.001000,0.001000,0.001000,0.001000
1005.192308,0.049782,0.001000,0.001000,0.001000,0.001000,0.001000
1005.211538,0.049623,0.001000,0.001000,0.001000,0.001000,0.001000
1005.230769,0.049422,0.001000,0.001000,0.001000,0.001000,0.001000
1005.250000,0.049177,0.001000,0.001000,0.001000,0.001000,0.001000
1005.269231,0.048890,0.001000,0.001000,0.001000,0.001000,0.001000
1005.288462,0.048560,0.001000,0.001000,0.001000,0.001000,0.001000
1005.307692,0.048189,0.001000,0.001000,0.001000,0.001000,0.001000
1005.326923,0.047775,0.001000,0.001000,0.001000,0.001000,0.001000
1005.346154,0.047321,0.001000,0.001000,0.001000,0.001000,0.001000
1005.365385,0.046825,0.001000,0.001000,0.001000,0.001000,0.001000
1005.384615,0.046289,0.001000,0.001000,0.001000,0.001000,0.001000
1005.403846,0.045712,0.001000,0.001000,0.001000,0.001000,0.001000
1005.423077,0.045096,0.001000,0.001000,0.001000,0.001000,0.001000
1005.442308,0.044441,0.001000,0.001000,0.001000,0.001000,0.001000
1005.461538,0.043747,0.001000,0.001000,0.001000,0.001000,0.001000
1005.480769,0.043016,0.001000,0.001000,0.001000,0.001000,0.001000
1005.500000,0.042247,0.001000,0.001000,0.001000,0.001000,0.001000
1005.519231,0.041442,0.001000,0.001000,0.001000,0.001000,0.001000
1005.538462,0.040601,0.001000,0.001000,0.001000,0.001000,0.001000
1005.557692,0.039724,0.001000,0.001000,0.001000,0.001000,0.001000
1005.576923,0.038813,0.001000,0.001000,0.001000,0.001000,0.001000
1005.596154,0.037869,0.001000,0.001000,0.001000,0.001000,0.001000
1005.615385,0.036892,0.001000,0.001000,0.001000,0.001000,0.001000
1005.634615,0.035882,0.001000,0.001000,0.001000,0.001000,0.001000
1005.653846,0.034842,0.001000,0.001000,0.001000,0.001000,0.001000
1005.673077,0.033772,0.001000,0.001000,0.001000,0.001000,0.001000
1005.692308,0.032672,0.001000,0.001000,0.001000,0.001000,0.001000
1005.711538,0.031544,0.001000,0.001000,0.001000,0.001000,0.001000
1005.730769,0.030388,0.001000,0.001000,0.001000,0.001000,0.001000
1005.750000,0.029207,0.001000,0.001000,0.001000,0.001000,0.001000
1005.769231,0.028000,0.001000,0.001000,0.001000,0.001000,0.001000
1005.788462,0.026768,0.001000,0.001000,0.001000,0.001000,0.001000
1005.807692,0.025514,0.001000,0.001000,0.001000,0.001000,0.001000
1005.826923,0.024237,0.001000,0.001000,0.001000,0.001000,0.001000
1005.846154,0.022940,0.001000,0.001000,0.001000,0.001000,0.001000
1005.865385,0.021622,0.001000,0.001000,0.001000,0.001000,0.001000
1005.884615,0.020286,0.001000,0.001000,0.001000,0.001000,0.001000
1005.903846,0.018932,0.001000,0.001000,0.001000,0.001000,0.001000
1005.923077,0.017562,0.001000,0.001000,0.001000,0.001000,0.001000
1005.942308,0.016177,0.001000,0.001000,0.001000,0.001000,0.001000
1005.961538,0.014777,0.001000,0.001000,0.001000,0.001000,0.001000
1005.980769,0.013365,0.001000,0.001000,0.001000,0.001000,0.001000
1006.000000,0.011941,0.001000,0.001000,0.001000,0.001000,0.001000
1006.019231,0.010507,0.001000,0.001000,0.001000,0.001000,0.001000
1006.038462,0.009064,0.001000,0.001000,0.001000,0.001000,0.001000
1006.057692,0.007613,0.001000,0.001000,0.001000,0.001000,0.001000
1006.076923,0.006155,0.001000,0.001000,0.001000,0.001000,0.001000
1006.096154,0.004692,0.001000,0.001000,0.001000,0.001000,0.001000
1006.115385,0.003225,0.001000,0.001000,0.001000,0.001000,0.001000
1006.134615,0.001756,0.001000,0.001000,0.001000,0.001000,0.001000
1006.153846,0.000284,0.001000,0.001000,0.001000,0.001000,0.001000
1006.173077,-0.001187,0.001000,0.001000,0.001000,0.001000,0.001000
1006.192308,-0.002658,0.001000,0.001000,0.001000,0.001000,0.001000
1006.211538,-0.004126,0.001000,0.001000,0.001000,0.001000,0.001000
1006.230769,-0.005591,0.001000,0.001000,0.001000,0.001000,0.001000
1006.250000,-0.007051,0.001000,0.001000,0.001000,0.001000,0.001000
1006.269231,-0.008505,0.001000,0.001000,0.001000,0.001000,0.001000
1006.288462,-0.009951,0.001000,0.001000,0.001000,0.001000,0.001000
1006.307692,-0.011389,0.001000,0.001000,0.001000,0.001000,0.001000
1006.326923,-0.012817,0.001000,0.001000,0.001000,0.001000,0.001000
1006.346154,-0.014234,0.001000,0.001000,0.001000,0.001000,0.001000
1006.365385,-0.015638,0.001000,0.001000,0.001000,0.001000,0.001000
1006.384615,-0.017029,0.001000,0.001000,0.001000,0.001000,0.001000
1006.403846,-0.018405,0.001000,0.001000,0.001000,0.001000,0.001000
1006.423077,-0.019765,0.001000,0.001000,0.001000,0.001000,0.001000
1006.442308,-0.021108,0.001000,0.001000,0.001000,0.001000,0.001000
1006.461538,-0.022433,0.001000,0.001000,0.001000,0.001000,0.001000
1006.480769,-0.023739,0.001000,0.001000,0.001000,0.001000,0.001000
1006.500000,-0.025023,0.001000,0.001000,0.001000,0.001000,0.001000
1006.519231,-0.026287,0.001000,0.001000,0.001000,0.001000,0.001000
1006.538462,-0.027527,0.001000,0.001000,0.001000,0.001000,0.001000
1006.557692,-0.028743,0.001000,0.001000,0.001000,0.001000,0.001000
1006.576923,-0.029935,0.001000,0.001000,0.001000,0.001000,0.001000
1006.596154,-0.031101,0.001000,0.001000,0.001000,0.001000,0.001000
1006.615385,-0.032240,0.001000,0.001000,0.001000,0.001000,0.001000
1006.634615,-0.033350,0.001000,0.001000,0.001000,0.001000,0.001000
1006.653846,-0.034432,0.001000,0.001000,0.001000,0.001000,0.001000
1006.673077,-0.035484,0.001000,0.001000,0.001000,0.001000,0.001000
1006.692308,-0.036506,0.001000,0.001000,0.001000,0.001000,0.001000
1006.711538,-0.037495,0.001000,0.001000,0.001000,0.001000,0.001000
1006.730769,-0.038453,0.001000,0.001000,0.001000,0.001000,0.001000
1006.750000,-0.039377,0.001000,0.001000,0.001000,0.001000,0.001000
1006.769231,-0.040266,0.001000,0.001000,0.001000,0.001000,0.001000
1006.788462,-0.041121,0.001000,0.001000,0.001000,0.001000,0.001000
1006.807692,-0.041941,0.001000,0.001000,0.001000,0.001000,0.001000
1006.826923,-0.042724,0.001000,0.001000,0.001000,0.001000,0.001000
1006.846154,-0.043469,0.001000,0.001000,0.001000,0.001000,0.001000
1006.865385,-0.044178,0.001000,0.001000,0.001000,0.001000,0.001000
1006.884615,-0.044848,0.001000,0.001000,0.001000,0.001000,0.001000
1006.903846,-0.045479,0.001000,0.001000,0.001000,0.001000,0.001000
1006.923077,-0.046071,0.001000,0.001000,0.001000,0.001000,0.001000
1006.942308,-0.046623,0.001000,0.001000,0.001000,0.001000,0.001000
1006.961538,-0.047134,0.001000,0.001000,0.001000,0.001000,0.001000
1006.980769,-0.047605,0.001000,0.001000,0.001000,0.001000,0.001000
1007.000000,-0.048034,0.001000,0.001000,0.001000,0.001000,0.001000
1007.019231,-0.048422,0.001000,0.001000,0.001000,0.001000,0.001000
1007.038462,-0.048768,0.001000,0.001000,0.001000,0.001000,0.001000
1007.057692,-0.049071,0.001000,0.001000,0.001000,0.001000,0.001000
1007.076923,-0.049332,0.001000,0.001000,0.001000,0.001000,0.001000
1007.096154,-0.049551,0.001000,0.001000,0.001000,0.001000,0.001000
1007.115385,-0.049726,0.001000,0.001000,0.001000,0.001000,0.001000
1007.134615,-0.049858,0.001000,0.001000,0.001000,0.001000,0.001000
1007.153846,-0.049947,0.001000,0.001000,0.001000,0.001000,0.001000
1007.173077,-0.049993,0.001000,0.001000,0.001000,0.001000,0.001000
1007.192308,-0.049996,0.001000,0.001000,0.001000,0.001000,0.001000
1007.211538,-0.049955,0.001000,0.001000,0.001000,0.001000,0.001000
1007.230769,-0.049871,0.001000,0.001000,0.001000,0.001000,0.001000
1007.250000,-0.049744,0.001000,0.001000,0.001000,0.001000,0.001000
1007.269231,-0.049573,0.001000,0.001000,0.001000,0.001000,0.001000
1007.288462,-0.049360,0.001000,0.001000,0.001000,0.001000,0.001000
1007.307692,-0.049104,0.001000,0.001000,0.001000,0.001000,0.001000
1007.326923,-0.048805,0.001000,0.001000,0.001000,0.001000,0.001000
1007.346154,-0.048464,0.001000,0.001000,0.001000,0.001000,0.001000
1007.365385,-0.048082,0.001000,0.001000,0.001000,0.001000,0.001000
1007.384615,-0.047657,0.001000,0.001000,0.001000,0.001000,0.001000
1007.403846,-0.047191,0.001000,0.001000,0.001000,0.001000,0.001000
1007.423077,-0.046685,0.001000,0.001000,0.001000,0.001000,0.001000
1007.442308,-0.046137,0.001000,0.001000,0.001000,0.001000,0.001000
1007.461538,-0.045550,0.001000,0.001000,0.001000,0.001000,0.001000
1007.480769,-0.044924,0.001000,0.001000,0.001000,0.001000,0.001000
1007.500000,-0.044258,0.001000,0.001000,0.001000,0.001000,0.001000
1007.519231,-0.043554,0.001000,0.001000,0.001000,0.001000,0.001000
1007.538462,-0.042813,0.001000,0.001000,0.001000,0.001000,0.001000
1007.557692,-0.042034,0.001000,0.001000,0.001000,0.001000,0.001000
1007.576923,-0.041219,0.001000,0.001000,0.001000,0.001000,0.001000
1007.596154,-0.040368,0.001000,0.001000,0.001000,0.001000,0.001000
1007.615385,-0.039483,0.001000,0.001000,0.001000,0.001000,0.001000
1007.634615,-0.038563,0.001000,0.001000,0.001000,0.001000,0.001000
1007.653846,-0.037609,0.001000,0.001000,0.001000,0.001000,0.001000
1007.673077,-0.036623,0.001000,0.001000,0.001000,0.001000,0.001000
1007.692308,-0.035606,0.001000,0.001000,0.001000,0.001000,0.001000
1007.711538,-0.034557,0.001000,0.001000,0.001000,0.001000,0.001000
1007.730769,-0.033479,0.001000,0.001000,0.001000,0.001000,0.001000
1007.750000,-0.032371,0.001000,0.001000,0.001000,0.001000,0.001000
1007.769231,-0.031236,0.001000,0.001000,0.001000,0.001000,0.001000
1007.788462,-0.030073,0.001000,0.001000,0.001000,0.001000,0.001000
1007.807692,-0.028884,0.001000,0.001000,0.001000,0.001000,0.001000
1007.826923,-0.027671,0.001000,0.001000,0.001000,0.001000,0.001000
1007.846154,-0.026433,0.001000,0.001000,0.001000,0.001000,0.001000
1007.865385,-0.025173,0.001000,0.001000,0.001000,0.001000,0.001000
1007.884615,-0.023890,0.001000,0.001000,0.001000,0.001000,0.001000
1007.903846,-0.022587,0.001000,0.001000,0.001000,0.001000,0.001000
1007.923077,-0.021265,0.001000,0.001000,0.001000,0.001000,0.001000
1007.942308,-0.019924,0.001000,0.001000,0.001000,0.001000,0.001000
1007.961538,-0.018565,0.001000,0.001000,0.001000,0.001000,0.001000
1007.980769,-0.017191,0.001000,0.001000,0.001000,0.001000,0.001000
1008.000000,-0.015802,0.001000,0.001000,0.001000,0.001000,0.001000
1008.019231,-0.014399,0.001000,0.001000,0.001000,0.001000,0.001000
1008.038462,-0.012983,0.001000,0.001000,0.001000,0.001000,0.001000
1008.057692,-0.011557,0.001000,0.001000,0.001000,0.001000,0.001000
1008.076923,-0.010120,0.001000,0.001000,0.001000,0.001000,0.001000
1008.096154,-0.008675,0.001000,0.001000,0.001000,0.001000,0.001000
1008.115385,-0.007222,0.001000,0.001000,0.001000,0.001000,0.001000
1008.134615,-0.005762,0.001000,0.001000,0.001000,0.001000,0.001000
1008.153846,-0.004298,0.001000,0.001000,0.001000,0.001000,0.001000
1008.173077,-0.002830,0.001000,0.001000,0.001000,0.001000,0.001000
1008.192308,-0.001360,0.001000,0.001000,0.001000,0.001000,0.001000
1008.211538,0.000112,0.001000,0.001000,0.001000,0.001000,0.001000
1008.230769,0.001583,0.001000,0.001000,0.001000,0.001000,0.001000
1008.250000,0.003053,0.001000,0.001000,0.001000,0.001000,0.001000
1008.269231,0.004521,0.001000,0.001000,0.001000,0.001000,0.001000
1008.288462,0.005984,0.001000,0.001000,0.001000,0.001000,0.001000
1008.307692,0.007443,0.001000,0.001000,0.001000,0.001000,0.001000
1008.326923,0.008894,0.001000,0.001000,0.001000,0.001000,0.001000
1008.346154,0.010339,0.001000,0.001000,0.001000,0.001000,0.001000
1008.365385,0.011774,0.001000,0.001000,0.001000,0.001000,0.001000
1008.384615,0.013199,0.001000,0.001000,0.001000,0.001000,0.001000
1008.403846,0.014613,0.001000,0.001000,0.001000,0.001000,0.001000
1008.423077,0.016014,0.001000,0.001000,0.001000,0.001000,0.001000
1008.442308,0.017401,0.001000,0.001000,0.001000,0.001000,0.001000
1008.461538,0.018773,0.001000,0.001000,0.001000,0.001000,0.001000
1008.480769,0.020128,0.001000,0.001000,0.001000,0.001000,0.001000
1008.500000,0.021467,0.001000,0.001000,0.001000,0.001000,0.001000
1008.519231,0.022786,0.001000,0.001000,0.001000,0.001000,0.001000
1008.538462,0.024086,0.001000,0.001000,0.001000,0.001000,0.001000
1008.557692,0.025365,0.001000,0.001000,0.001000,0.001000,0.001000
1008.576923,0.026623,0.001000,0.001000,0.001000,0.001000,0.001000
1008.596154,0.027857,0.001000,0.001000,0.001000,0.001000,0.001000
1008.615385,0.029066,0.001000,0.001000,0.001000,0.001000,0.001000
1008.634615,0.030251,0.001000,0.001000,0.001000,0.001000,0.001000
1008.653846,0.031410,0.001000,0.001000,0.001000,0.001000,0.001000
1008.673077,0.032541,0.001000,0.001000,0.001000,0.001000,0.001000
1008.692308,0.033644,0.001000,0.001000,0.001000,0.001000,0.001000
1008.711538,0.034718,0.001000,0.001000,0.001000,0.001000,0.001000
1008.730769,0.035762,0.001000,0.001000,0.001000,0.001000,0.001000
1008.750000,0.036775,0.001000,0.001000,0.001000,0.001000,0.001000
1008.769231,0.037756,0.001000,0.001000,0.001000,0.001000,0.001000
1008.788462,0.038704,0.001000,0.001000,0.001000,0.001000,0.001000
1008.807692,0.039619,0.001000,0.001000,0.001000,0.001000,0.001000
1008.826923,0.040500,0.001000,0.001000,0.001000,0.001000,0.001000
1008.846154,0.041345,0.001000,0.001000,0.001000,0.001000,0.001000
1008.865385,0.042155,0.001000,0.001000,0.001000,0.001000,0.001000
1008.884615,0.042928,0.001000,0.001000,0.001000,0.001000,0.001000
1008.903846,0.043664,0.001000,0.001000,0.001000,0.001000,0.001000
1008.923077,0.044362,0.001000,0.001000,0.001000,0.001000,0.001000
1008.942308,0.045021,0.001000,0.001000,0.001000,0.001000,0.001000
1008.961538,0.045642,0.001000,0.001000,0.001000,0.001000,0.001000
1008.980769,0.046223,0.001000,0.001000,0.001000,0.001000,0.001000
1009.000000,0.046764,0.001000,0.001000,0.001000,0.001000,0.001000
1009.019231,0.047265,0.001000,0.001000,0.001000,0.001000,0.001000
1009.038462,0.047724,0.001000,0.001000,0.001000,0.001000,0.001000
1009.057692,0.048142,0.001000,0.001000,0.001000,0.001000,0.001000
1009.076923,0.048519,0.001000,0.001000,0.001000,0.001000,0.001000
1009.096154,0.048853,0.001000,0.001000,0.001000,0.001000,0.001000
1009.115385,0.049146,0.001000,0.001000,0.001000,0.001000,0.001000
1009.134615,0.049395,0.001000,0.001000,0.001000,0.001000,0.001000
1009.153846,0.049602,0.001000,0.001000,0.001000,0.001000,0.001000
1009.173077,0.049766,0.001000,0.001000,0.001000,0.001000,0.001000
1009.192308,0.049886,0.001000,0.001000,0.001000,0.001000,0.001000
1009.211538,0.049964,0.001000,0.001000,0.001000,0.001000,0.001000
1009.230769,0.049998,0.001000,0.001000,0.001000,0.001000,0.001000
1009.250000,0.049989,0.001000,0.001000,0.001000,0.001000,0.001000
1009.269231,0.049937,0.001000,0.001000,0.001000,0.001000,0.001000
1009.288462,0.049841,0.001000,0.001000,0.001000,0.001000,0.001000
1009.307692,0.049702,0.001000,0.001000,0.001000,0.001000,0.001000
1009.326923,0.049520,0.001000,0.001000,0.001000,0.001000,0.001000
1009.346154,0.049295,0.001000,0.001000,0.001000,0.001000,0.001000
1009.365385,0.049028,0.001000,0.001000,0.001000,0.001000,0.001000
1009.384615,0.048718,0.001000,0.001000,0.001000,0.001000,0.001000
1009.403846,0.048366,0.001000,0.001000,0.001000,0.001000,0.001000
1009.423077,0.047972,0.001000,0.001000,0.001000,0.001000,0.001000
1009.442308,0.047536,0.001000,0.001000,0.001000,0.001000,0.001000
1009.461538,0.047059,0.001000,0.001000,0.001000,0.001000,0.001000
1009.480769,0.046541,0.001000,0.001000,0.001000,0.001000,0.001000
1009.500000,0.045983,0.001000,0.001000,0.001000,0.001000,0.001000
1009.519231,0.045386,0.001000,0.001000,0.001000,0.001000,0.001000
1009.538462,0.044749,0.001000,0.001000,0.001000,0.001000,0.001000
1009.557692,0.044073,0.001000,0.001000,0.001000,0.001000,0.001000
1009.576923,0.043359,0.001000,0.001000,0.001000,0.001000,0.001000
1009.596154,0.042607,0.001000,0.001000,0.001000,0.001000,0.001000
1009.615385,0.041819,0.001000,0.001000,0.001000,0.001000,0.001000
1009.634615,0.040994,0.001000,0.001000,0.001000,0.001000,0.001000
1009.653846,0.040134,0.001000,0.001000,0.001000,0.001000,0.001000
1009.673077,0.039238,0.001000,0.001000,0.001000,0.001000,0.001000
1009.692308,0.038309,0.001000,0.001000,0.001000,0.001000,0.001000
1009.711538,0.037347,0.001000,0.001000,0.001000,0.001000,0.001000
1009.730769,0.036353,0.001000,0.001000,0.001000,0.001000,0.001000
1009.750000,0.035327,0.001000,0.001000,0.001000,0.001000,0.001000
1009.769231,0.034270,0.001000,0.001000,0.001000,0.001000,0.001000
1009.788462,0.033184,0.001000,0.001000,0.001000,0.001000,0.001000
1009.807692,0.032068,0.001000,0.001000,0.001000,0.001000,0.001000
1009.826923,0.030926,0.001000,0.001000,0.001000,0.001000,0.001000
1009.846154,0.029756,0.001000,0.001000,0.001000,0.001000,0.001000
1009.865385,0.028560,0.001000,0.001000,0.001000,0.001000,0.001000
1009.884615,0.027340,0.001000,0.001000,0.001000,0.001000,0.001000
1009.903846,0.026096,0.001000,0.001000,0.001000,0.001000,0.001000
1009.923077,0.024830,0.001000,0.001000,0.001000,0.001000,0.001000
1009.942308,0.023542,0.001000,0.001000,0.001000,0.001000,0.001000
1009.961538,0.022233,0.001000,0.001000,0.001000,0.001000,0.001000
1009.980769,0.020906,0.001000,0.001000,0.001000,0.001000,0.001000
1010.000000,0.019560,0.001000,0.001000,0.001000,0.001000,0.001000
1010.019231,0.018197,0.001000,0.001000,0.001000,0.001000,0.001000
1010.038462,0.016819,0.001000,0.001000,0.001000,0.001000,0.001000
1010.057692,0.015426,0.001000,0.001000,0.001000,0.001000,0.001000
1010.076923,0.014019,0.001000,0.001000,0.001000,0.001000,0.001000
1010.096154,0.012601,0.001000,0.001000,0.001000,0.001000,0.001000
1010.115385,0.011171,0.001000,0.001000,0.001000,0.001000,0.001000
1010.134615,0.009732,0.001000,0.001000,0.001000,0.001000,0.001000
1010.153846,0.008284,0.001000,0.001000,0.001000,0.001000,0.001000
1010.173077,0.006830,0.001000,0.001000,0.001000,0.001000,0.001000
1010.192308,0.005369,0.001000,0.001000,0.001000,0.001000,0.001000
1010.211538,0.003904,0.001000,0.001000,0.001000,0.001000,0.001000
1010.230769,0.002435,0.001000,0.001000,0.001000,0.001000,0.001000
1010.250000,0.000964,0.001000,0.001000,0.001000,0.001000,0.001000
1010.269231,-0.000508,0.001000,0.001000,0.001000,0.001000,0.001000
1010.288462,-0.001979,0.001000,0.001000,0.001000,0.001000,0.001000
1010.307692,-0.003448,0.001000,0.001000,0.001000,0.001000,0.001000
1010.326923,-0.004915,0.001000,0.001000,0.001000,0.001000,0.001000
1010.346154,-0.006377,0.001000,0.001000,0.001000,0.001000,0.001000
1010.365385,-0.007834,0.001000,0.001000,0.001000,0.001000,0.001000
1010.384615,-0.009284,0.001000,0.001000,0.001000,0.001000,0.001000
1010.403846,-0.010726,0.001000,0.001000,0.001000,0.001000,0.001000
1010.423077,-0.012158,0.001000,0.001000,0.001000,0.001000,0.001000
1010.442308,-0.013580,0.001000,0.001000,0.001000,0.001000,0.001000
1010.461538,-0.014991,0.001000,0.001000,0.001000,0.001000,0.001000
1010.480769,-0.016388,0.001000,0.001000,0.001000,0.001000,0.001000
1010.500000,-0.017771,0.001000,0.001000,0.001000,0.001000,0.001000
1010.519231,-0.019139,0.001000,0.001000,0.001000,0.001000,0.001000
1010.538462,-0.020490,0.001000,0.001000,0.001000,0.001000,0.001000
1010.557692,-0.021823,0.001000,0.001000,0.001000,0.001000,0.001000
1010.576923,-0.023138,0.001000,0.001000,0.001000,0.001000,0.001000
1010.596154,-0.024432,0.001000,0.001000,0.001000,0.001000,0.001000
1010.615385,-0.025706,0.001000,0.001000,0.001000,0.001000,0.001000
1010.634615,-0.026957,0.001000,0.001000,0.001000,0.001000,0.001000
1010.653846,-0.028184,0.001000,0.001000,0.001000,0.001000,0.001000
1010.673077,-0.029388,0.001000,0.001000,0.001000,0.001000,0.001000
1010.692308,-0.030565,0.001000,0.001000,0.001000,0.001000,0.001000
1010.711538,-0.031717,0.001000,0.001000,0.001000,0.001000,0.001000
1010.730769,-0.032841,0.001000,0.001000,0.001000,0.001000,0.001000
1010.750000,-0.033936,0.001000,0.001000,0.001000,0.001000,0.001000
1010.769231,-0.035002,0.001000,0.001000,0.001000,0.001000,0.001000
1010.788462,-0.036038,0.001000,0.001000,0.001000,0.001000,0.001000
1010.807692,-0.037042,0.001000,0.001000,0.001000,0.001000,0.001000
1010.826923,-0.038014,0.001000,0.001000,0.001000,0.001000,0.001000
1010.846154,-0.038954,0.001000,0.001000,0.001000,0.001000,0.001000
1010.865385,-0.039859,0.001000,0.001000,0.001000,0.001000,0.001000
1010.884615,-0.040731,0.001000,0.001000,0.001000,0.001000,0.001000
1010.903846,-0.041566,0.001000,0.001000,0.001000,0.001000,0.001000
1010.923077,-0.042366,0.001000,0.001000,0.001000,0.001000,0.001000
1010.942308,-0.043129,0.001000,0.001000,0.001000,0.001000,0.001000
1010.961538,-0.043855,0.001000,0.001000,0.001000,0.001000,0.001000
1010.980769,-0.044543,0.001000,0.001000,0.001000,0.001000,0.001000
1011.000000,-0.045192,0.001000,0.001000,0.001000,0.001000,0.001000
1011.019231,-0.045802,0.001000,0.001000,0.001000,0.001000,0.001000
1011.038462,-0.046373,0.001000,0.001000,0.001000,0.001000,0.001000
1011.057692,-0.046903,0.001000,0.001000,0.001000,0.001000,0.001000
1011.076923,-0.047392,0.001000,0.001000,0.001000,0.001000,0.001000
1011.096154,-0.047841,0.001000,0.001000,0.001000,0.001000,0.001000
1011.115385,-0.048248,0.001000,0.001000,0.001000,0.001000,0.001000
1011.134615,-0.048613,0.001000,0.001000,0.001000,0.001000,0.001000
1011.153846,-0.048936,0.001000,0.001000,0.001000,0.001000,0.001000
1011.173077,-0.049217,0.001000,0.001000,0.001000,0.001000,0.001000
1011.192308,-0.049455,0.001000,0.001000,0.001000,0.001000,0.001000
1011.211538,-0.049650,0.001000,0.001000,0.001000,0.001000,0.001000
1011.230769,-0.049802,0.001000,0.001000,0.001000,0.001000,0.001000
1011.250000,-0.049912,0.001000,0.001000,0.001000,0.001000,0.001000
1011.269231,-0.049977,0.001000,0.001000,0.001000,0.001000,0.001000
1011.288462,-0.050000,0.001000,0.001000,0.001000,0.001000,0.001000
1011.307692,-0.049979,0.001000,0.001000,0.001000,0.001000,0.001000
1011.326923,-0.049915,0.001000,0.001000,0.001000,0.001000,0.001000
1011.346154,-0.049808,0.001000,0.001000,0.001000,0.001000,0.001000
1011.365385,-0.049657,0.001000,0.001000,0.001000,0.001000,0.001000
1011.384615,-0.049464,0.001000,0.001000,0.001000,0.001000,0.001000
1011.403846,-0.049228,0.001000,0.001000,0.001000,0.001000,0.001000
1011.423077,-0.048949,0.001000,0.001000,0.001000,0.001000,0.001000
1011.442308,-0.048627,0.001000,0.001000,0.001000,0.001000,0.001000
1011.461538,-0.048264,0.001000,0.001000,0.001000,0.001000,0.001000
1011.480769,-0.047858,0.001000,0.001000,0.001000,0.001000,0.001000
1011.500000,-0.047412,0.001000,0.001000,0.001000,0.001000,0.001000
1011.519231,-0.046924,0.001000,0.001000,0.001000,0.001000,0.001000
1011.538462,-0.046395,0.001000,0.001000,0.001000,0.001000,0.001000
1011.557692,-0.045827,0.001000,0.001000,0.001000,0.001000,0.001000
1011.576923,-0.045218,0.001000,0.001000,0.001000,0.001000,0.001000
1011.596154,-0.044571,0.001000,0.001000,0.001000,0.001000,0.001000
1011.615385,-0.043884,0.001000,0.001000,0.001000,0.001000,0.001000
1011.634615,-0.043160,0.001000,0.001000,0.001000,0.001000,0.001000
1011.653846,-0.042399,0.001000,0.001000,0.001000,0.001000,0.001000
1011.673077,-0.041600,0.001000,0.001000,0.001000,0.001000,0.001000
1011.692308,-0.040766,0.001000,0.001000,0.001000,0.001000,0.001000
1011.711538,-0.039896,0.001000,0.001000,0.001000,0.001000,0.001000
1011.730769,-0.038992,0.001000,0.001000,0.001000,0.001000,0.001000
1011.750000,-0.038054,0.001000,0.001000,0.001000,0.001000,0.001000
1011.769231,-0.037083,0.001000,0.001000,0.001000,0.001000,0.001000
1011.788462,-0.036080,0.001000,0.001000,0.001000,0.001000,0.001000
1011.807692,-0.035045,0.001000,0.001000,0.001000,0.001000,0.001000
1011.826923,-0.033981,0.001000,0.001000,0.001000,0.001000,0.001000
1011.846154,-0.032886,0.001000,0.001000,0.001000,0.001000,0.001000
1011.865385,-0.031764,0.001000,0.001000,0.001000,0.001000,0.001000
1011.884615,-0.030614,0.001000,0.001000,0.001000,0.001000,0.001000
1011.903846,-0.029437,0.001000,0.001000,0.001000,0.001000,0.001000
1011.923077,-0.028235,0.001000,0.001000,0.001000,0.001000,0.001000
1011.942308,-0.027008,0.001000,0.001000,0.001000,0.001000,0.001000
1011.961538,-0.025758,0.001000,0.001000,0.001000,0.001000,0.001000
1011.980769,-0.024485,0.001000,0.001000,0.001000,0.001000,0.001000
1012.000000,-0.023192,0.001000,0.001000,0.001000,0.001000,0.001000
1012.019231,-0.021878,0.001000,0.001000,0.001000,0.001000,0.001000
1012.038462,-0.020546,0.001000,0.001000,0.001000,0.001000,0.001000
1012.057692,-0.019195,0.001000,0.001000,0.001000,0.001000,0.001000
1012.076923,-0.017828,0.001000,0.001000,0.001000,0.001000,0.001000
1012.096154,-0.016445,0.001000,0.001000,0.001000,0.001000,0.001000
1012.115385,-0.015049,0.001000,0.001000,0.001000,0.001000,0.001000
1012.134615,-0.013639,0.001000,0.001000,0.001000,0.001000,0.001000
1012.153846,-0.012217,0.001000,0.001000,0.001000,0.001000,0.001000
1012.173077,-0.010785,0.001000,0.001000,0.001000,0.001000,0.001000
1012.192308,-0.009343,0.001000,0.001000,0.001000,0.001000,0.001000
1012.211538,-0.007894,0.001000,0.001000,0.001000,0.001000,0.001000
1012.230769,-0.006437,0.001000,0.001000,0.001000,0.001000,0.001000
1012.250000,-0.004975,0.001000,0.001000,0.001000,0.001000,0.001000
1012.269231,-0.003509,0.001000,0.001000,0.001000,0.001000,0.001000
1012.288462,-0.002040,0.001000,0.001000,0.001000,0.001000,0.001000
1012.307692,-0.000568,0.001000,0.001000,0.001000,0.001000,0.001000
1012.326923,0.000903,0.001000,0.001000,0.001000,0.001000,0.001000
1012.346154,0.002374,0.001000,0.001000,0.001000,0.001000,0.001000
1012.365385,0.003843,0.001000,0.001000,0.001000,0.001000,0.001000
1012.384615,0.005309,0.001000,0.001000,0.001000,0.001000,0.001000
1012.403846,0.006769,0.001000,0.001000,0.001000,0.001000,0.001000
1012.423077,0.008225,0.001000,0.001000,0.001000,0.001000,0.001000
1012.442308,0.009672,0.001000,0.001000,0.001000,0.001000,0.001000
1012.461538,0.011112,0.001000,0.001000,0.001000,0.001000,0.001000
1012.480769,0.012542,0.001000,0.001000,0.001000,0.001000,0.001000
1012.500000,0.013961,0.001000,0.001000,0.001000,0.001000,0.001000
1012.519231,0.015368,0.001000,0.001000,0.001000,0.001000,0.001000
1012.538462,0.016761,0.001000,0.001000,0.001000,0.001000,0.001000
1012.557692,0.018141,0.001000,0.001000,0.001000,0.001000,0.001000
1012.576923,0.019504,0.001000,0.001000,0.001000,0.001000,0.001000
1012.596154,0.020851,0.001000,0.001000,0.001000,0.001000,0.001000
1012.615385,0.022179,0.001000,0.001000,0.001000,0.001000,0.001000
1012.634615,0.023488,0.001000,0.001000,0.001000,0.001000,0.001000
1012.653846,0.024777,0.001000,0.001000,0.001000,0.001000,0.001000
1012.673077,0.026044,0.001000,0.001000,0.001000,0.001000,0.001000
1012.692308,0.027289,0.001000,0.001000,0.001000,0.001000,0.001000
1012.711538,0.028510,0.001000,0.001000,0.001000,0.001000,0.001000
1012.730769,0.029707,0.001000,0.001000,0.001000,0.001000,0.001000
1012.750000,0.030878,0.001000,0.001000,0.001000,0.001000,0.001000
1012.769231,0.032022,0.001000,0.001000,0.001000,0.001000,0.001000
1012.788462,0.033138,0.001000,0.001000,0.001000,0.001000,0.001000
1012.807692,0.034226,0.001000,0.001000,0.001000,0.001000,0.001000
1012.826923,0.035284,0.001000,0.001000,0.001000,0.001000,0.001000
1012.846154,0.036311,0.001000,0.001000,0.001000,0.001000,0.001000
1012.865385,0.037307,0.001000,0.001000,0.001000,0.001000,0.001000
1012.884615,0.038270,0.001000,0.001000,0.001000,0.001000,0.001000
1012.903846,0.039201,0.001000,0.001000,0.001000,0.001000,0.001000
1012.923077,0.040097,0.001000,0.001000,0.001000,0.001000,0.001000
1012.942308,0.040959,0.001000,0.001000,0.001000,0.001000,0.001000
1012.961538,0.041785,0.001000,0.001000,0.001000,0.001000,0.001000
1012.980769,0.042575,0.001000,0.001000,0.001000,0.001000,0.001000
1013.000000,0.043328,0.001000,0.001000,0.001000,0.001000,0.001000
1013.019231,0.044044,0.001000,0.001000,0.001000,0.001000,0.001000
1013.038462,0.044721,0.001000,0.001000,0.001000,0.001000,0.001000
1013.057692,0.045360,0.001000,0.001000,0.001000,0.001000,0.001000
1013.076923,0.045960,0.001000,0.001000,0.001000,0.001000,0.001000
1013.096154,0.046519,0.001000,0.001000,0.001000,0.001000,0.001000
1013.115385,0.047038,0.001000,0.001000,0.001000,0.001000,0.001000
1013.134615,0.047517,0.001000,0.001000,0.001000,0.001000,0.001000
1013.153846,0.047954,0.001000,0.001000,0.001000,0.001000,0.001000
1013.173077,0.048350,0.001000,0.001000,0.001000,0.001000,0.001000
1013.192308,0.048704,0.001000,0.001000,0.001000,0.001000,0.001000
1013.211538,0.049016,0.001000,0.001000,0.001000,0.001000,0.001000
1013.230769,0.049285,0.001000,0.001000,0.001000,0.001000,0.001000
1013.250000,0.049512,0.001000,0.001000,0.001000,0.001000,0.001000
1013.269231,0.049695,0.001000,0.001000,0.001000,0.001000,0.001000
1013.288462,0.049836,0.001000,0.001000,0.001000,0.001000,0.001000
1013.307692,0.049934,0.001000,0.001000,0.001000,0.001000,0.001000
1013.326923,0.049988,0.001000,0.001000,0.001000,0.001000,0.001000
1013.346154,0.049999,0.001000,0.001000,0.001000,0.001000,0.001000
1013.365385,0.049966,0.001000,0.001000,0.001000,0.001000,0.001000
1013.384615,0.049891,0.001000,0.001000,0.001000,0.001000,0.001000
1013.403846,0.049772,0.001000,0.001000,0.001000,0.001000,0.001000
1013.423077,0.049610,0.001000,0.001000,0.001000,0.001000,0.001000
1013.442308,0.049405,0.001000,0.001000,0.001000,0.001000,0.001000
1013.461538,0.049157,0.001000,0.001000,0.001000,0.001000,0.001000
1013.480769,0.048866,0.001000,0.001000,0.001000,0.001000,0.001000
1013.500000,0.048534,0.001000,0.001000,0.001000,0.001000,0.001000
1013.519231,0.048159,0.001000,0.001000,0.001000,0.001000,0.001000
1013.538462,0.047742,0.001000,0.001000,0.001000,0.001000,0.001000
1013.557692,0.047284,0.001000,0.001000,0.001000,0.001000,0.001000
1013.576923,0.046786,0.001000,0.001000,0.001000,0.001000,0.001000
1013.596154,0.046246,0.001000,0.001000,0.001000,0.001000,0.001000
1013.615385,0.045667,0.001000,0.001000,0.001000,0.001000,0.001000
1013.634615,0.045048,0.001000,0.001000,0.001000,0.001000,0.001000
1013.653846,0.044390,0.001000,0.001000,0.001000,0.001000,0.001000
1013.673077,0.043693,0.001000,0.001000,0.001000,0.001000,0.001000
1013.692308,0.042959,0.001000,0.001000,0.001000,0.001000,0.001000
1013.711538,0.042187,0.001000,0.001000,0.001000,0.001000,0.001000
1013.730769,0.041379,0.001000,0.001000,0.001000,0.001000,0.001000
1013.750000,0.040535,0.001000,0.001000,0.001000,0.001000,0.001000
1013.769231,0.039656,0.001000,0.001000,0.001000,0.001000,0.001000
1013.788462,0.038743,0.001000,0.001000,0.001000,0.001000,0.001000
1013.807692,0.037796,0.001000,0.001000,0.001000,0.001000,0.001000
1013.826923,0.036816,0.001000,0.001000,0.001000,0.001000,0.001000
1013.846154,0.035805,0.001000,0.001000,0.001000,0.001000,0.001000
1013.865385,0.034762,0.001000,0.001000,0.001000,0.001000,0.001000
1013.884615,0.033689,0.001000,0.001000,0.001000,0.001000,0.001000
1013.903846,0.032587,0.001000,0.001000,0.001000,0.001000,0.001000
1013.923077,0.031457,0.001000,0.001000,0.001000,0.001000,0.001000
1013.942308,0.030300,0.001000,0.001000,0.001000,0.001000,0.001000
1013.961538,0.029116,0.001000,0.001000,0.001000,0.001000,0.001000
1013.980769,0.027907,0.001000,0.001000,0.001000,0.001000,0.001000
1014.000000,0.026674,0.001000,0.001000,0.001000,0.001000,0.001000
1014.019231,0.025418,0.001000,0.001000,0.001000,0.001000,0.001000
1014.038462,0.024140,0.001000,0.001000,0.001000,0.001000,0.001000
1014.057692,0.022840,0.001000,0.001000,0.001000,0.001000,0.001000
1014.076923,0.021522,0.001000,0.001000,0.001000,0.001000,0.001000
1014.096154,0.020184,0.001000,0.001000,0.001000,0.001000,0.001000
1014.115385,0.018829,0.001000,0.001000,0.001000,0.001000,0.001000
1014.134615,0.017458,0.001000,0.001000,0.001000,0.001000,0.001000
1014.153846,0.016071,0.001000,0.001000,0.001000,0.001000,0.001000
1014.173077,0.014671,0.001000,0.001000,0.001000,0.001000,0.001000
1014.192308,0.013258,0.001000,0.001000,0.001000,0.001000,0.001000
1014.211538,0.011833,0.001000,0.001000,0.001000,0.001000,0.001000
1014.230769,0.010398,0.001000,0.001000,0.001000,0.001000,0.001000
1014.250000,0.008954,0.001000,0.001000,0.001000,0.001000,0.001000
1014.269231,0.007503,0.001000,0.001000,0.001000,0.001000,0.001000
1014.288462,0.006045,0.001000,0.001000,0.001000,0.001000,0.001000
1014.307692,0.004581,0.001000,0.001000,0.001000,0.001000,0.001000
1014.326923,0.003114,0.001000,0.001000,0.001000,0.001000,0.001000
1014.346154,0.001644,0.001000,0.001000,0.001000,0.001000,0.001000
1014.365385,0.000172,0.001000,0.001000,0.001000,0.001000,0.001000
1014.384615,-0.001299,0.001000,0.001000,0.001000,0.001000,0.001000
1014.403846,-0.002770,0.001000,0.001000,0.001000,0.001000,0.001000
1014.423077,-0.004238,0.001000,0.001000,0.001000,0.001000,0.001000
1014.442308,-0.005702,0.001000,0.001000,0.001000,0.001000,0.001000
1014.461538,-0.007161,0.001000,0.001000,0.001000,0.001000,0.001000
1014.480769,-0.008615,0.001000,0.001000,0.001000,0.001000,0.001000
1014.500000,-0.010061,0.001000,0.001000,0.001000,0.001000,0.001000
1014.519231,-0.011498,0.001000,0.001000,0.001000,0.001000,0.001000
1014.538462,-0.012925,0.001000,0.001000,0.001000,0.001000,0.001000
1014.557692,-0.014341,0.001000,0.001000,0.001000,0.001000,0.001000
1014.576923,-0.015744,0.001000,0.001000,0.001000,0.001000,0.001000
1014.596154,-0.017134,0.001000,0.001000,0.001000,0.001000,0.001000
1014.615385,-0.018509,0.001000,0.001000,0.001000,0.001000,0.001000
1014.634615,-0.019868,0.001000,0.001000,0.001000,0.001000,0.001000
1014.653846,-0.021210,0.001000,0.001000,0.001000,0.001000,0.001000
1014.673077,-0.022533,0.001000,0.001000,0.001000,0.001000,0.001000
1014.692308,-0.023837,0.001000,0.001000,0.001000,0.001000,0.001000
1014.711538,-0.025120,0.001000,0.001000,0.001000,0.001000,0.001000
1014.730769,-0.026382,0.001000,0.001000,0.001000,0.001000,0.001000
1014.750000,-0.027620,0.001000,0.001000,0.001000,0.001000,0.001000
1014.769231,-0.028835,0.001000,0.001000,0.001000,0.001000,0.001000
1014.788462,-0.030024,0.001000,0.001000,0.001000,0.001000,0.001000
1014.807692,-0.031188,0.001000,0.001000,0.001000,0.001000,0.001000
1014.826923,-0.032325,0.001000,0.001000,0.001000,0.001000,0.001000
1014.846154,-0.033433,0.001000,0.001000,0.001000,0.001000,0.001000
1014.865385,-0.034513,0.001000,0.001000,0.001000,0.001000,0.001000
1014.884615,-0.035563,0.001000,0.001000,0.001000,0.001000,0.001000
1014.903846,-0.036582,0.001000,0.001000,0.001000,0.001000,0.001000
1014.923077,-0.037569,0.001000,0.001000,0.001000,0.001000,0.001000
1014.942308,-0.038524,0.001000,0.001000,0.001000,0.001000,0.001000
1014.961538,-0.039445,0.001000,0.001000,0.001000,0.001000,0.001000
1014.980769,-0.040332,0.001000,0.001000,0.001000,0.001000,0.001000
1015.000000,-0.041185,0.001000,0.001000,0.001000,0.001000,0.001000
1015.019231,-0.042001,0.001000,0.001000,0.001000,0.001000,0.001000
1015.038462,-0.042781,0.001000,0.001000,0.001000,0.001000,0.001000
1015.057692,-0.043525,0.001000,0.001000,0.001000,0.001000,0.001000
1015.076923,-0.044230,0.001000,0.001000,0.001000,0.001000,0.001000
1015.096154,-0.044897,0.001000,0.001000,0.001000,0.001000,0.001000
1015.115385,-0.045525,0.001000,0.001000,0.001000,0.001000,0.001000
1015.134615,-0.046114,0.001000,0.001000,0.001000,0.001000,0.001000
1015.153846,-0.046663,0.001000,0.001000,0.001000,0.001000,0.001000
1015.173077,-0.047171,0.001000,0.001000,0.001000,0.001000,0.001000
1015.192308,-0.047639,0.001000,0.001000,0.001000,0.001000,0.001000
1015.211538,-0.048065,0.001000,0.001000,0.001000,0.001000,0.001000
1015.230769,-0.048450,0.001000,0.001000,0.001000,0.001000,0.001000
1015.250000,-0.048792,0.001000,0.001000,0.001000,0.001000,0.001000
1015.269231,-0.049092,0.001000,0.001000,0.001000,0.001000,0.001000
1015.288462,-0.049350,0.001000,0.001000,0.001000,0.001000,0.001000
1015.307692,-0.049565,0.001000,0.001000,0.001000,0.001000,0.001000
1015.326923,-0.049738,0.001000,0.001000,0.001000,0.001000,0.001000
1015.346154,-0.049867,0.001000,0.001000,0.001000,0.001000,0.001000
1015.365385,-0.049952,0.001000,0.001000,0.001000,0.001000,0.001000
1015.384615,-0.049995,0.001000,0.001000,0.001000,0.001000,0.001000
1015.403846,-0.049994,0.001000,0.001000,0.001000,0.001000,0.001000
1015.423077,-0.049950,0.001000,0.001000,0.001000,0.001000,0.001000
1015.442308,-0.049863,0.001000,0.001000,0.001000,0.001000,0.001000
1015.461538,-0.049732,0.001000,0.001000,0.001000,0.001000,0.001000
1015.480769,-0.049559,0.001000,0.001000,0.001000,0.001000,0.001000
1015.500000,-0.049342,0.001000,0.001000,0.001000,0.001000,0.001000
1015.519231,-0.049083,0.001000,0.001000,0.001000,0.001000,0.001000
1015.538462,-0.048781,0.001000,0.001000,0.001000,0.001000,0.001000
1015.557692,-0.048437,0.001000,0.001000,0.001000,0.001000,0.001000
1015.576923,-0.048051,0.001000,0.001000,0.001000,0.001000,0.001000
1015.596154,-0.047623,0.001000,0.001000,0.001000,0.001000,0.001000
1015.615385,-0.047154,0.001000,0.001000,0.001000,0.001000,0.001000
1015.634615,-0.046644,0.001000,0.001000,0.001000,0.001000,0.001000
1015.653846,-0.046094,0.001000,0.001000,0.001000,0.001000,0.001000
1015.673077,-0.045504,0.001000,0.001000,0.001000,0.001000,0.001000
1015.692308,-0.044875,0.001000,0.001000,0.001000,0.001000,0.001000
1015.711538,-0.044206,0.001000,0.001000,0.001000,0.001000,0.001000
1015.730769,-0.043499,0.001000,0.001000,0.001000,0.001000,0.001000
1015.750000,-0.042755,0.001000,0.001000,0.001000,0.001000,0.001000
1015.769231,-0.041974,0.001000,0.001000,0.001000,0.001000,0.001000
1015.788462,-0.041156,0.001000,0.001000,0.001000,0.001000,0.001000
1015.807692,-0.040302,0.001000,0.001000,0.001000,0.001000,0.001000
1015.826923,-0.039414,0.001000,0.001000,0.001000,0.001000,0.001000
1015.846154,-0.038491,0.001000,0.001000,0.001000,0.001000,0.001000
1015.865385,-0.037536,0.001000,0.001000,0.001000,0.001000,0.001000
1015.884615,-0.036547,0.001000,0.001000,0.001000,0.001000,0.001000
1015.903846,-0.035527,0.001000,0.001000,0.001000,0.001000,0.001000
1015.923077,-0.034476,0.001000,0.001000,0.001000,0.001000,0.001000
1015.942308,-0.033396,0.001000,0.001000,0.001000,0.001000,0.001000
1015.961538,-0.032286,0.001000,0.001000,0.001000,0.001000,0.001000
1015.980769,-0.031148,0.001000,0.001000,0.001000,0.001000,0.001000
1016.000000,-0.029984,0.001000,0.001000,0.001000,0.001000,0.001000
1016.019231,-0.028793,0.001000,0.001000,0.001000,0.001000,0.001000
1016.038462,-0.027578,0.001000,0.001000,0.001000,0.001000,0.001000
1016.057692,-0.026338,0.001000,0.001000,0.001000,0.001000,0.001000
1016.076923,-0.025076,0.001000,0.001000,0.001000,0.001000,0.001000
1016.096154,-0.023792,0.001000,0.001000,0.001000,0.001000,0.001000
1016.115385,-0.022488,0.001000,0.001000,0.001000,0.001000,0.001000
1016.134615,-0.021164,0.001000,0.001000,0.001000,0.001000,0.001000
1016.153846,-0.019821,0.001000,0.001000,0.001000,0.001000,0.001000
1016.173077,-0.018462,0.001000,0.001000,0.001000,0.001000,0.001000
1016.192308,-0.017086,0.001000,0.001000,0.001000,0.001000,0.001000
1016.211538,-0.015696,0.001000,0.001000,0.001000,0.001000,0.001000
1016.230769,-0.014292,0.001000,0.001000,0.001000,0.001000,0.001000
1016.250000,-0.012876,0.001000,0.001000,0.001000,0.001000,0.001000
1016.269231,-0.011448,0.001000,0.001000,0.001000,0.001000,0.001000
1016.288462,-0.010011,0.001000,0.001000,0.001000,0.001000,0.001000
1016.307692,-0.008565,0.001000,0.001000,0.001000,0.001000,0.001000
1016.326923,-0.007111,0.001000,0.001000,0.001000,0.001000,0.001000
1016.346154,-0.005651,0.001000,0.001000,0.001000,0.001000,0.001000
1016.365385,-0.004187,0.001000,0.001000,0.001000,0.001000,0.001000
1016.384615,-0.002719,0.001000,0.001000,0.001000,0.001000,0.001000
1016.403846,-0.001248,0.001000,0.001000,0.001000,0.001000,0.001000
1016.423077,0.000223,0.001000,0.001000,0.001000,0.001000,0.001000
1016.442308,0.001695,0.001000,0.001000,0.001000,0.001000,0.001000
1016.461538,0.003165,0.001000,0.001000,0.001000,0.001000,0.001000
1016.480769,0.004632,0.001000,0.001000,0.001000,0.001000,0.001000
1016.500000,0.006095,0.001000,0.001000,0.001000,0.001000,0.001000
1016.519231,0.007553,0.001000,0.001000,0.001000,0.001000,0.001000
1016.538462,0.009004,0.001000,0.001000,0.001000,0.001000,0.001000
1016.557692,0.010448,0.001000,0.001000,0.001000,0.001000,0.001000
1016.576923,0.011882,0.001000,0.001000,0.001000,0.001000,0.001000
1016.596154,0.013307,0.001000,0.001000,0.001000,0.001000,0.001000
1016.615385,0.014719,0.001000,0.001000,0.001000,0.001000,0.001000
1016.634615,0.016119,0.001000,0.001000,0.001000,0.001000,0.001000
1016.653846,0.017505,0.001000,0.001000,0.001000,0.001000,0.001000
1016.673077,0.018876,0.001000,0.001000,0.001000,0.001000,0.001000
1016.692308,0.020231,0.001000,0.001000,0.001000,0.001000,0.001000
1016.711538,0.021567,0.001000,0.001000,0.001000,0.001000,0.001000
1016.730769,0.022886,0.001000,0.001000,0.001000,0.001000,0.001000
1016.750000,0.024184,0.001000,0.001000,0.001000,0.001000,0.001000
1016.769231,0.025462,0.001000,0.001000,0.001000,0.001000,0.001000
1016.788462,0.026717,0.001000,0.001000,0.001000,0.001000,0.001000
1016.807692,0.027949,0.001000,0.001000,0.001000,0.001000,0.001000
1016.826923,0.029157,0.001000,0.001000,0.001000,0.001000,0.001000
1016.846154,0.030340,0.001000,0.001000,0.001000,0.001000,0.001000
1016.865385,0.031497,0.001000,0.001000,0.001000,0.001000,0.001000
1016.884615,0.032626,0.001000,0.001000,0.001000,0.001000,0.001000
1016.903846,0.033727,0.001000,0.001000,0.001000,0.001000,0.001000
1016.923077,0.034798,0.001000,0.001000,0.001000,0.001000,0.001000
1016.942308,0.035840,0.001000,0.001000,0.001000,0.001000,0.001000
1016.961538,0.036851,0.001000,0.001000,0.001000,0.001000,0.001000
1016.980769,0.037829,0.001000,0.001000,0.001000,0.001000,0.001000
1017.000000,0.038775,0.001000,0.001000,0.001000,0.001000,0.001000
1017.019231,0.039687,0.001000,0.001000,0.001000,0.001000,0.001000
1017.038462,0.040565,0.001000,0.001000,0.001000,0.001000,0.001000
1017.057692,0.041408,0.001000,0.001000,0.001000,0.001000,0.001000
1017.076923,0.042215,0.001000,0.001000,0.001000,0.001000,0.001000
1017.096154,0.042985,0.001000,0.001000,0.001000,0.001000,0.001000
1017.115385,0.043718,0.001000,0.001000,0.001000,0.001000,0.001000
1017.134615,0.044413,0.001000,0.001000,0.001000,0.001000,0.001000
1017.153846,0.045070,0.001000,0.001000,0.001000,0.001000,0.001000
1017.173077,0.045687,0.001000,0.001000,0.001000,0.001000,0.001000
1017.192308,0.046266,0.001000,0.001000,0.001000,0.001000,0.001000
1017.211538,0.046804,0.001000,0.001000,0.001000,0.001000,0.001000
1017.230769,0.047301,0.001000,0.001000,0.001000,0.001000,0.001000
1017.250000,0.047757,0.001000,0.001000,0.001000,0.001000,0.001000
1017.269231,0.048172,0.001000,0.001000,0.001000,0.001000,0.001000
1017.288462,0.048546,0.001000,0.001000,0.001000,0.001000,0.001000
1017.307692,0.048877,0.001000,0.001000,0.001000,0.001000,0.001000
1017.326923,0.049166,0.001000,0.001000,0.001000,0.001000,0.001000
1017.346154,0.049412,0.001000,0.001000,0.001000,0.001000,0.001000
1017.365385,0.049616,0.001000,0.001000,0.001000,0.001000,0.001000
1017.384615,0.049776,0.001000,0.001000,0.001000,0.001000,0.001000
1017.403846,0.049894,0.001000,0.001000,0.001000,0.001000,0.001000
1017.423077,0.049968,0.001000,0.001000,0.001000,0.001000,0.001000
1017.442308,0.049999,0.001000,0.001000,0.001000,0.001000,0.001000
1017.461538,0.049987,0.001000,0.001000,0.001000,0.001000,0.001000
1017.480769,0.049931,0.001000,0.001000,0.001000,0.001000,0.001000
1017.500000,0.049832,0.001000,0.001000,0.001000,0.001000,0.001000
1017.519231,0.049690,0.001000,0.001000,0.001000,0.001000,0.001000
1017.538462,0.049505,0.001000,0.001000,0.001000,0.001000,0.001000
1017.557692,0.049277,0.001000,0.001000,0.001000,0.001000,0.001000
1017.576923,0.049006,0.001000,0.001000,0.001000,0.001000,0.001000
1017.596154,0.048693,0.001000,0.001000,0.001000,0.001000,0.001000
1017.615385,0.048337,0.001000,0.001000,0.001000,0.001000,0.001000
1017.634615,0.047940,0.001000,0.001000,0.001000,0.001000,0.001000
1017.653846,0.047501,0.001000,0.001000,0.001000,0.001000,0.001000
1017.673077,0.047021,0.001000,0.001000,0.001000,0.001000,0.001000
1017.692308,0.046500,0.001000,0.001000,0.001000,0.001000,0.001000
1017.711538,0.045939,0.001000,0.001000,0.001000,0.001000,0.001000
1017.730769,0.045339,0.001000,0.001000,0.001000,0.001000,0.001000
1017.750000,0.044699,0.001000,0.001000,0.001000,0.001000,0.001000
1017.769231,0.044020,0.001000,0.001000,0.001000,0.001000,0.001000
1017.788462,0.043303,0.001000,0.001000,0.001000,0.001000,0.001000
1017.807692,0.042548,0.001000,0.001000,0.001000,0.001000,0.001000
1017.826923,0.041757,0.001000,0.001000,0.001000,0.001000,0.001000
1017.846154,0.040930,0.001000,0.001000,0.001000,0.001000,0.001000
1017.865385,0.040067,0.001000,0.001000,0.001000,0.001000,0.001000
1017.884615,0.039169,0.001000,0.001000,0.001000,0.001000,0.001000
1017.903846,0.038238,0.001000,0.001000,0.001000,0.001000,0.001000
1017.923077,0.037273,0.001000,0.001000,0.001000,0.001000,0.001000
1017.942308,0.036276,0.001000,0.001000,0.001000,0.001000,0.001000
1017.961538,0.035247,0.001000,0.001000,0.001000,0.001000,0.001000
1017.980769,0.034189,0.001000,0.001000,0.001000,0.001000,0.001000
1018.000000,0.033100,0.001000,0.001000,0.001000,0.001000,0.001000
1018.019231,0.031983,0.001000,0.001000,0.001000,0.001000,0.001000
1018.038462,0.030838,0.001000,0.001000,0.001000,0.001000,0.001000
1018.057692,0.029666,0.001000,0.001000,0.001000,0.001000,0.001000
1018.076923,0.028469,0.001000,0.001000,0.001000,0.001000,0.001000
1018.096154,0.027247,0.001000,0.001000,0.001000,0.001000,0.001000
1018.115385,0.026001,0.001000,0.001000,0.001000,0.001000,0.001000
1018.134615,0.024733,0.001000,0.001000,0.001000,0.001000,0.001000
1018.153846,0.023443,0.001000,0.001000,0.001000,0.001000,0.001000
1018.173077,0.022133,0.001000,0.001000,0.001000,0.001000,0.001000
1018.192308,0.020804,0.001000,0.001000,0.001000,0.001000,0.001000
1018.211538,0.019457,0.001000,0.001000,0.001000,0.001000,0.001000
1018.230769,0.018093,0.001000,0.001000,0.001000,0.001000,0.001000
1018.250000,0.016714,0.001000,0.001000,0.001000,0.001000,0.001000
1018.269231,0.015319,0.001000,0.001000,0.001000,0.001000,0.001000
1018.288462,0.013912,0.001000,0.001000,0.001000,0.001000,0.001000
1018.307692,0.012493,0.001000,0.001000,0.001000,0.001000,0.001000
1018.326923,0.011062,0.001000,0.001000,0.001000,0.001000,0.001000
1018.346154,0.009622,0.001000,0.001000,0.001000,0.001000,0.001000
1018.365385,0.008174,0.001000,0.001000,0.001000,0.001000,0.001000
1018.384615,0.006719,0.001000,0.001000,0.001000,0.001000,0.001000
1018.403846,0.005258,0.001000,0.001000,0.001000,0.001000,0.001000
1018.423077,0.003792,0.001000,0.001000,0.001000,0.001000,0.001000
1018.442308,0.002323,0.001000,0.001000,0.001000,0.001000,0.001000
1018.461538,0.000852,0.001000,0.001000,0.001000,0.001000,0.001000
1018.480769,-0.000619,0.001000,0.001000,0.001000,0.001000,0.001000
1018.500000,-0.002090,0.001000,0.001000,0.001000,0.001000,0.001000
1018.519231,-0.003560,0.001000,0.001000,0.001000,0.001000,0.001000
1018.538462,-0.005026,0.001000,0.001000,0.001000,0.001000,0.001000
1018.557692,-0.006488,0.001000,0.001000,0.001000,0.001000,0.001000
1018.576923,-0.007944,0.001000,0.001000,0.001000,0.001000,0.001000
1018.596154,-0.009393,0.001000,0.001000,0.001000,0.001000,0.001000
1018.615385,-0.010835,0.001000,0.001000,0.001000,0.001000,0.001000
1018.634615,-0.012267,0.001000,0.001000,0.001000,0.001000,0.001000
1018.653846,-0.013688,0.001000,0.001000,0.001000,0.001000,0.001000
1018.673077,-0.015097,0.001000,0.001000,0.001000,0.001000,0.001000
1018.692308,-0.016494,0.001000,0.001000,0.001000,0.001000,0.001000
1018.711538,-0.017876,0.001000,0.001000,0.001000,0.001000,0.001000
1018.730769,-0.019242,0.001000,0.001000,0.001000,0.001000,0.001000
1018.750000,-0.020592,0.001000,0.001000,0.001000,0.001000,0.001000
1018.769231,-0.021924,0.001000,0.001000,0.001000,0.001000,0.001000
1018.788462,-0.023237,0.001000,0.001000,0.001000,0.001000,0.001000
1018.807692,-0.024530,0.001000,0.001000,0.001000,0.001000,0.001000
1018.826923,-0.025801,0.001000,0.001000,0.001000,0.001000,0.001000
1018.846154,-0.027051,0.001000,0.001000,0.001000,0.001000,0.001000
1018.865385,-0.028277,0.001000,0.001000,0.001000,0.001000,0.001000
1018.884615,-0.029478,0.001000,0.001000,0.001000,0.001000,0.001000
1018.903846,-0.030654,0.001000,0.001000,0.001000,0.001000,0.001000
1018.923077,-0.031803,0.001000,0.001000,0.001000,0.001000,0.001000
1018.942308,-0.032925,0.001000,0.001000,0.001000,0.001000,0.001000
1018.961538,-0.034018,0.001000,0.001000,0.001000,0.001000,0.001000
1018.980769,-0.035082,0.001000,0.001000,0.001000,0.001000,0.001000
1019.000000,-0.036115,0.001000,0.001000,0.001000,0.001000,0.001000
1019.019231,-0.037117,0.001000,0.001000,0.001000,0.001000,0.001000
1019.038462,-0.038087,0.001000,0.001000,0.001000,0.001000,0.001000
1019.057692,-0.039024,0.001000,0.001000,0.001000,0.001000,0.001000
1019.076923,-0.039927,0.001000,0.001000,0.001000,0.001000,0.001000
1019.096154,-0.040795,0.001000,0.001000,0.001000,0.001000,0.001000
1019.115385,-0.041628,0.001000,0.001000,0.001000,0.001000,0.001000
1019.134615,-0.042426,0.001000,0.001000,0.001000,0.001000,0.001000
1019.153846,-0.043186,0.001000,0.001000,0.001000,0.001000,0.001000
1019.173077,-0.043909,0.001000,0.001000,0.001000,0.001000,0.001000
1019.192308,-0.044594,0.001000,0.001000,0.001000,0.001000,0.001000
1019.211538,-0.045240,0.001000,0.001000,0.001000,0.001000,0.001000
1019.230769,-0.045847,0.001000,0.001000,0.001000,0.001000,0.001000
1019.250000,-0.046414,0.001000,0.001000,0.001000,0.001000,0.001000
1019.269231,-0.046941,0.001000,0.001000,0.001000,0.001000,0.001000
1019.288462,-0.047428,0.001000,0.001000,0.001000,0.001000,0.001000
1019.307692,-0.047873,0.001000,0.001000,0.001000,0.001000,0.001000
1019.326923,-0.048277,0.001000,0.001000,0.001000,0.001000,0.001000
1019.346154,-0.048639,0.001000,0.001000,0.001000,0.001000,0.001000
1019.365385,-0.048959,0.001000,0.001000,0.001000,0.001000,0.001000
1019.384615,-0.049236,0.001000,0.001000,0.001000,0.001000,0.001000
1019.403846,-0.049471,0.001000,0.001000,0.001000,0.001000,0.001000
1019.423077,-0.049663,0.001000,0.001000,0.001000,0.001000,0.001000
1019.442308,-0.049812,0.001000,0.001000,0.001000,0.001000,0.001000
1019.461538,-0.049918,0.001000,0.001000,0.001000,0.001000,0.001000
1019.480769,-0.049981,0.001000,0.001000,0.001000,0.001000,0.001000
1019.500000,-0.050000,0.001000,0.001000,0.001000,0.001000,0.001000
1019.519231,-0.049976,0.001000,0.001000,0.001000,0.001000,0.001000
1019.538462,-0.049909,0.001000,0.001000,0.001000,0.001000,0.001000
1019.557692,-0.049798,0.001000,0.001000,0.001000,0.001000,0.001000
1019.576923,-0.049644,0.001000,0.001000,0.001000,0.001000,0.001000
1019.596154,-0.049447,0.001000,0.001000,0.001000,0.001000,0.001000
1019.615385,-0.049208,0.001000,0.001000,0.001000,0.001000,0.001000
1019.634615,-0.048926,0.001000,0.001000,0.001000,0.001000,0.001000
1019.653846,-0.048601,0.001000,0.001000,0.001000,0.001000,0.001000
1019.673077,-0.048234,0.001000,0.001000,0.001000,0.001000,0.001000
1019.692308,-0.047826,0.001000,0.001000,0.001000,0.001000,0.001000
1019.711538,-0.047376,0.001000,0.001000,0.001000,0.001000,0.001000
1019.730769,-0.046885,0.001000,0.001000,0.001000,0.001000,0.001000
1019.750000,-0.046353,0.001000,0.001000,0.001000,0.001000,0.001000
1019.769231,-0.045782,0.001000,0.001000,0.001000,0.001000,0.001000
1019.788462,-0.045170,0.001000,0.001000,0.001000,0.001000,0.001000
1019.807692,-0.044520,0.001000,0.001000,0.001000,0.001000,0.001000
1019.826923,-0.043831,0.001000,0.001000,0.001000,0.001000,0.001000
1019.846154,-0.043104,0.001000,0.001000,0.001000,0.001000,0.001000
1019.865385,-0.042339,0.001000,0.001000,0.001000,0.001000,0.001000
1019.884615,-0.041538,0.001000,0.001000,0.001000,0.001000,0.001000
1019.903846,-0.040701,0.001000,0.001000,0.001000,0.001000,0.001000
1019.923077,-0.039829,0.001000,0.001000,0.001000,0.001000,0.001000
1019.942308,-0.038922,0.001000,0.001000,0.001000,0.001000,0.001000
1019.961538,-0.037981,0.001000,0.001000,0.001000,0.001000,0.001000
1019.980769,-0.037008,0.001000,0.001000,0.001000,0.001000,0.001000
1020.000000,-0.036002,0.001000,0.001000,0.001000,0.001000,0.001000
1020.019231,-0.034966,0.001000,0.001000,0.001000,0.001000,0.001000
1020.038462,-0.033899,0.001000,0.001000,0.001000,0.001000,0.001000
1020.057692,-0.032802,0.001000,0.001000,0.001000,0.001000,0.001000
1020.076923,-0.031677,0.001000,0.001000,0.001000,0.001000,0.001000
1020.096154,-0.030525,0.001000,0.001000,0.001000,0.001000,0.001000
1020.115385,-0.029346,0.001000,0.001000,0.001000,0.001000,0.001000
1020.134615,-0.028142,0.001000,0.001000,0.001000,0.001000,0.001000
1020.153846,-0.026914,0.001000,0.001000,0.001000,0.001000,0.001000
1020.173077,-0.025662,0.001000,0.001000,0.001000,0.001000,0.001000
1020.192308,-0.024388,0.001000,0.001000,0.001000,0.001000,0.001000
1020.211538,-0.023093,0.001000,0.001000,0.001000,0.001000,0.001000
1020.230769,-0.021778,0.001000,0.001000,0.001000,0.001000,0.001000
1020.250000,-0.020444,0.001000,0.001000,0.001000,0.001000,0.001000
1020.269231,-0.019092,0.001000,0.001000,0.001000,0.001000,0.001000
1020.288462,-0.017724,0.001000,0.001000,0.001000,0.001000,0.001000
1020.307692,-0.016340,0.001000,0.001000,0.001000,0.001000,0.001000
1020.326923,-0.014942,0.001000,0.001000,0.001000,0.001000,0.001000
1020.346154,-0.013531,0.001000,0.001000,0.001000,0.001000,0.001000
1020.365385,-0.012109,0.001000,0.001000,0.001000,0.001000,0.001000
1020.384615,-0.010676,0.001000,0.001000,0.001000,0.001000,0.001000
1020.403846,-0.009234,0.001000,0.001000,0.001000,0.001000,0.001000
1020.423077,-0.007784,0.001000,0.001000,0.001000,0.001000,0.001000
1020.442308,-0.006327,0.001000,0.001000,0.001000,0.001000,0.001000
1020.461538,-0.004864,0.001000,0.001000,0.001000,0.001000,0.001000
1020.480769,-0.003397,0.001000,0.001000,0.001000,0.001000,0.001000
1020.500000,-0.001928,0.001000,0.001000,0.001000,0.001000,0.001000
1020.519231,-0.000457,0.001000,0.001000,0.001000,0.001000,0.001000
1020.538462,0.001015,0.001000,0.001000,0.001000,0.001000,0.001000
1020.557692,0.002486,0.001000,0.001000,0.001000,0.001000,0.001000
1020.576923,0.003954,0.001000,0.001000,0.001000,0.001000,0.001000
1020.596154,0.005420,0.001000,0.001000,0.001000,0.001000,0.001000
1020.615385,0.006880,0.001000,0.001000,0.001000,0.001000,0.001000
1020.634615,0.008335,0.001000,0.001000,0.001000,0.001000,0.001000
1020.653846,0.009782,0.001000,0.001000,0.001000,0.001000,0.001000
1020.673077,0.011221,0.001000,0.001000,0.001000,0.001000,0.001000
1020.692308,0.012650,0.001000,0.001000,0.001000,0.001000,0.001000
1020.711538,0.014068,0.001000,0.001000,0.001000,0.001000,0.001000
1020.730769,0.015474,0.001000,0.001000,0.001000,0.001000,0.001000
1020.750000,0.016867,0.001000,0.001000,0.001000,0.001000,0.001000
1020.769231,0.018245,0.001000,0.001000,0.001000,0.001000,0.001000
1020.788462,0.019607,0.001000,0.001000,0.001000,0.001000,0.001000
1020.807692,0.020952,0.001000,0.001000,0.001000,0.001000,0.001000
1020.826923,0.022279,0.001000,0.001000,0.001000,0.001000,0.001000
1020.846154,0.023587,0.001000,0.001000,0.001000,0.001000,0.001000
1020.865385,0.024874,0.001000,0.001000,0.001000,0.001000,0.001000
1020.884615,0.026140,0.001000,0.001000,0.001000,0.001000,0.001000
1020.903846,0.027383,0.001000,0.001000,0.001000,0.001000,0.001000
1020.923077,0.028602,0.001000,0.001000,0.001000,0.001000,0.001000
1020.942308,0.029797,0.001000,0.001000,0.001000,0.001000,0.001000
1020.961538,0.030966,0.001000,0.001000,0.001000,0.001000,0.001000
1020.980769,0.032107,0.001000,0.001000,0.001000,0.001000,0.001000
1021.000000,0.033222,0.001000,0.001000,0.001000,0.001000,0.001000
1021.019231,0.034307,0.001000,0.001000,0.001000,0.001000,0.001000
1021.038462,0.035363,0.001000,0.001000,0.001000,0.001000,0.001000
1021.057692,0.036388,0.001000,0.001000,0.001000,0.001000,0.001000
1021.076923,0.037381,0.001000,0.001000,0.001000,0.001000,0.001000
1021.096154,0.038342,0.001000,0.001000,0.001000,0.001000,0.001000
1021.115385,0.039270,0.001000,0.001000,0.001000,0.001000,0.001000
1021.134615,0.040164,0.001000,0.001000,0.001000,0.001000,0.001000
1021.153846,0.041023,0.001000,0.001000,0.001000,0.001000,0.001000
1021.173077,0.041846,0.001000,0.001000,0.001000,0.001000,0.001000
1021.192308,0.042634,0.001000,0.001000,0.001000,0.001000,0.001000
1021.211538,0.043384,0.001000,0.001000,0.001000,0.001000,0.001000
1021.230769,0.044097,0.001000,0.001000,0.001000,0.001000,0.001000
1021.250000,0.044771,0.001000,0.001000,0.001000,0.001000,0.001000
1021.269231,0.045407,0.001000,0.001000,0.001000,0.001000,0.001000
1021.288462,0.046003,0.001000,0.001000,0.001000,0.001000,0.001000
1021.307692,0.046560,0.001000,0.001000,0.001000,0.001000,0.001000
1021.326923,0.047076,0.001000,0.001000,0.001000,0.001000,0.001000
1021.346154,0.047552,0.001000,0.001000,0.001000,0.001000,0.001000
1021.365385,0.047986,0.001000,0.001000,0.001000,0.001000,0.001000
1021.384615,0.048379,0.001000,0.001000,0.001000,0.001000,0.001000
1021.403846,0.048729,0.001000,0.001000,0.001000,0.001000,0.001000
1021.423077,0.049038,0.001000,0.001000,0.001000,0.001000,0.001000
1021.442308,0.049304,0.001000,0.001000,0.001000,0.001000,0.001000
1021.461538,0.049527,0.001000,0.001000,0.001000,0.001000,0.001000
1021.480769,0.049708,0.001000,0.001000,0.001000,0.001000,0.001000
1021.500000,0.049845,0.001000,0.001000,0.001000,0.001000,0.001000
1021.519231,0.049939,0.001000,0.001000,0.001000,0.001000,0.001000
1021.538462,0.049990,0.001000,0.001000,0.001000,0.001000,0.001000
1021.557692,0.049998,0.001000,0.001000,0.001000,0.001000,0.001000
1021.576923,0.049962,0.001000,0.001000,0.001000,0.001000,0.001000
1021.596154,0.049883,0.001000,0.001000,0.001000,0.001000,0.001000
1021.615385,0.049761,0.001000,0.001000,0.001000,0.001000,0.001000
1021.634615,0.049596,0.001000,0.001000,0.001000,0.001000,0.001000
1021.653846,0.049387,0.001000,0.001000,0.001000,0.001000,0.001000
1021.673077,0.049136,0.001000,0.001000,0.001000,0.001000,0.001000
1021.692308,0.048843,0.001000,0.001000,0.001000,0.001000,0.001000
1021.711538,0.048507,0.001000,0.001000,0.001000,0.001000,0.001000
1021.730769,0.048129,0.001000,0.001000,0.001000,0.001000,0.001000
1021.750000,0.047709,0.001000,0.001000,0.001000,0.001000,0.001000
1021.769231,0.047248,0.001000,0.001000,0.001000,0.001000,0.001000
1021.788462,0.046746,0.001000,0.001000,0.001000,0.001000,0.001000
1021.807692,0.046204,0.001000,0.001000,0.001000,0.001000,0.001000
1021.826923,0.045621,0.001000,0.001000,0.001000,0.001000,0.001000
1021.846154,0.044999,0.001000,0.001000,0.001000,0.001000,0.001000
1021.865385,0.044338,0.001000,0.001000,0.001000,0.001000,0.001000
1021.884615,0.043639,0.001000,0.001000,0.001000,0.001000,0.001000
1021.903846,0.042902,0.001000,0.001000,0.001000,0.001000,0.001000
1021.923077,0.042127,0.001000,0.001000,0.001000,0.001000,0.001000
1021.942308,0.041317,0.001000,0.001000,0.001000,0.001000,0.001000
1021.961538,0.040470,0.001000,0.001000,0.001000,0.001000,0.001000
1021.980769,0.039588,0.001000,0.001000,0.001000,0.001000,0.001000
1022.000000,0.038672,0.001000,0.001000,0.001000,0.001000,0.001000
1022.019231,0.037723,0.001000,0.001000,0.001000,0.001000,0.001000
1022.038462,0.036741,0.001000,0.001000,0.001000,0.001000,0.001000
1022.057692,0.035726,0.001000,0.001000,0.001000,0.001000,0.001000
1022.076923,0.034682,0.001000,0.001000,0.001000,0.001000,0.001000
1022.096154,0.033607,0.001000,0.001000,0.001000,0.001000,0.001000
1022.115385,0.032502,0.001000,0.001000,0.001000,0.001000,0.001000
1022.134615,0.031370,0.001000,0.001000,0.001000,0.001000,0.001000
1022.153846,0.030211,0.001000,0.001000,0.001000,0.001000,0.001000
1022.173077,0.029025,0.001000,0.001000,0.001000,0.001000,0.001000
1022.192308,0.027814,0.001000,0.001000,0.001000,0.001000,0.001000
1022.211538,0.026579,0.001000,0.001000,0.001000,0.001000,0.001000
1022.230769,0.025322,0.001000,0.001000,0.001000,0.001000,0.001000
1022.250000,0.024042,0.001000,0.001000,0.001000,0.001000,0.001000
1022.269231,0.022741,0.001000,0.001000,0.001000,0.001000,0.001000
1022.288462,0.021421,0.001000,0.001000,0.001000,0.001000,0.001000
1022.307692,0.020082,0.001000,0.001000,0.001000,0.001000,0.001000
1022.326923,0.018725,0.001000,0.001000,0.001000,0.001000,0.001000
1022.346154,0.017353,0.001000,0.001000,0.001000,0.001000,0.001000
1022.365385,0.015965,0.001000,0.001000,0.001000,0.001000,0.001000
1022.384615,0.014564,0.001000,0.001000,0.001000,0.001000,0.001000
1022.403846,0.013150,0.001000,0.001000,0.001000,0.001000,0.001000
1022.423077,0.011724,0.001000,0.001000,0.001000,0.001000,0.001000
1022.442308,0.010289,0.001000,0.001000,0.001000,0.001000,0.001000
1022.461538,0.008844,0.001000,0.001000,0.001000,0.001000,0.001000
1022.480769,0.007392,0.001000,0.001000,0.001000,0.001000,0.001000
1022.500000,0.005934,0.001000,0.001000,0.001000,0.001000,0.001000
1022.519231,0.004470,0.001000,0.001000,0.001000,0.001000,0.001000
1022.538462,0.003002,0.001000,0.001000,0.001000,0.001000,0.001000
1022.557692,0.001532,0.001000,0.001000,0.001000,0.001000,0.001000
1022.576923,0.000061,0.001000,0.001000,0.001000,0.001000,0.001000
1022.596154,-0.001411,0.001000,0.001000,0.001000,0.001000,0.001000
1022.615385,-0.002881,0.001000,0.001000,0.001000,0.001000,0.001000
1022.634615,-0.004349,0.001000,0.001000,0.001000,0.001000,0.001000
1022.653846,-0.005813,0.001000,0.001000,0.001000,0.001000,0.001000
1022.673077,-0.007272,0.001000,0.001000,0.001000,0.001000,0.001000
1022.692308,-0.008725,0.001000,0.001000,0.001000,0.001000,0.001000
1022.711538,-0.010170,0.001000,0.001000,0.001000,0.001000,0.001000
1022.730769,-0.011606,0.001000,0.001000,0.001000,0.001000,0.001000
1022.750000,-0.013033,0.001000,0.001000,0.001000,0.001000,0.001000
1022.769231,-0.014448,0.001000,0.001000,0.001000,0.001000,0.001000
1022.788462,-0.015850,0.001000,0.001000,0.001000,0.001000,0.001000
1022.807692,-0.017239,0.001000,0.001000,0.001000,0.001000,0.001000
1022.826923,-0.018613,0.001000,0.001000,0.001000,0.001000,0.001000
1022.846154,-0.019970,0.001000,0.001000,0.001000,0.001000,0.001000
1022.865385,-0.021311,0.001000,0.001000,0.001000,0.001000,0.001000
1022.884615,-0.022633,0.001000,0.001000,0.001000,0.001000,0.001000
1022.903846,-0.023935,0.001000,0.001000,0.001000,0.001000,0.001000
1022.923077,-0.025217,0.001000,0.001000,0.001000,0.001000,0.001000
1022.942308,-0.026476,0.001000,0.001000,0.001000,0.001000,0.001000
1022.961538,-0.027713,0.001000,0.001000,0.001000,0.001000,0.001000
1022.980769,-0.028926,0.001000,0.001000,0.001000,0.001000,0.001000
1023.000000,-0.030114,0.001000,0.001000,0.001000,0.001000,0.001000
1023.019231,-0.031275,0.001000,0.001000,0.001000,0.001000,0.001000
1023.038462,-0.032410,0.001000,0.001000,0.001000,0.001000,0.001000
1023.057692,-0.033516,0.001000,0.001000,0.001000,0.001000,0.001000
1023.076923,-0.034594,0.001000,0.001000,0.001000,0.001000,0.001000
1023.096154,-0.035641,0.001000,0.001000,0.001000,0.001000,0.001000
1023.115385,-0.036658,0.001000,0.001000,0.001000,0.001000,0.001000
1023.134615,-0.037643,0.001000,0.001000,0.001000,0.001000,0.001000
1023.153846,-0.038595,0.001000,0.001000,0.001000,0.001000,0.001000
1023.173077,-0.039514,0.001000,0.001000,0.001000,0.001000,0.001000
1023.192308,-0.040398,0.001000,0.001000,0.001000,0.001000,0.001000
1023.211538,-0.041248,0.001000,0.001000,0.001000,0.001000,0.001000
1023.230769,-0.042062,0.001000,0.001000,0.001000,0.001000,0.001000
1023.250000,-0.042839,0.001000,0.001000,0.001000,0.001000,0.001000
1023.269231,-0.043579,0.001000,0.001000,0.001000,0.001000,0.001000
1023.288462,-0.044282,0.001000,0.001000,0.001000,0.001000,0.001000
1023.307692,-0.044946,0.001000,0.001000,0.001000,0.001000,0.001000
1023.326923,-0.045571,0.001000,0.001000,0.001000,0.001000,0.001000
1023.346154,-0.046157,0.001000,0.001000,0.001000,0.001000,0.001000
1023.365385,-0.046703,0.001000,0.001000,0.001000,0.001000,0.001000
1023.384615,-0.047208,0.001000,0.001000,0.001000,0.001000,0.001000
1023.403846,-0.047672,0.001000,0.001000,0.001000,0.001000,0.001000
1023.423077,-0.048096,0.001000,0.001000,0.001000,0.001000,0.001000
1023.442308,-0.048477,0.001000,0.001000,0.001000,0.001000,0.001000
1023.461538,-0.048816,0.001000,0.001000,0.001000,0.001000,0.001000
1023.480769,-0.049114,0.001000,0.001000,0.001000,0.001000,0.001000
1023.500000,-0.049368,0.001000,0.001000,0.001000,0.001000,0.001000
1023.519231,-0.049580,0.001000,0.001000,0.001000,0.001000,0.001000
1023.538462,-0.049749,0.001000,0.001000,0.001000,0.001000,0.001000
1023.557692,-0.049875,0.001000,0.001000,0.001000,0.001000,0.001000
1023.576923,-0.049957,0.001000,0.001000,0.001000,0.001000,0.001000
1023.596154,-0.049996,0.001000,0.001000,0.001000,0.001000,0.001000
1023.615385,-0.049992,0.001000,0.001000,0.001000,0.001000,0.001000
1023.634615,-0.049945,0.001000,0.001000,0.001000,0.001000,0.001000
1023.653846,-0.049854,0.001000,0.001000,0.001000,0.001000,0.001000
1023.673077,-0.049721,0.001000,0.001000,0.001000,0.001000,0.001000
1023.692308,-0.049544,0.001000,0.001000,0.001000,0.001000,0.001000
1023.711538,-0.049324,0.001000,0.001000,0.001000,0.001000,0.001000
1023.730769,-0.049061,0.001000,0.001000,0.001000,0.001000,0.001000
1023.750000,-0.048756,0.001000,0.001000,0.001000,0.001000,0.001000
1023.769231,-0.048409,0.001000,0.001000,0.001000,0.001000,0.001000
1023.788462,-0.048020,0.001000,0.001000,0.001000,0.001000,0.001000
1023.807692,-0.047589,0.001000,0.001000,0.001000,0.001000,0.001000
1023.826923,-0.047117,0.001000,0.001000,0.001000,0.001000,0.001000
1023.846154,-0.046604,0.001000,0.001000,0.001000,0.001000,0.001000
1023.865385,-0.046051,0.001000,0.001000,0.001000,0.001000,0.001000
1023.884615,-0.045458,0.001000,0.001000,0.001000,0.001000,0.001000
1023.903846,-0.044825,0.001000,0.001000,0.001000,0.001000,0.001000
1023.923077,-0.044154,0.001000,0.001000,0.001000,0.001000,0.001000
1023.942308,-0.043444,0.001000,0.001000,0.001000,0.001000,0.001000
1023.961538,-0.042697,0.001000,0.001000,0.001000,0.001000,0.001000
1023.980769,-0.041913,0.001000,0.001000,0.001000,0.001000,0.001000
1024.000000,-0.041092,0.001000,0.001000,0.001000,0.001000,0.001000
1024.019231,-0.040236,0.001000,0.001000,0.001000,0.001000,0.001000
1024.038462,-0.039345,0.001000,0.001000,0.001000,0.001000,0.001000
1024.057692,-0.038420,0.001000,0.001000,0.001000,0.001000,0.001000
1024.076923,-0.037462,0.001000,0.001000,0.001000,0.001000,0.001000
1024.096154,-0.036471,0.001000,0.001000,0.001000,0.001000,0.001000
1024.115385,-0.035448,0.001000,0.001000,0.001000,0.001000,0.001000
1024.134615,-0.034395,0.001000,0.001000,0.001000,0.001000,0.001000
1024.153846,-0.033312,0.001000,0.001000,0.001000,0.001000,0.001000
1024.173077,-0.032201,0.001000,0.001000,0.001000,0.001000,0.001000
1024.192308,-0.031061,0.001000,0.001000,0.001000,0.001000,0.001000
1024.211538,-0.029894,0.001000,0.001000,0.001000,0.001000,0.001000
1024.230769,-0.028702,0.001000,0.001000,0.001000,0.001000,0.001000
1024.250000,-0.027484,0.001000,0.001000,0.001000,0.001000,0.001000
1024.269231,-0.026243,0.001000,0.001000,0.001000,0.001000,0.001000
1024.288462,-0.024979,0.001000,0.001000,0.001000,0.001000,0.001000
1024.307692,-0.023694,0.001000,0.001000,0.001000,0.001000,0.001000
1024.326923,-0.022388,0.001000,0.001000,0.001000,0.001000,0.001000
1024.346154,-0.021062,0.001000,0.001000,0.001000,0.001000,0.001000
1024.365385,-0.019719,0.001000,0.001000,0.001000,0.001000,0.001000
1024.384615,-0.018358,0.001000,0.001000,0.001000,0.001000,0.001000
1024.403846,-0.016981,0.001000,0.001000,0.001000,0.001000,0.001000
1024.423077,-0.015590,0.001000,0.001000,0.001000,0.001000,0.001000
1024.442308,-0.014185,0.001000,0.001000,0.001000,0.001000,0.001000
1024.461538,-0.012768,0.001000,0.001000,0.001000,0.001000,0.001000
1024.480769,-0.011339,0.001000,0.001000,0.001000,0.001000,0.001000
1024.500000,-0.009901,0.001000,0.001000,0.001000,0.001000,0.001000
1024.519231,-0.008455,0.001000,0.001000,0.001000,0.001000,0.001000
1024.538462,-0.007001,0.001000,0.001000,0.001000,0.001000,0.001000
1024.557692,-0.005540,0.001000,0.001000,0.001000,0.001000,0.001000
1024.576923,-0.004076,0.001000,0.001000,0.001000,0.001000,0.001000
1024.596154,-0.002607,0.001000,0.001000,0.001000,0.001000,0.001000
1024.615385,-0.001137,0.001000,0.001000,0.001000,0.001000,0.001000
1024.634615,0.000335,0.001000,0.001000,0.001000,0.001000,0.001000
1024.653846,0.001806,0.001000,0.001000,0.001000,0.001000,0.001000
1024.673077,0.003276,0.001000,0.001000,0.001000,0.001000,0.001000
1024.692308,0.004743,0.001000,0.001000,0.001000,0.001000,0.001000
1024.711538,0.006206,0.001000,0.001000,0.001000,0.001000,0.001000
1024.730769,0.007663,0.001000,0.001000,0.001000,0.001000,0.001000
1024.750000,0.009114,0.001000,0.001000,0.001000,0.001000,0.001000
1024.769231,0.010557,0.001000,0.001000,0.001000,0.001000,0.001000
1024.788462,0.011991,0.001000,0.001000,0.001000,0.001000,0.001000
1024.807692,0.013414,0.001000,0.001000,0.001000,0.001000,0.001000
1024.826923,0.014826,0.001000,0.001000,0.001000,0.001000,0.001000
1024.846154,0.016225,0.001000,0.001000,0.001000,0.001000,0.001000
1024.865385,0.017610,0.001000,0.001000,0.001000,0.001000,0.001000
1024.884615,0.018979,0.001000,0.001000,0.001000,0.001000,0.001000
1024.903846,0.020333,0.001000,0.001000,0.001000,0.001000,0.001000
1024.923077,0.021668,0.001000,0.001000,0.001000,0.001000,0.001000
1024.942308,0.022985,0.001000,0.001000,0.001000,0.001000,0.001000
1024.961538,0.024282,0.001000,0.001000,0.001000,0.001000,0.001000
1024.980769,0.025558,0.001000,0.001000,0.001000,0.001000,0.001000
1025.000000,0.026811,0.001000,0.001000,0.001000,0.001000,0.001000
1025.019231,0.028042,0.001000,0.001000,0.001000,0.001000,0.001000
1025.038462,0.029248,0.001000,0.001000,0.001000,0.001000,0.001000
1025.057692,0.030429,0.001000,0.001000,0.001000,0.001000,0.001000
1025.076923,0.031583,0.001000,0.001000,0.001000,0.001000,0.001000
1025.096154,0.032710,0.001000,0.001000,0.001000,0.001000,0.001000
1025.115385,0.033809,0.001000,0.001000,0.001000,0.001000,0.001000
1025.134615,0.034879,0.001000,0.001000,0.001000,0.001000,0.001000
1025.153846,0.035918,0.001000,0.001000,0.001000,0.001000,0.001000
1025.173077,0.036926,0.001000,0.001000,0.001000,0.001000,0.001000
1025.192308,0.037902,0.001000,0.001000,0.001000,0.001000,0.001000
1025.211538,0.038845,0.001000,0.001000,0.001000,0.001000,0.001000
1025.230769,0.039755,0.001000,0.001000,0.001000,0.001000,0.001000
1025.250000,0.040630,0.001000,0.001000,0.001000,0.001000,0.001000
1025.269231,0.041470,0.001000,0.001000,0.001000,0.001000,0.001000
1025.288462,0.042274,0.001000,0.001000,0.001000,0.001000,0.001000
1025.307692,0.043042,0.001000,0.001000,0.001000,0.001000,0.001000
1025.326923,0.043772,0.001000,0.001000,0.001000,0.001000,0.001000
1025.346154,0.044464,0.001000,0.001000,0.001000,0.001000,0.001000
1025.365385,0.045118,0.001000,0.001000,0.001000,0.001000,0.001000
1025.384615,0.045733,0.001000,0.001000,0.001000,0.001000,0.001000
1025.403846,0.046308,0.001000,0.001000,0.001000,0.001000,0.001000
1025.423077,0.046843,0.001000,0.001000,0.001000,0.001000,0.001000
1025.442308,0.047337,0.001000,0.001000,0.001000,0.001000,0.001000
1025.461538,0.047790,0.001000,0.001000,0.001000,0.001000,0.001000
1025.480769,0.048202,0.001000,0.001000,0.001000,0.001000,0.001000
1025.500000,0.048572,0.001000,0.001000,0.001000,0.001000,0.001000
1025.519231,0.048901,0.001000,0.001000,0.001000,0.001000,0.001000
1025.538462,0.049186,0.001000,0.001000,0.001000,0.001000,0.001000
1025.557692,0.049429,0.001000,0.001000,0.001000,0.001000,0.001000
1025.576923,0.049630,0.001000,0.001000,0.001000,0.001000,0.001000
1025.596154,0.049787,0.001000,0.001000,0.001000,0.001000,0.001000
1025.615385,0.049901,0.001000,0.001000,0.001000,0.001000,0.001000
1025.634615,0.049972,0.001000,0.001000,0.001000,0.001000,0.001000
1025.653846,0.050000,0.001000,0.001000,0.001000,0.001000,0.001000
1025.673077,0.049984,0.001000,0.001000,0.001000,0.001000,0.001000
1025.692308,0.049925,0.001000,0.001000,0.001000,0.001000,0.001000
1025.711538,0.049823,0.001000,0.001000,0.001000,0.001000,0.001000
1025.730769,0.049677,0.001000,0.001000,0.001000,0.001000,0.001000
1025.750000,0.049489,0.001000,0.001000,0.001000,0.001000,0.001000
1025.769231,0.049258,0.001000,0.001000,0.001000,0.001000,0.001000
1025.788462,0.048984,0.001000,0.001000,0.001000,0.001000,0.001000
1025.807692,0.048667,0.001000,0.001000,0.001000,0.001000,0.001000
1025.826923,0.048308,0.001000,0.001000,0.001000,0.001000,0.001000
1025.846154,0.047908,0.001000,0.001000,0.001000,0.001000,0.001000
1025.865385,0.047466,0.001000,0.001000,0.001000,0.001000,0.001000
1025.884615,0.046983,0.001000,0.001000,0.001000,0.001000,0.001000
1025.903846,0.046459,0.001000,0.001000,0.001000,0.001000,0.001000
1025.923077,0.045895,0.001000,0.001000,0.001000,0.001000,0.001000
1025.942308,0.045291,0.001000,0.001000,0.001000,0.001000,0.001000
1025.961538,0.044648,0.001000,0.001000,0.001000,0.001000,0.001000
1025.980769,0.043967,0.001000,0.001000,0.001000,0.001000,0.001000
1026.000000,0.043247,0.001000,0.001000,0.001000,0.001000,0.001000
1026.019231,0.042490,0.001000,0.001000,0.001000,0.001000,0.001000
1026.038462,0.041696,0.001000,0.001000,0.001000,0.001000,0.001000
1026.057692,0.040865,0.001000,0.001000,0.001000,0.001000,0.001000
1026.076923,0.040000,0.001000,0.001000,0.001000,0.001000,0.001000
1026.096154,0.039100,0.001000,0.001000,0.001000,0.001000,0.001000
1026.115385,0.038166,0.001000,0.001000,0.001000,0.001000,0.001000
1026.134615,0.037198,0.001000,0.001000,0.001000,0.001000,0.001000
1026.153846,0.036199,0.001000,0.001000,0.001000,0.001000,0.001000
1026.173077,0.035168,0.001000,0.001000,0.001000,0.001000,0.001000
1026.192308,0.034107,0.001000,0.001000,0.001000,0.001000,0.001000
1026.211538,0.033016,0.001000,0.001000,0.001000,0.001000,0.001000
1026.230769,0.031897,0.001000,0.001000,0.001000,0.001000,0.001000
1026.250000,0.030750,0.001000,0.001000,0.001000,0.001000,0.001000
1026.269231,0.029576,0.001000,0.001000,0.001000,0.001000,0.001000
1026.288462,0.028377,0.001000,0.001000,0.001000,0.001000,0.001000
1026.307692,0.027153,0.001000,0.001000,0.001000,0.001000,0.001000
1026.326923,0.025906,0.001000,0.001000,0.001000,0.001000,0.001000
1026.346154,0.024636,0.001000,0.001000,0.001000,0.001000,0.001000
1026.365385,0.023345,0.001000,0.001000,0.001000,0.001000,0.001000
1026.384615,0.022033,0.001000,0.001000,0.001000,0.001000,0.001000
1026.403846,0.020703,0.001000,0.001000,0.001000,0.001000,0.001000
1026.423077,0.019354,0.001000,0.001000,0.001000,0.001000,0.001000
1026.442308,0.017989,0.001000,0.001000,0.001000,0.001000,0.001000
1026.461538,0.016608,0.001000,0.001000,0.001000,0.001000,0.001000
1026.480769,0.015213,0.001000,0.001000,0.001000,0.001000,0.001000
1026.500000,0.013805,0.001000,0.001000,0.001000,0.001000,0.001000
1026.519231,0.012384,0.001000,0.001000,0.001000,0.001000,0.001000
1026.538462,0.010953,0.001000,0.001000,0.001000,0.001000,0.001000
1026.557692,0.009513,0.001000,0.001000,0.001000,0.001000,0.001000
1026.576923,0.008064,0.001000,0.001000,0.001000,0.001000,0.001000
1026.596154,0.006608,0.001000,0.001000,0.001000,0.001000,0.001000
1026.615385,0.005147,0.001000,0.001000,0.001000,0.001000,0.001000
1026.634615,0.003681,0.001000,0.001000,0.001000,0.001000,0.001000
1026.653846,0.002212,0.001000,0.001000,0.001000,0.001000,0.001000
1026.673077,0.000741,0.001000,0.001000,0.001000,0.001000,0.001000
1026.692308,-0.000731,0.001000,0.001000,0.001000,0.001000,0.001000
1026.711538,-0.002202,0.001000,0.001000,0.001000,0.001000,0.001000
1026.730769,-0.003671,0.001000,0.001000,0.001000,0.001000,0.001000
1026.750000,-0.005137,0.001000,0.001000,0.001000,0.001000,0.001000
1026.769231,-0.006599,0.001000,0.001000,0.001000,0.001000,0.001000
1026.788462,-0.008054,0.001000,0.001000,0.001000,0.001000,0.001000
1026.807692,-0.009503,0.001000,0.001000,0.001000,0.001000,0.001000
1026.826923,-0.010944,0.001000,0.001000,0.001000,0.001000,0.001000
1026.846154,-0.012375,0.001000,0.001000,0.001000,0.001000,0.001000
1026.865385,-0.013795,0.001000,0.001000,0.001000,0.001000,0.001000
1026.884615,-0.015204,0.001000,0.001000,0.001000,0.001000,0.001000
1026.903846,-0.016599,0.001000,0.001000,0.001000,0.001000,0.001000
1026.923077,-0.017980,0.001000,0.001000,0.001000,0.001000,0.001000
1026.942308,-0.019345,0.001000,0.001000,0.001000,0.001000,0.001000
1026.961538,-0.020694,0.001000,0.001000,0.001000,0.001000,0.001000
1026.980769,-0.022024,0.001000,0.001000,0.001000,0.001000,0.001000
1027.000000,-0.023336,0.001000,0.001000,0.001000,0.001000,0.001000
1027.019231,-0.024627,0.001000,0.001000,0.001000,0.001000,0.001000
1027.038462,-0.025897,0.001000,0.001000,0.001000,0.001000,0.001000
1027.057692,-0.027145,0.001000,0.001000,0.001000,0.001000,0.001000
1027.076923,-0.028369,0.001000,0.001000,0.001000,0.001000,0.001000
1027.096154,-0.029568,0.001000,0.001000,0.001000,0.001000,0.001000
1027.115385,-0.030742,0.001000,0.001000,0.001000,0.001000,0.001000
1027.134615,-0.031889,0.001000,0.001000,0.001000,0.001000,0.001000
1027.153846,-0.033009,0.001000,0.001000,0.001000,0.001000,0.001000
1027.173077,-0.034100,0.001000,0.001000,0.001000,0.001000,0.001000
1027.192308,-0.035161,0.001000,0.001000,0.001000,0.001000,0.001000
1027.211538,-0.036192,0.001000,0.001000,0.001000,0.001000,0.001000
1027.230769,-0.037192,0.001000,0.001000,0.001000,0.001000,0.001000
1027.250000,-0.038159,0.001000,0.001000,0.001000,0.001000,0.001000
1027.269231,-0.039093,0.001000,0.001000,0.001000,0.001000,0.001000
1027.288462,-0.039994,0.001000,0.001000,0.001000,0.001000,0.001000
1027.307692,-0.040860,0.001000,0.001000,0.001000,0.001000,0.001000
1027.326923,-0.041690,0.001000,0.001000,0.001000,0.001000,0.001000
1027.346154,-0.042485,0.001000,0.001000,0.001000,0.001000,0.001000
1027.365385,-0.043242,0.001000,0.001000,0.001000,0.001000,0.001000
1027.384615,-0.043962,0.001000,0.001000,0.001000,0.001000,0.001000
1027.403846,-0.044644,0.001000,0.001000,0.001000,0.001000,0.001000
1027.423077,-0.045287,0.001000,0.001000,0.001000,0.001000,0.001000
1027.442308,-0.045891,0.001000,0.001000,0.001000,0.001000,0.001000
1027.461538,-0.046456,0.001000,0.001000,0.001000,0.001000,0.001000
1027.480769,-0.046980,0.001000,0.001000,0.001000,0.001000,0.001000
1027.500000,-0.047463,0.001000,0.001000,0.001000,0.001000,0.001000
1027.519231,-0.047905,0.001000,0.001000,0.001000,0.001000,0.001000
1027.538462,-0.048306,0.001000,0.001000,0.001000,0.001000,0.001000
1027.557692,-0.048665,0.001000,0.001000,0.001000,0.001000,0.001000
1027.576923,-0.048982,0.001000,0.001000,0.001000,0.001000,0.001000
1027.596154,-0.049256,0.001000,0.001000,0.001000,0.001000,0.001000
1027.615385,-0.049487,0.001000,0.001000,0.001000,0.001000,0.001000
1027.634615,-0.049676,0.001000,0.001000,0.001000,0.001000,0.001000
1027.653846,-0.049822,0.001000,0.001000,0.001000,0.001000,0.001000
1027.673077,-0.049924,0.001000,0.001000,0.001000,0.001000,0.001000
1027.692308,-0.049984,0.001000,0.001000,0.001000,0.001000,0.001000
1027.711538,-0.050000,0.001000,0.001000,0.001000,0.001000,0.001000
1027.730769,-0.049972,0.001000,0.001000,0.001000,0.001000,0.001000
1027.750000,-0.049902,0.001000,0.001000,0.001000,0.001000,0.001000
1027.769231,-0.049788,0.001000,0.001000,0.001000,0.001000,0.001000
1027.788462,-0.049631,0.001000,0.001000,0.001000,0.001000,0.001000
1027.807692,-0.049431,0.001000,0.001000,0.001000,0.001000,0.001000
1027.826923,-0.049188,0.001000,0.001000,0.001000,0.001000,0.001000
1027.846154,-0.048903,0.001000,0.001000,0.001000,0.001000,0.001000
1027.865385,-0.048575,0.001000,0.001000,0.001000,0.001000,0.001000
1027.884615,-0.048205,0.001000,0.001000,0.001000,0.001000,0.001000
1027.903846,-0.047793,0.001000,0.001000,0.001000,0.001000,0.001000
1027.923077,-0.047340,0.001000,0.001000,0.001000,0.001000,0.001000
1027.942308,-0.046846,0.001000,0.001000,0.001000,0.001000,0.001000
1027.961538,-0.046312,0.001000,0.001000,0.001000,0.001000,0.001000
1027.980769,-0.045737,0.001000,0.001000,0.001000,0.001000,0.001000
1028.000000,-0.045122,0.001000,0.001000,0.001000,0.001000,0.001000
1028.019231,-0.044469,0.001000,0.001000,0.001000,0.001000,0.001000
1028.038462,-0.043777,0.001000,0.001000,0.001000,0.001000,0.001000
1028.057692,-0.043047,0.001000,0.001000,0.001000,0.001000,0.001000
1028.076923,-0.042280,0.001000,0.001000,0.001000,0.001000,0.001000
1028.096154,-0.041476,0.001000,0.001000,0.001000,0.001000,0.001000
1028.115385,-0.040636,0.001000,0.001000,0.001000,0.001000,0.001000
1028.134615,-0.039761,0.001000,0.001000,0.001000,0.001000,0.001000
1028.153846,-0.038852,0.001000,0.001000,0.001000,0.001000,0.001000
1028.173077,-0.037909,0.001000,0.001000,0.001000,0.001000,0.001000
1028.192308,-0.036933,0.001000,0.001000,0.001000,0.001000,0.001000
1028.211538,-0.035925,0.001000,0.001000,0.001000,0.001000,0.001000
1028.230769,-0.034886,0.001000,0.001000,0.001000,0.001000,0.001000
1028.250000,-0.033816,0.001000,0.001000,0.001000,0.001000,0.001000
1028.269231,-0.032718,0.001000,0.001000,0.001000,0.001000,0.001000
1028.288462,-0.031591,0.001000,0.001000,0.001000,0.001000,0.001000
1028.307692,-0.030437,0.001000,0.001000,0.001000,0.001000,0.001000
1028.326923,-0.029256,0.001000,0.001000,0.001000,0.001000,0.001000
1028.346154,-0.028050,0.001000,0.001000,0.001000,0.001000,0.001000
1028.365385,-0.026820,0.001000,0.001000,0.001000,0.001000,0.001000
1028.384615,-0.025566,0.001000,0.001000,0.001000,0.001000,0.001000
1028.403846,-0.024290,0.001000,0.001000,0.001000,0.001000,0.001000
1028.423077,-0.022994,0.001000,0.001000,0.001000,0.001000,0.001000
1028.442308,-0.021677,0.001000,0.001000,0.001000,0.001000,0.001000
1028.461538,-0.020342,0.001000,0.001000,0.001000,0.001000,0.001000
1028.480769,-0.018989,0.001000,0.001000,0.001000,0.001000,0.001000
1028.500000,-0.017619,0.001000,0.001000,0.001000,0.001000,0.001000
1028.519231,-0.016234,0.001000,0.001000,0.001000,0.001000,0.001000
1028.538462,-0.014836,0.001000,0.001000,0.001000,0.001000,0.001000
1028.557692,-0.013424,0.001000,0.001000,0.001000,0.001000,0.001000
1028.576923,-0.012001,0.001000,0.001000,0.001000,0.001000,0.001000
1028.596154,-0.010567,0.001000,0.001000,0.001000,0.001000,0.001000
1028.615385,-0.009124,0.001000,0.001000,0.001000,0.001000,0.001000
1028.634615,-0.007673,0.001000,0.001000,0.001000,0.001000,0.001000
1028.653846,-0.006216,0.001000,0.001000,0.001000,0.001000,0.001000
1028.673077,-0.004753,0.001000,0.001000,0.001000,0.001000,0.001000
1028.692308,-0.003286,0.001000,0.001000,0.001000,0.001000,0.001000
1028.711538,-0.001816,0.001000,0.001000,0.001000,0.001000,0.001000
1028.730769,-0.000345,0.001000,0.001000,0.001000,0.001000,0.001000
1028.750000,0.001127,0.001000,0.001000,0.001000,0.001000,0.001000
1028.769231,0.002597,0.001000,0.001000,0.001000,0.001000,0.001000
1028.788462,0.004066,0.001000,0.001000,0.001000,0.001000,0.001000
1028.807692,0.005531,0.001000,0.001000,0.001000,0.001000,0.001000
1028.826923,0.006991,0.001000,0.001000,0.001000,0.001000,0.001000
1028.846154,0.008445,0.001000,0.001000,0.001000,0.001000,0.001000
1028.865385,0.009891,0.001000,0.001000,0.001000,0.001000,0.001000
1028.884615,0.011330,0.001000,0.001000,0.001000,0.001000,0.001000
1028.903846,0.012758,0.001000,0.001000,0.001000,0.001000,0.001000
1028.923077,0.014175,0.001000,0.001000,0.001000,0.001000,0.001000
1028.942308,0.015580,0.001000,0.001000,0.001000,0.001000,0.001000
1028.961538,0.016972,0.001000,0.001000,0.001000,0.001000,0.001000
1028.980769,0.018349,0.001000,0.001000,0.001000,0.001000,0.001000
1029.000000,0.019709,0.001000,0.001000,0.001000,0.001000,0.001000
1029.019231,0.021053,0.001000,0.001000,0.001000,0.001000,0.001000
1029.038462,0.022379,0.001000,0.001000,0.001000,0.001000,0.001000
1029.057692,0.023685,0.001000,0.001000,0.001000,0.001000,0.001000
1029.076923,0.024971,0.001000,0.001000,0.001000,0.001000,0.001000
1029.096154,0.026235,0.001000,0.001000,0.001000,0.001000,0.001000
1029.115385,0.027476,0.001000,0.001000,0.001000,0.001000,0.001000
1029.134615,0.028694,0.001000,0.001000,0.001000,0.001000,0.001000
1029.153846,0.029886,0.001000,0.001000,0.001000,0.001000,0.001000
1029.173077,0.031053,0.001000,0.001000,0.001000,0.001000,0.001000
1029.192308,0.032193,0.001000,0.001000,0.001000,0.001000,0.001000
1029.211538,0.033305,0.001000,0.001000,0.001000,0.001000,0.001000
1029.230769,0.034388,0.001000,0.001000,0.001000,0.001000,0.001000
1029.250000,0.035441,0.001000,0.001000,0.001000,0.001000,0.001000
1029.269231,0.036464,0.001000,0.001000,0.001000,0.001000,0.001000
1029.288462,0.037455,0.001000,0.001000,0.001000,0.001000,0.001000
1029.307692,0.038414,0.001000,0.001000,0.001000,0.001000,0.001000
1029.326923,0.039339,0.001000,0.001000,0.001000,0.001000,0.001000
1029.346154,0.040230,0.001000,0.001000,0.001000,0.001000,0.001000
1029.365385,0.041087,0.001000,0.001000,0.001000,0.001000,0.001000
1029.384615,0.041907,0.001000,0.001000,0.001000,0.001000,0.001000
1029.403846,0.042692,0.001000,0.001000,0.001000,0.001000,0.001000
1029.423077,0.043439,0.001000,0.001000,0.001000,0.001000,0.001000
1029.442308,0.044149,0.001000,0.001000,0.001000,0.001000,0.001000
1029.461538,0.044821,0.001000,0.001000,0.001000,0.001000,0.001000
1029.480769,0.045454,0.001000,0.001000,0.001000,0.001000,0.001000
1029.500000,0.046047,0.001000,0.001000,0.001000,0.001000,0.001000
1029.519231,0.046601,0.001000,0.001000,0.001000,0.001000,0.001000
1029.538462,0.047114,0.001000,0.001000,0.001000,0.001000,0.001000
1029.557692,0.047586,0.001000,0.001000,0.001000,0.001000,0.001000
1029.576923,0.048017,0.001000,0.001000,0.001000,0.001000,0.001000
1029.596154,0.048407,0.001000,0.001000,0.001000,0.001000,0.001000
1029.615385,0.048754,0.001000,0.001000,0.001000,0.001000,0.001000
1029.634615,0.049059,0.001000,0.001000,0.001000,0.001000,0.001000
1029.653846,0.049322,0.001000,0.001000,0.001000,0.001000,0.001000
1029.673077,0.049542,0.001000,0.001000,0.001000,0.001000,0.001000
1029.692308,0.049720,0.001000,0.001000,0.001000,0.001000,0.001000
1029.711538,0.049854,0.001000,0.001000,0.001000,0.001000,0.001000
1029.730769,0.049945,0.001000,0.001000,0.001000,0.001000,0.001000
1029.750000,0.049992,0.001000,0.001000,0.001000,0.001000,0.001000
1029.769231,0.049997,0.001000,0.001000,0.001000,0.001000,0.001000
1029.788462,0.049958,0.001000,0.001000,0.001000,0.001000,0.001000
1029.807692,0.049875,0.001000,0.001000,0.001000,0.001000,0.001000
1029.826923,0.049750,0.001000,0.001000,0.001000,0.001000,0.001000
1029.846154,0.049581,0.001000,0.001000,0.001000,0.001000,0.001000
1029.865385,0.049370,0.001000,0.001000,0.001000,0.001000,0.001000
1029.884615,0.049115,0.001000,0.001000,0.001000,0.001000,0.001000
1029.903846,0.048819,0.001000,0.001000,0.001000,0.001000,0.001000
1029.923077,0.048479,0.001000,0.001000,0.001000,0.001000,0.001000
1029.942308,0.048098,0.001000,0.001000,0.001000,0.001000,0.001000
1029.961538,0.047675,0.001000,0.001000,0.001000,0.001000,0.001000
1029.980769,0.047211,0.001000,0.001000,0.001000,0.001000,0.001000
1030.000000,0.000000,0.001000,0.001000,0.001000,0.001000,0.001000
1030.019231,0.001450,0.001000,0.001000,0.001000,0.001000,0.001000
1030.038462,0.002898,0.001000,0.001000,0.001000,0.001000,0.001000
1030.057692,0.004344,0.001000,0.001000,0.001000,0.001000,0.001000
1030.076923,0.005786,0.001000,0.001000,0.001000,0.001000,0.001000
1030.096154,0.007223,0.001000,0.001000,0.001000,0.001000,0.001000
1030.115385,0.008655,0.001000,0.001000,0.001000,0.001000,0.001000
1030.134615,0.010079,0.001000,0.001000,0.001000,0.001000,0.001000
1030.153846,0.011494,0.001000,0.001000,0.001000,0.001000,0.001000
1030.173077,0.012900,0.001000,0.001000,0.001000,0.001000,0.001000
1030.192308,0.014295,0.001000,0.001000,0.001000,0.001000,0.001000
1030.211538,0.015678,0.001000,0.001000,0.001000,0.001000,0.001000
1030.230769,0.017048,0.001000,0.001000,0.001000,0.001000,0.001000
1030.250000,0.018403,0.001000,0.001000,0.001000,0.001000,0.001000
1030.269231,0.019743,0.001000,0.001000,0.001000,0.001000,0.001000
1030.288462,0.021067,0.001000,0.001000,0.001000,0.001000,0.001000
1030.307692,0.022373,0.001000,0.001000,0.001000,0.001000,0.001000
1030.326923,0.023659,0.001000,0.001000,0.001000,0.001000,0.001000
1030.346154,0.024926,0.001000,0.001000,0.001000,0.001000,0.001000
1030.365385,0.026173,0.001000,0.001000,0.001000,0.001000,0.001000
1030.384615,0.027397,0.001000,0.001000,0.001000,0.001000,0.001000
1030.403846,0.028598,0.001000,0.001000,0.001000,0.001000,0.001000
1030.423077,0.029775,0.001000,0.001000,0.001000,0.001000,0.001000
1030.442308,0.030927,0.001000,0.001000,0.001000,0.001000,0.001000
1030.461538,0.032053,0.001000,0.001000,0.001000,0.001000,0.001000
1030.480769,0.033152,0.001000,0.001000,0.001000,0.001000,0.001000
1030.500000,0.034223,0.001000,0.001000,0.001000,0.001000,0.001000
1030.519231,0.035265,0.001000,0.001000,0.001000,0.001000,0.001000
1030.538462,0.036278,0.001000,0.001000,0.001000,0.001000,0.001000
1030.557692,0.037260,0.001000,0.001000,0.001000,0.001000,0.001000
1030.576923,0.038211,0.001000,0.001000,0.001000,0.001000,0.001000
1030.596154,0.039130,0.001000,0.001000,0.001000,0.001000,0.001000
1030.615385,0.040016,0.001000,0.001000,0.001000,0.001000,0.001000
1030.634615,0.040868,0.001000,0.001000,0.001000,0.001000,0.001000
1030.653846,0.041686,0.001000,0.001000,0.001000,0.001000,0.001000
1030.673077,0.042469,0.001000,0.001000,0.001000,0.001000,0.001000
1030.692308,0.043216,0.001000,0.001000,0.001000,0.001000,0.001000
1030.711538,0.043927,0.001000,0.001000,0.001000,0.001000,0.001000
1030.730769,0.044601,0.001000,0.001000,0.001000,0.001000,0.001000
1030.750000,0.045237,0.001000,0.001000,0.001000,0.001000,0.001000
1030.769231,0.045836,0.001000,0.001000,0.001000,0.001000,0.001000
1030.788462,0.046396,0.001000,0.001000,0.001000,0.001000,0.001000
1030.807692,0.046917,0.001000,0.001000,0.001000,0.001000,0.001000
1030.826923,0.047398,0.001000,0.001000,0.001000,0.001000,0.001000
1030.846154,0.047840,0.001000,0.001000,0.001000,0.001000,0.001000
1030.865385,0.048241,0.001000,0.001000,0.001000,0.001000,0.001000
1030.884615,0.048602,0.001000,0.001000,0.001000,0.001000,0.001000
1030.903846,0.048922,0.001000,0.001000,0.001000,0.001000,0.001000
1030.923077,0.049201,0.001000,0.001000,0.001000,0.001000,0.001000
1030.942308,0.049438,0.001000,0.001000,0.001000,0.001000,0.001000
1030.961538,0.049634,0.001000,0.001000,0.001000,0.001000,0.001000
1030.980769,0.049788,0.001000,0.001000,0.001000,0.001000,0.001000
1031.000000,0.049901,0.001000,0.001000,0.001000,0.001000,0.001000
1031.019231,0.049971,0.001000,0.001000,0.001000,0.001000,0.001000
1031.038462,0.049999,0.001000,0.001000,0.001000,0.001000,0.001000
1031.057692,0.049986,0.001000,0.001000,0.001000,0.001000,0.001000
1031.076923,0.049930,0.001000,0.001000,0.001000,0.001000,0.001000
1031.096154,0.049832,0.001000,0.001000,0.001000,0.001000,0.001000
1031.115385,0.049693,0.001000,0.001000,0.001000,0.001000,0.001000
1031.134615,0.049512,0.001000,0.001000,0.001000,0.001000,0.001000
1031.153846,0.049289,0.001000,0.001000,0.001000,0.001000,0.001000
1031.173077,0.049024,0.001000,0.001000,0.001000,0.001000,0.001000
1031.192308,0.048719,0.001000,0.001000,0.001000,0.001000,0.001000
1031.211538,0.048372,0.001000,0.001000,0.001000,0.001000,0.001000
1031.230769,0.047985,0.001000,0.001000,0.001000,0.001000,0.001000
1031.250000,0.047558,0.001000,0.001000,0.001000,0.001000,0.001000
1031.269231,0.047090,0.001000,0.001000,0.001000,0.001000,0.001000
1031.288462,0.046583,0.001000,0.001000,0.001000,0.001000,0.001000
1031.307692,0.046037,0.001000,0.001000,0.001000,0.001000,0.001000
1031.326923,0.045452,0.001000,0.001000,0.001000,0.001000,0.001000
1031.346154,0.044829,0.001000,0.001000,0.001000,0.001000,0.001000
1031.365385,0.044168,0.001000,0.001000,0.001000,0.001000,0.001000
1031.384615,0.043470,0.001000,0.001000,0.001000,0.001000,0.001000
1031.403846,0.042736,0.001000,0.001000,0.001000,0.001000,0.001000
1031.423077,0.041965,0.001000,0.001000,0.001000,0.001000,0.001000
1031.442308,0.041159,0.001000,0.001000,0.001000,0.001000,0.001000
1031.461538,0.040319,0.001000,0.001000,0.001000,0.001000,0.001000
1031.480769,0.039445,0.001000,0.001000,0.001000,0.001000,0.001000
1031.500000,0.038538,0.001000,0.001000,0.001000,0.001000,0.001000
1031.519231,0.037598,0.001000,0.001000,0.001000,0.001000,0.001000
1031.538462,0.036627,0.001000,0.001000,0.001000,0.001000,0.001000
1031.557692,0.035624,0.001000,0.001000,0.001000,0.001000,0.001000
1031.576923,0.034592,0.001000,0.001000,0.001000,0.001000,0.001000
1031.596154,0.033531,0.001000,0.001000,0.001000,0.001000,0.001000
1031.615385,0.032442,0.001000,0.001000,0.001000,0.001000,0.001000
1031.634615,0.031325,0.001000,0.001000,0.001000,0.001000,0.001000
1031.653846,0.030182,0.001000,0.001000,0.001000,0.001000,0.001000
1031.673077,0.029014,0.001000,0.001000,0.001000,0.001000,0.001000
1031.692308,0.027821,0.001000,0.001000,0.001000,0.001000,0.001000
1031.711538,0.026605,0.001000,0.001000,0.001000,0.001000,0.001000
1031.730769,0.025367,0.001000,0.001000,0.001000,0.001000,0.001000
1031.750000,0.024107,0.001000,0.001000,0.001000,0.001000,0.001000
1031.769231,0.022827,0.001000,0.001000,0.001000,0.001000,0.001000
1031.788462,0.021528,0.001000,0.001000,0.001000,0.001000,0.001000
1031.807692,0.020210,0.001000,0.001000,0.001000,0.001000,0.001000
1031.826923,0.018876,0.001000,0.001000,0.001000,0.001000,0.001000
1031.846154,0.017526,0.001000,0.001000,0.001000,0.001000,0.001000
1031.865385,0.016161,0.001000,0.001000,0.001000,0.001000,0.001000
1031.884615,0.014782,0.001000,0.001000,0.001000,0.001000,0.001000
1031.903846,0.013391,0.001000,0.001000,0.001000,0.001000,0.001000
1031.923077,0.011989,0.001000,0.001000,0.001000,0.001000,0.001000
1031.942308,0.010577,0.001000,0.001000,0.001000,0.001000,0.001000
1031.961538,0.009156,0.001000,0.001000,0.001000,0.001000,0.001000
1031.980769,0.007727,0.001000,0.001000,0.001000,0.001000,0.001000
1032.000000,0.006291,0.001000,0.001000,0.001000,0.001000,0.001000
1032.019231,0.004851,0.001000,0.001000,0.001000,0.001000,0.001000
1032.038462,0.003406,0.001000,0.001000,0.001000,0.001000,0.001000
1032.057692,0.001959,0.001000,0.001000,0.001000,0.001000,0.001000
1032.076923,0.000509,0.001000,0.001000,0.001000,0.001000,0.001000
1032.096154,-0.000940,0.001000,0.001000,0.001000,0.001000,0.001000
1032.115385,-0.002389,0.001000,0.001000,0.001000,0.001000,0.001000
1032.134615,-0.003836,0.001000,0.001000,0.001000,0.001000,0.001000
1032.153846,-0.005280,0.001000,0.001000,0.001000,0.001000,0.001000
1032.173077,-0.006719,0.001000,0.001000,0.001000,0.001000,0.001000
1032.192308,-0.008152,0.001000,0.001000,0.001000,0.001000,0.001000
1032.211538,-0.009579,0.001000,0.001000,0.001000,0.001000,0.001000
1032.230769,-0.010998,0.001000,0.001000,0.001000,0.001000,0.001000
1032.250000,-0.012407,0.001000,0.001000,0.001000,0.001000,0.001000
1032.269231,-0.013806,0.001000,0.001000,0.001000,0.001000,0.001000
1032.288462,-0.015194,0.001000,0.001000,0.001000,0.001000,0.001000
1032.307692,-0.016568,0.001000,0.001000,0.001000,0.001000,0.001000
1032.326923,-0.017929,0.001000,0.001000,0.001000,0.001000,0.001000
1032.346154,-0.019274,0.001000,0.001000,0.001000,0.001000,0.001000
1032.365385,-0.020604,0.001000,0.001000,0.001000,0.001000,0.001000
1032.384615,-0.021916,0.001000,0.001000,0.001000,0.001000,0.001000
1032.403846,-0.023210,0.001000,0.001000,0.001000,0.001000,0.001000
1032.423077,-0.024484,0.001000,0.001000,0.001000,0.001000,0.001000
1032.442308,-0.025737,0.001000,0.001000,0.001000,0.001000,0.001000
1032.461538,-0.026969,0.001000,0.001000,0.001000,0.001000,0.001000
1032.480769,-0.028178,0.001000,0.001000,0.001000,0.001000,0.001000
1032.500000,-0.029364,0.001000,0.001000,0.001000,0.001000,0.001000
1032.519231,-0.030525,0.001000,0.001000,0.001000,0.001000,0.001000
1032.538462,-0.031660,0.001000,0.001000,0.001000,0.001000,0.001000
1032.557692,-0.032769,0.001000,0.001000,0.001000,0.001000,0.001000
1032.576923,-0.033850,0.001000,0.001000,0.001000,0.001000,0.001000
1032.596154,-0.034902,0.001000,0.001000,0.001000,0.001000,0.001000
1032.615385,-0.035926,0.001000,0.001000,0.001000,0.001000,0.001000
1032.634615,-0.036919,0.001000,0.001000,0.001000,0.001000,0.001000
1032.653846,-0.037881,0.001000,0.001000,0.001000,0.001000,0.001000
1032.673077,-0.038811,0.001000,0.001000,0.001000,0.001000,0.001000
1032.692308,-0.039708,0.001000,0.001000,0.001000,0.001000,0.001000
1032.711538,-0.040573,0.001000,0.001000,0.001000,0.001000,0.001000
1032.730769,-0.041403,0.001000,0.001000,0.001000,0.001000,0.001000
1032.750000,-0.042198,0.001000,0.001000,0.001000,0.001000,0.001000
1032.769231,-0.042958,0.001000,0.001000,0.001000,0.001000,0.001000
1032.788462,-0.043681,0.001000,0.001000,0.001000,0.001000,0.001000
1032.807692,-0.044368,0.001000,0.001000,0.001000,0.001000,0.001000
1032.826923,-0.045018,0.001000,0.001000,0.001000,0.001000,0.001000
1032.846154,-0.045630,0.001000,0.001000,0.001000,0.001000,0.001000
1032.865385,-0.046203,0.001000,0.001000,0.001000,0.001000,0.001000
1032.884615,-0.046738,0.001000,0.001000,0.001000,0.001000,0.001000
1032.903846,-0.047233,0.001000,0.001000,0.001000,0.001000,0.001000
1032.923077,-0.047689,0.001000,0.001000,0.001000,0.001000,0.001000
1032.942308,-0.048105,0.001000,0.001000,0.001000,0.001000,0.001000
1032.961538,-0.048480,0.001000,0.001000,0.001000,0.001000,0.001000
1032.980769,-0.048814,0.001000,0.001000,0.001000,0.001000,0.001000
1033.000000,-0.049107,0.001000,0.001000,0.001000,0.001000,0.001000
1033.019231,-0.049359,0.001000,0.001000,0.001000,0.001000,0.001000
1033.038462,-0.049570,0.001000,0.001000,0.001000,0.001000,0.001000
1033.057692,-0.049739,0.001000,0.001000,0.001000,0.001000,0.001000
1033.076923,-0.049866,0.001000,0.001000,0.001000,0.001000,0.001000
1033.096154,-0.049951,0.001000,0.001000,0.001000,0.001000,0.001000
1033.115385,-0.049994,0.001000,0.001000,0.001000,0.001000,0.001000
1033.134615,-0.049995,0.001000,0.001000,0.001000,0.001000,0.001000
1033.153846,-0.049954,0.001000,0.001000,0.001000,0.001000,0.001000
1033.173077,-0.049872,0.001000,0.001000,0.001000,0.001000,0.001000
1033.192308,-0.049747,0.001000,0.001000,0.001000,0.001000,0.001000
1033.211538,-0.049580,0.001000,0.001000,0.001000,0.001000,0.001000
1033.230769,-0.049372,0.001000,0.001000,0.001000,0.001000,0.001000
1033.250000,-0.049122,0.001000,0.001000,0.001000,0.001000,0.001000
1033.269231,-0.048831,0.001000,0.001000,0.001000,0.001000,0.001000
1033.288462,-0.048499,0.001000,0.001000,0.001000,0.001000,0.001000
1033.307692,-0.048126,0.001000,0.001000,0.001000,0.001000,0.001000
1033.326923,-0.047712,0.001000,0.001000,0.001000,0.001000,0.001000
1033.346154,-0.047259,0.001000,0.001000,0.001000,0.001000,0.001000
1033.365385,-0.046766,0.001000,0.001000,0.001000,0.001000,0.001000
1033.384615,-0.046233,0.001000,0.001000,0.001000,0.001000,0.001000
1033.403846,-0.045662,0.001000,0.001000,0.001000,0.001000,0.001000
1033.423077,-0.045052,0.001000,0.001000,0.001000,0.001000,0.001000
1033.442308,-0.044404,0.001000,0.001000,0.001000,0.001000,0.001000
1033.461538,-0.043719,0.001000,0.001000,0.001000,0.001000,0.001000
1033.480769,-0.042998,0.001000,0.001000,0.001000,0.001000,0.001000
1033.500000,-0.042240,0.001000,0.001000,0.001000,0.001000,0.001000
1033.519231,-0.041446,0.001000,0.001000,0.001000,0.001000,0.001000
1033.538462,-0.040618,0.001000,0.001000,0.001000,0.001000,0.001000
1033.557692,-0.039756,0.001000,0.001000,0.001000,0.001000,0.001000
1033.576923,-0.038860,0.001000,0.001000,0.001000,0.001000,0.001000
1033.596154,-0.037932,0.001000,0.001000,0.001000,0.001000,0.001000
1033.615385,-0.036971,0.001000,0.001000,0.001000,0.001000,0.001000
1033.634615,-0.035980,0.001000,0.001000,0.001000,0.001000,0.001000
1033.653846,-0.034958,0.001000,0.001000,0.001000,0.001000,0.001000
1033.673077,-0.033907,0.001000,0.001000,0.001000,0.001000,0.001000
1033.692308,-0.032828,0.001000,0.001000,0.001000,0.001000,0.001000
1033.711538,-0.031721,0.001000,0.001000,0.001000,0.001000,0.001000
1033.730769,-0.030587,0.001000,0.001000,0.001000,0.001000,0.001000
1033.750000,-0.029427,0.001000,0.001000,0.001000,0.001000,0.001000
1033.769231,-0.028243,0.001000,0.001000,0.001000,0.001000,0.001000
1033.788462,-0.027035,0.001000,0.001000,0.001000,0.001000,0.001000
1033.807692,-0.025804,0.001000,0.001000,0.001000,0.001000,0.001000
1033.826923,-0.024552,0.001000,0.001000,0.001000,0.001000,0.001000
1033.846154,-0.023279,0.001000,0.001000,0.001000,0.001000,0.001000
1033.865385,-0.021986,0.001000,0.001000,0.001000,0.001000,0.001000
1033.884615,-0.020675,0.001000,0.001000,0.001000,0.001000,0.001000
1033.903846,-0.019347,0.001000,0.001000,0.001000,0.001000,0.001000
1033.923077,-0.018002,0.001000,0.001000,0.001000,0.001000,0.001000
1033.942308,-0.016642,0.001000,0.001000,0.001000,0.001000,0.001000
1033.961538,-0.015268,0.001000,0.001000,0.001000,0.001000,0.001000
1033.980769,-0.013881,0.001000,0.001000,0.001000,0.001000,0.001000
1034.000000,-0.012483,0.001000,0.001000,0.001000,0.001000,0.001000
1034.019231,-0.011074,0.001000,0.001000,0.001000,0.001000,0.001000
1034.038462,-0.009656,0.001000,0.001000,0.001000,0.001000,0.001000
1034.057692,-0.008230,0.001000,0.001000,0.001000,0.001000,0.001000
1034.076923,-0.006796,0.001000,0.001000,0.001000,0.001000,0.001000
1034.096154,-0.005358,0.001000,0.001000,0.001000,0.001000,0.001000
1034.115385,-0.003914,0.001000,0.001000,0.001000,0.001000,0.001000
1034.134615,-0.002467,0.001000,0.001000,0.001000,0.001000,0.001000
1034.153846,-0.001019,0.001000,0.001000,0.001000,0.001000,0.001000
1034.173077,0.000431,0.001000,0.001000,0.001000,0.001000,0.001000
1034.192308,0.001880,0.001000,0.001000,0.001000,0.001000,0.001000
1034.211538,0.003328,0.001000,0.001000,0.001000,0.001000,0.001000
1034.230769,0.004773,0.001000,0.001000,0.001000,0.001000,0.001000
1034.250000,0.006214,0.001000,0.001000,0.001000,0.001000,0.001000
1034.269231,0.007650,0.001000,0.001000,0.001000,0.001000,0.001000
1034.288462,0.009079,0.001000,0.001000,0.001000,0.001000,0.001000
1034.307692,0.010500,0.001000,0.001000,0.001000,0.001000,0.001000
1034.326923,0.011913,0.001000,0.001000,0.001000,0.001000,0.001000
1034.346154,0.013316,0.001000,0.001000,0.001000,0.001000,0.001000
1034.365385,0.014708,0.001000,0.001000,0.001000,0.001000,0.001000
1034.384615,0.016087,0.001000,0.001000,0.001000,0.001000,0.001000
1034.403846,0.017452,0.001000,0.001000,0.001000,0.001000,0.001000
1034.423077,0.018803,0.001000,0.001000,0.001000,0.001000,0.001000
1034.442308,0.020139,0.001000,0.001000,0.001000,0.001000,0.001000
1034.461538,0.021457,0.001000,0.001000,0.001000,0.001000,0.001000
1034.480769,0.022757,0.001000,0.001000,0.001000,0.001000,0.001000
1034.500000,0.024038,0.001000,0.001000,0.001000,0.001000,0.001000
1034.519231,0.025299,0.001000,0.001000,0.001000,0.001000,0.001000
1034.538462,0.026539,0.001000,0.001000,0.001000,0.001000,0.001000
1034.557692,0.027756,0.001000,0.001000,0.001000,0.001000,0.001000
1034.576923,0.028950,0.001000,0.001000,0.001000,0.001000,0.001000
1034.596154,0.030120,0.001000,0.001000,0.001000,0.001000,0.001000
1034.615385,0.031264,0.001000,0.001000,0.001000,0.001000,0.001000
1034.634615,0.032382,0.001000,0.001000,0.001000,0.001000,0.001000
1034.653846,0.033473,0.001000,0.001000,0.001000,0.001000,0.001000
1034.673077,0.034536,0.001000,0.001000,0.001000,0.001000,0.001000
