timestamp,ax,ay,az,gx,gy,gz
1000.000000,0.000000,0.001000,0.001000,0.001000,0.001000,0.001000
1000.019231,0.001207,0.001000,0.001000,0.001000,0.001000,0.001000
1000.038462,0.002413,0.001000,0.001000,0.001000,0.001000,0.001000
1000.057692,0.003618,0.001000,0.001000,0.001000,0.001000,0.001000
1000.076923,0.004820,0.001000,0.001000,0.001000,0.001000,0.001000
1000.096154,0.006020,0.001000,0.001000,0.001000,0.001000,0.001000
1000.115385,0.007216,0.001000,0.001000,0.001000,0.001000,0.001000
1000.134615,0.008408,0.001000,0.001000,0.001000,0.001000,0.001000
1000.153846,0.009595,0.001000,0.001000,0.001000,0.001000,0.001000
1000.173077,0.010777,0.001000,0.001000,0.001000,0.001000,0.001000
1000.192308,0.011952,0.001000,0.001000,0.001000,0.001000,0.001000
1000.211538,0.013121,0.001000,0.001000,0.001000,0.001000,0.001000
1000.230769,0.014281,0.001000,0.001000,0.001000,0.001000,0.001000
1000.250000,0.015434,0.001000,0.001000,0.001000,0.001000,0.001000
1000.269231,0.016577,0.001000,0.001000,0.001000,0.001000,0.001000
1000.288462,0.017711,0.001000,0.001000,0.001000,0.001000,0.001000
1000.307692,0.018834,0.001000,0.001000,0.001000,0.001000,0.001000
1000.326923,0.019946,0.001000,0.001000,0.001000,0.001000,0.001000
1000.346154,0.021047,0.001000,0.001000,0.001000,0.001000,0.001000
1000.365385,0.022136,0.001000,0.001000,0.001000,0.001000,0.001000
1000.384615,0.023211,0.001000,0.001000,0.001000,0.001000,0.001000
1000.403846,0.024274,0.001000,0.001000,0.001000,0.001000,0.001000
1000.423077,0.025322,0.001000,0.001000,0.001000,0.001000,0.001000
1000.442308,0.026355,0.001000,0.001000,0.001000,0.001000,0.001000
1000.461538,0.027373,0.001000,0.001000,0.001000,0.001000,0.001000
1000.480769,0.028374,0.001000,0.001000,0.001000,0.001000,0.001000
1000.500000,0.029360,0.001000,0.001000,0.001000,0.001000,0.001000
1000.519231,0.030328,0.001000,0.001000,0.001000,0.001000,0.001000
1000.538462,0.031279,0.001000,0.001000,0.001000,0.001000,0.001000
1000.557692,0.032211,0.001000,0.001000,0.001000,0.001000,0.001000
1000.576923,0.033125,0.001000,0.001000,0.001000,0.001000,0.001000
1000.596154,0.034019,0.001000,0.001000,0.001000,0.001000,0.001000
1000.615385,0.034894,0.001000,0.001000,0.001000,0.001000,0.001000
1000.634615,0.035748,0.001000,0.001000,0.001000,0.001000,0.001000
1000.653846,0.036581,0.001000,0.001000,0.001000,0.001000,0.001000
1000.673077,0.037393,0.001000,0.001000,0.001000,0.001000,0.001000
1000.692308,0.038183,0.001000,0.001000,0.001000,0.001000,0.001000
1000.711538,0.038951,0.001000,0.001000,0.001000,0.001000,0.001000
1000.730769,0.039697,0.001000,0.001000,0.001000,0.001000,0.001000
1000.750000,0.040419,0.001000,0.001000,0.001000,0.001000,0.001000
1000.769231,0.041117,0.001000,0.001000,0.001000,0.001000,0.001000
1000.788462,0.041792,0.001000,0.001000,0.001000,0.001000,0.001000
1000.807692,0.042442,0.001000,0.001000,0.001000,0.001000,0.001000
1000.826923,0.043068,0.001000,0.001000,0.001000,0.001000,0.001000
1000.846154,0.043669,0.001000,0.001000,0.001000,0.001000,0.001000
1000.865385,0.044244,0.001000,0.001000,0.001000,0.001000,0.001000
1000.884615,0.044793,0.001000,0.001000,0.001000,0.001000,0.001000
1000.903846,0.045316,0.001000,0.001000,0.001000,0.001000,0.001000
1000.923077,0.045813,0.001000,0.001000,0.001000,0.001000,0.001000
1000.942308,0.046283,0.001000,0.001000,0.001000,0.001000,0.001000
1000.961538,0.046726,0.001000,0.001000,0.001000,0.001000,0.001000
1000.980769,0.047142,0.001000,0.001000,0.001000,0.001000,0.001000
1001.000000,0.047530,0.001000,0.001000,0.001000,0.001000,0.001000
1001.019231,0.047891,0.001000,0.001000,0.001000,0.001000,0.001000
1001.038462,0.048224,0.001000,0.001000,0.001000,0.001000,0.001000
1001.057692,0.048529,0.001000,0.001000,0.001000,0.001000,0.001000
1001.076923,0.048805,0.001000,0.001000,0.001000,0.001000,0.001000
1001.096154,0.049053,0.001000,0.001000,0.001000,0.001000,0.001000
1001.115385,0.049273,0.001000,0.001000,0.001000,0.001000,0.001000
1001.134615,0.049463,0.001000,0.001000,0.001000,0.001000,0.001000
1001.153846,0.049625,0.001000,0.001000,0.001000,0.001000,0.001000
1001.173077,0.049758,0.001000,0.001000,0.001000,0.001000,0.001000
1001.192308,0.049862,0.001000,0.001000,0.001000,0.001000,0.001000
1001.211538,0.049937,0.001000,0.001000,0.001000,0.001000,0.001000
1001.230769,0.049983,0.001000,0.001000,0.001000,0.001000,0.001000
1001.250000,0.050000,0.001000,0.001000,0.001000,0.001000,0.001000
1001.269231,0.049988,0.001000,0.001000,0.001000,0.001000,0.001000
1001.288462,0.049946,0.001000,0.001000,0.001000,0.001000,0.001000
1001.307692,0.049875,0.001000,0.001000,0.001000,0.001000,0.001000
1001.326923,0.049776,0.001000,0.001000,0.001000,0.001000,0.001000
1001.346154,0.049647,0.001000,0.001000,0.001000,0.001000,0.001000
1001.365385,0.049490,0.001000,0.001000,0.001000,0.001000,0.001000
1001.384615,0.049303,0.001000,0.001000,0.001000,0.001000,0.001000
1001.403846,0.049088,0.001000,0.001000,0.001000,0.001000,0.001000
1001.423077,0.048844,0.001000,0.001000,0.001000,0.001000,0.001000
1001.442308,0.048572,0.001000,0.001000,0.001000,0.001000,0.001000
1001.461538,0.048272,0.001000,0.001000,0.001000,0.001000,0.001000
1001.480769,0.047943,0.001000,0.001000,0.001000,0.001000,0.001000
1001.500000,0.047586,0.001000,0.001000,0.001000,0.001000,0.001000
1001.519231,0.047202,0.001000,0.001000,0.001000,0.001000,0.001000
1001.538462,0.046790,0.001000,0.001000,0.001000,0.001000,0.001000
1001.557692,0.046351,0.001000,0.001000,0.001000,0.001000,0.001000
1001.576923,0.045885,0.001000,0.001000,0.001000,0.001000,0.001000
1001.596154,0.045392,0.001000,0.001000,0.001000,0.001000,0.001000
1001.615385,0.044873,0.001000,0.001000,0.001000,0.001000,0.001000
1001.634615,0.044328,0.001000,0.001000,0.001000,0.001000,0.001000
1001.653846,0.043757,0.001000,0.001000,0.001000,0.001000,0.001000
1001.673077,0.043160,0.001000,0.001000,0.001000,0.001000,0.001000
1001.692308,0.042538,0.001000,0.001000,0.001000,0.001000,0.001000
1001.711538,0.041892,0.001000,0.001000,0.001000,0.001000,0.001000
1001.730769,0.041220,0.001000,0.001000,0.001000,0.001000,0.001000
1001.750000,0.040525,0.001000,0.001000,0.001000,0.001000,0.001000
1001.769231,0.039807,0.001000,0.001000,0.001000,0.001000,0.001000
1001.788462,0.039065,0.001000,0.001000,0.001000,0.001000,0.001000
1001.807692,0.038300,0.001000,0.001000,0.001000,0.001000,0.001000
1001.826923,0.037513,0.001000,0.001000,0.001000,0.001000,0.001000
1001.846154,0.036705,0.001000,0.001000,0.001000,0.001000,0.001000
1001.865385,0.035874,0.001000,0.001000,0.001000,0.001000,0.001000
1001.884615,0.035023,0.001000,0.001000,0.001000,0.001000,0.001000
1001.903846,0.034152,0.001000,0.001000,0.001000,0.001000,0.001000
1001.923077,0.033261,0.001000,0.001000,0.001000,0.001000,0.001000
1001.942308,0.032350,0.001000,0.001000,0.001000,0.001000,0.001000
1001.961538,0.031420,0.001000,0.001000,0.001000,0.001000,0.001000
1001.980769,0.030472,0.001000,0.001000,0.001000,0.001000,0.001000
1002.000000,0.029507,0.001000,0.001000,0.001000,0.001000,0.001000
1002.019231,0.028524,0.001000,0.001000,0.001000,0.001000,0.001000
1002.038462,0.027524,0.001000,0.001000,0.001000,0.001000,0.001000
1002.057692,0.026509,0.001000,0.001000,0.001000,0.001000,0.001000
1002.076923,0.025478,0.001000,0.001000,0.001000,0.001000,0.001000
1002.096154,0.024432,0.001000,0.001000,0.001000,0.001000,0.001000
1002.115385,0.023372,0.001000,0.001000,0.001000,0.001000,0.001000
1002.134615,0.022298,0.001000,0.001000,0.001000,0.001000,0.001000
1002.153846,0.021212,0.001000,0.001000,0.001000,0.001000,0.001000
1002.173077,0.020113,0.001000,0.001000,0.001000,0.001000,0.001000
1002.192308,0.019002,0.001000,0.001000,0.001000,0.001000,0.001000
1002.211538,0.017880,0.001000,0.001000,0.001000,0.001000,0.001000
1002.230769,0.016748,0.001000,0.001000,0.001000,0.001000,0.001000
1002.250000,0.015606,0.001000,0.001000,0.001000,0.001000,0.001000
1002.269231,0.014455,0.001000,0.001000,0.001000,0.001000,0.001000
1002.288462,0.013296,0.001000,0.001000,0.001000,0.001000,0.001000
1002.307692,0.012128,0.001000,0.001000,0.001000,0.001000,0.001000
1002.326923,0.010954,0.001000,0.001000,0.001000,0.001000,0.001000
1002.346154,0.009774,0.001000,0.001000,0.001000,0.001000,0.001000
1002.365385,0.008587,0.001000,0.001000,0.001000,0.001000,0.001000
1002.384615,0.007396,0.001000,0.001000,0.001000,0.001000,0.001000
1002.403846,0.006200,0.001000,0.001000,0.001000,0.001000,0.001000
1002.423077,0.005001,0.001000,0.001000,0.001000,0.001000,0.001000
1002.442308,0.003799,0.001000,0.001000,0.001000,0.001000,0.001000
1002.461538,0.002594,0.001000,0.001000,0.001000,0.001000,0.001000
1002.480769,0.001388,0.001000,0.001000,0.001000,0.001000,0.001000
1002.500000,0.000182,0.001000,0.001000,0.001000,0.001000,0.001000
1002.519231,-0.001025,0.001000,0.001000,0.001000,0.001000,0.001000
1002.538462,-0.002231,0.001000,0.001000,0.001000,0.001000,0.001000
1002.557692,-0.003436,0.001000,0.001000,0.001000,0.001000,0.001000
1002.576923,-0.004639,0.001000,0.001000,0.001000,0.001000,0.001000
1002.596154,-0.005840,0.001000,0.001000,0.001000,0.001000,0.001000
1002.615385,-0.007036,0.001000,0.001000,0.001000,0.001000,0.001000
1002.634615,-0.008229,0.001000,0.001000,0.001000,0.001000,0.001000
1002.653846,-0.009417,0.001000,0.001000,0.001000,0.001000,0.001000
1002.673077,-0.010600,0.001000,0.001000,0.001000,0.001000,0.001000
1002.692308,-0.011776,0.001000,0.001000,0.001000,0.001000,0.001000
1002.711538,-0.012945,0.001000,0.001000,0.001000,0.001000,0.001000
1002.730769,-0.014107,0.001000,0.001000,0.001000,0.001000,0.001000
1002.750000,-0.015261,0.001000,0.001000,0.001000,0.001000,0.001000
1002.769231,-0.016406,0.001000,0.001000,0.001000,0.001000,0.001000
1002.788462,-0.017541,0.001000,0.001000,0.001000,0.001000,0.001000
1002.807692,-0.018666,0.001000,0.001000,0.001000,0.001000,0.001000
1002.826923,-0.019780,0.001000,0.001000,0.001000,0.001000,0.001000
1002.846154,-0.020882,0.001000,0.001000,0.001000,0.001000,0.001000
1002.865385,-0.021973,0.001000,0.001000,0.001000,0.001000,0.001000
1002.884615,-0.023050,0.001000,0.001000,0.001000,0.001000,0.001000
1002.903846,-0.024115,0.001000,0.001000,0.001000,0.001000,0.001000
1002.923077,-0.025165,0.001000,0.001000,0.001000,0.001000,0.001000
1002.942308,-0.026200,0.001000,0.001000,0.001000,0.001000,0.001000
1002.961538,-0.027220,0.001000,0.001000,0.001000,0.001000,0.001000
1002.980769,-0.028225,0.001000,0.001000,0.001000,0.001000,0.001000
1003.000000,-0.029213,0.001000,0.001000,0.001000,0.001000,0.001000
1003.019231,-0.030184,0.001000,0.001000,0.001000,0.001000,0.001000
1003.038462,-0.031137,0.001000,0.001000,0.001000,0.001000,0.001000
1003.057692,-0.032072,0.001000,0.001000,0.001000,0.001000,0.001000
1003.076923,-0.032989,0.001000,0.001000,0.001000,0.001000,0.001000
1003.096154,-0.033886,0.001000,0.001000,0.001000,0.001000,0.001000
1003.115385,-0.034763,0.001000,0.001000,0.001000,0.001000,0.001000
1003.134615,-0.035621,0.001000,0.001000,0.001000,0.001000,0.001000
1003.153846,-0.036457,0.001000,0.001000,0.001000,0.001000,0.001000
1003.173077,-0.037272,0.001000,0.001000,0.001000,0.001000,0.001000
1003.192308,-0.038066,0.001000,0.001000,0.001000,0.001000,0.001000
1003.211538,-0.038837,0.001000,0.001000,0.001000,0.001000,0.001000
1003.230769,-0.039586,0.001000,0.001000,0.001000,0.001000,0.001000
1003.250000,-0.040312,0.001000,0.001000,0.001000,0.001000,0.001000
1003.269231,-0.041014,0.001000,0.001000,0.001000,0.001000,0.001000
1003.288462,-0.041692,0.001000,0.001000,0.001000,0.001000,0.001000
1003.307692,-0.042346,0.001000,0.001000,0.001000,0.001000,0.001000
1003.326923,-0.042975,0.001000,0.001000,0.001000,0.001000,0.001000
1003.346154,-0.043580,0.001000,0.001000,0.001000,0.001000,0.001000
1003.365385,-0.044159,0.001000,0.001000,0.001000,0.001000,0.001000
1003.384615,-0.044712,0.001000,0.001000,0.001000,0.001000,0.001000
1003.403846,-0.045239,0.001000,0.001000,0.001000,0.001000,0.001000
1003.423077,-0.045740,0.001000,0.001000,0.001000,0.001000,0.001000
1003.442308,-0.046214,0.001000,0.001000,0.001000,0.001000,0.001000
1003.461538,-0.046661,0.001000,0.001000,0.001000,0.001000,0.001000
1003.480769,-0.047081,0.001000,0.001000,0.001000,0.001000,0.001000
1003.500000,-0.047474,0.001000,0.001000,0.001000,0.001000,0.001000
1003.519231,-0.047839,0.001000,0.001000,0.001000,0.001000,0.001000
1003.538462,-0.048176,0.001000,0.001000,0.001000,0.001000,0.001000
1003.557692,-0.048485,0.001000,0.001000,0.001000,0.001000,0.001000
1003.576923,-0.048765,0.001000,0.001000,0.001000,0.001000,0.001000
1003.596154,-0.049018,0.001000,0.001000,0.001000,0.001000,0.001000
1003.615385,-0.049241,0.001000,0.001000,0.001000,0.001000,0.001000
1003.634615,-0.049436,0.001000,0.001000,0.001000,0.001000,0.001000
1003.653846,-0.049603,0.001000,0.001000,0.001000,0.001000,0.001000
1003.673077,-0.049740,0.001000,0.001000,0.001000,0.001000,0.001000
1003.692308,-0.049849,0.001000,0.001000,0.001000,0.001000,0.001000
1003.711538,-0.049928,0.001000,0.001000,0.001000,0.001000,0.001000
1003.730769,-0.049978,0.001000,0.001000,0.001000,0.001000,0.001000
1003.750000,-0.049999,0.001000,0.001000,0.001000,0.001000,0.001000
1003.769231,-0.049991,0.001000,0.001000,0.001000,0.001000,0.001000
1003.788462,-0.049954,0.001000,0.001000,0.001000,0.001000,0.001000
1003.807692,-0.049888,0.001000,0.001000,0.001000,0.001000,0.001000
1003.826923,-0.049793,0.001000,0.001000,0.001000,0.001000,0.001000
1003.846154,-0.049668,0.001000,0.001000,0.001000,0.001000,0.001000
1003.865385,-0.049515,0.001000,0.001000,0.001000,0.001000,0.001000
1003.884615,-0.049333,0.001000,0.001000,0.001000,0.001000,0.001000
1003.903846,-0.049122,0.001000,0.001000,0.001000,0.001000,0.001000
1003.923077,-0.048883,0.001000,0.001000,0.001000,0.001000,0.001000
1003.942308,-0.048615,0.001000,0.001000,0.001000,0.001000,0.001000
1003.961538,-0.048319,0.001000,0.001000,0.001000,0.001000,0.001000
1003.980769,-0.047994,0.001000,0.001000,0.001000,0.001000,0.001000
1004.000000,-0.047642,0.001000,0.001000,0.001000,0.001000,0.001000
1004.019231,-0.047262,0.001000,0.001000,0.001000,0.001000,0.001000
1004.038462,-0.046854,0.001000,0.001000,0.001000,0.001000,0.001000
1004.057692,-0.046419,0.001000,0.001000,0.001000,0.001000,0.001000
1004.076923,-0.045957,0.001000,0.001000,0.001000,0.001000,0.001000
1004.096154,-0.045468,0.001000,0.001000,0.001000,0.001000,0.001000
1004.115385,-0.044953,0.001000,0.001000,0.001000,0.001000,0.001000
1004.134615,-0.044412,0.001000,0.001000,0.001000,0.001000,0.001000
1004.153846,-0.043844,0.001000,0.001000,0.001000,0.001000,0.001000
1004.173077,-0.043251,0.001000,0.001000,0.001000,0.001000,0.001000
1004.192308,-0.042633,0.001000,0.001000,0.001000,0.001000,0.001000
1004.211538,-0.041990,0.001000,0.001000,0.001000,0.001000,0.001000
1004.230769,-0.041323,0.001000,0.001000,0.001000,0.001000,0.001000
1004.250000,-0.040632,0.001000,0.001000,0.001000,0.001000,0.001000
1004.269231,-0.039916,0.001000,0.001000,0.001000,0.001000,0.001000
1004.288462,-0.039178,0.001000,0.001000,0.001000,0.001000,0.001000
1004.307692,-0.038417,0.001000,0.001000,0.001000,0.001000,0.001000
1004.326923,-0.037633,0.001000,0.001000,0.001000,0.001000,0.001000
1004.346154,-0.036828,0.001000,0.001000,0.001000,0.001000,0.001000
1004.365385,-0.036001,0.001000,0.001000,0.001000,0.001000,0.001000
1004.384615,-0.035153,0.001000,0.001000,0.001000,0.001000,0.001000
1004.403846,-0.034284,0.001000,0.001000,0.001000,0.001000,0.001000
1004.423077,-0.033396,0.001000,0.001000,0.001000,0.001000,0.001000
1004.442308,-0.032488,0.001000,0.001000,0.001000,0.001000,0.001000
1004.461538,-0.031561,0.001000,0.001000,0.001000,0.001000,0.001000
1004.480769,-0.030616,0.001000,0.001000,0.001000,0.001000,0.001000
1004.500000,-0.029653,0.001000,0.001000,0.001000,0.001000,0.001000
1004.519231,-0.028673,0.001000,0.001000,0.001000,0.001000,0.001000
1004.538462,-0.027676,0.001000,0.001000,0.001000,0.001000,0.001000
1004.557692,-0.026663,0.001000,0.001000,0.001000,0.001000,0.001000
1004.576923,-0.025634,0.001000,0.001000,0.001000,0.001000,0.001000
1004.596154,-0.024590,0.001000,0.001000,0.001000,0.001000,0.001000
1004.615385,-0.023532,0.001000,0.001000,0.001000,0.001000,0.001000
1004.634615,-0.022461,0.001000,0.001000,0.001000,0.001000,0.001000
1004.653846,-0.021376,0.001000,0.001000,0.001000,0.001000,0.001000
1004.673077,-0.020279,0.001000,0.001000,0.001000,0.001000,0.001000
1004.692308,-0.019170,0.001000,0.001000,0.001000,0.001000,0.001000
1004.711538,-0.018050,0.001000,0.001000,0.001000,0.001000,0.001000
1004.730769,-0.016919,0.001000,0.001000,0.001000,0.001000,0.001000
1004.750000,-0.015779,0.001000,0.001000,0.001000,0.001000,0.001000
1004.769231,-0.014629,0.001000,0.001000,0.001000,0.001000,0.001000
1004.788462,-0.013471,0.001000,0.001000,0.001000,0.001000,0.001000
1004.807692,-0.012305,0.001000,0.001000,0.001000,0.001000,0.001000
1004.826923,-0.011131,0.001000,0.001000,0.001000,0.001000,0.001000
1004.846154,-0.009952,0.001000,0.001000,0.001000,0.001000,0.001000
1004.865385,-0.008766,0.001000,0.001000,0.001000,0.001000,0.001000
1004.884615,-0.007575,0.001000,0.001000,0.001000,0.001000,0.001000
1004.903846,-0.006380,0.001000,0.001000,0.001000,0.001000,0.001000
1004.923077,-0.005181,0.001000,0.001000,0.001000,0.001000,0.001000
1004.942308,-0.003980,0.001000,0.001000,0.001000,0.001000,0.001000
1004.961538,-0.002776,0.001000,0.001000,0.001000,0.001000,0.001000
1004.980769,-0.001570,0.001000,0.001000,0.001000,0.001000,0.001000
1005.000000,-0.000363,0.001000,0.001000,0.001000,0.001000,0.001000
1005.019231,0.000844,0.001000,0.001000,0.001000,0.001000,0.001000
1005.038462,0.002050,0.001000,0.001000,0.001000,0.001000,0.001000
1005.057692,0.003255,0.001000,0.001000,0.001000,0.001000,0.001000
1005.076923,0.004459,0.001000,0.001000,0.001000,0.001000,0.001000
1005.096154,0.005659,0.001000,0.001000,0.001000,0.001000,0.001000
1005.115385,0.006857,0.001000,0.001000,0.001000,0.001000,0.001000
1005.134615,0.008050,0.001000,0.001000,0.001000,0.001000,0.001000
1005.153846,0.009239,0.001000,0.001000,0.001000,0.001000,0.001000
1005.173077,0.010422,0.001000,0.001000,0.001000,0.001000,0.001000
1005.192308,0.011599,0.001000,0.001000,0.001000,0.001000,0.001000
1005.211538,0.012770,0.001000,0.001000,0.001000,0.001000,0.001000
1005.230769,0.013933,0.001000,0.001000,0.001000,0.001000,0.001000
1005.250000,0.015088,0.001000,0.001000,0.001000,0.001000,0.001000
1005.269231,0.016234,0.001000,0.001000,0.001000,0.001000,0.001000
1005.288462,0.017371,0.001000,0.001000,0.001000,0.001000,0.001000
1005.307692,0.018497,0.001000,0.001000,0.001000,0.001000,0.001000
1005.326923,0.019613,0.001000,0.001000,0.001000,0.001000,0.001000
1005.346154,0.020717,0.001000,0.001000,0.001000,0.001000,0.001000
1005.365385,0.021810,0.001000,0.001000,0.001000,0.001000,0.001000
1005.384615,0.022889,0.001000,0.001000,0.001000,0.001000,0.001000
1005.403846,0.023955,0.001000,0.001000,0.001000,0.001000,0.001000
1005.423077,0.025008,0.001000,0.001000,0.001000,0.001000,0.001000
1005.442308,0.026045,0.001000,0.001000,0.001000,0.001000,0.001000
1005.461538,0.027068,0.001000,0.001000,0.001000,0.001000,0.001000
1005.480769,0.028075,0.001000,0.001000,0.001000,0.001000,0.001000
1005.500000,0.029065,0.001000,0.001000,0.001000,0.001000,0.001000
1005.519231,0.030039,0.001000,0.001000,0.001000,0.001000,0.001000
1005.538462,0.030995,0.001000,0.001000,0.001000,0.001000,0.001000
1005.557692,0.031933,0.001000,0.001000,0.001000,0.001000,0.001000
1005.576923,0.032852,0.001000,0.001000,0.001000,0.001000,0.001000
1005.596154,0.033752,0.001000,0.001000,0.001000,0.001000,0.001000
1005.615385,0.034633,0.001000,0.001000,0.001000,0.001000,0.001000
1005.634615,0.035493,0.001000,0.001000,0.001000,0.001000,0.001000
1005.653846,0.036333,0.001000,0.001000,0.001000,0.001000,0.001000
1005.673077,0.037151,0.001000,0.001000,0.001000,0.001000,0.001000
1005.692308,0.037948,0.001000,0.001000,0.001000,0.001000,0.001000
1005.711538,0.038723,0.001000,0.001000,0.001000,0.001000,0.001000
1005.730769,0.039475,0.001000,0.001000,0.001000,0.001000,0.001000
1005.750000,0.040204,0.001000,0.001000,0.001000,0.001000,0.001000
1005.769231,0.040910,0.001000,0.001000,0.001000,0.001000,0.001000
1005.788462,0.041592,0.001000,0.001000,0.001000,0.001000,0.001000
1005.807692,0.042249,0.001000,0.001000,0.001000,0.001000,0.001000
1005.826923,0.042882,0.001000,0.001000,0.001000,0.001000,0.001000
1005.846154,0.043490,0.001000,0.001000,0.001000,0.001000,0.001000
1005.865385,0.044073,0.001000,0.001000,0.001000,0.001000,0.001000
1005.884615,0.044630,0.001000,0.001000,0.001000,0.001000,0.001000
1005.903846,0.045161,0.001000,0.001000,0.001000,0.001000,0.001000
1005.923077,0.045666,0.001000,0.001000,0.001000,0.001000,0.001000
1005.942308,0.046144,0.001000,0.001000,0.001000,0.001000,0.001000
1005.961538,0.046596,0.001000,0.001000,0.001000,0.001000,0.001000
1005.980769,0.047020,0.001000,0.001000,0.001000,0.001000,0.001000
1006.000000,0.047416,0.001000,0.001000,0.001000,0.001000,0.001000
1006.019231,0.047785,0.001000,0.001000,0.001000,0.001000,0.001000
1006.038462,0.048127,0.001000,0.001000,0.001000,0.001000,0.001000
1006.057692,0.048440,0.001000,0.001000,0.001000,0.001000,0.001000
1006.076923,0.048725,0.001000,0.001000,0.001000,0.001000,0.001000
1006.096154,0.048982,0.001000,0.001000,0.001000,0.001000,0.001000
1006.115385,0.049210,0.001000,0.001000,0.001000,0.001000,0.001000
1006.134615,0.049409,0.001000,0.001000,0.001000,0.001000,0.001000
1006.153846,0.049580,0.001000,0.001000,0.001000,0.001000,0.001000
1006.173077,0.049721,0.001000,0.001000,0.001000,0.001000,0.001000
1006.192308,0.049834,0.001000,0.001000,0.001000,0.001000,0.001000
1006.211538,0.049918,0.001000,0.001000,0.001000,0.001000,0.001000
1006.230769,0.049972,0.001000,0.001000,0.001000,0.001000,0.001000
1006.250000,0.049998,0.001000,0.001000,0.001000,0.001000,0.001000
1006.269231,0.049994,0.001000,0.001000,0.001000,0.001000,0.001000
1006.288462,0.049962,0.001000,0.001000,0.001000,0.001000,0.001000
1006.307692,0.049900,0.001000,0.001000,0.001000,0.001000,0.001000
1006.326923,0.049809,0.001000,0.001000,0.001000,0.001000,0.001000
1006.346154,0.049689,0.001000,0.001000,0.001000,0.001000,0.001000
1006.365385,0.049540,0.001000,0.001000,0.001000,0.001000,0.001000
1006.384615,0.049362,0.001000,0.001000,0.001000,0.001000,0.001000
1006.403846,0.049156,0.001000,0.001000,0.001000,0.001000,0.001000
1006.423077,0.048921,0.001000,0.001000,0.001000,0.001000,0.001000
1006.442308,0.048657,0.001000,0.001000,0.001000,0.001000,0.001000
1006.461538,0.048365,0.001000,0.001000,0.001000,0.001000,0.001000
1006.480769,0.048045,0.001000,0.001000,0.001000,0.001000,0.001000
1006.500000,0.047697,0.001000,0.001000,0.001000,0.001000,0.001000
1006.519231,0.047321,0.001000,0.001000,0.001000,0.001000,0.001000
1006.538462,0.046917,0.001000,0.001000,0.001000,0.001000,0.001000
1006.557692,0.046486,0.001000,0.001000,0.001000,0.001000,0.001000
1006.576923,0.046028,0.001000,0.001000,0.001000,0.001000,0.001000
1006.596154,0.045544,0.001000,0.001000,0.001000,0.001000,0.001000
1006.615385,0.045032,0.001000,0.001000,0.001000,0.001000,0.001000
1006.634615,0.044495,0.001000,0.001000,0.001000,0.001000,0.001000
1006.653846,0.043931,0.001000,0.001000,0.001000,0.001000,0.001000
1006.673077,0.043342,0.001000,0.001000,0.001000,0.001000,0.001000
1006.692308,0.042728,0.001000,0.001000,0.001000,0.001000,0.001000
1006.711538,0.042089,0.001000,0.001000,0.001000,0.001000,0.001000
1006.730769,0.041425,0.001000,0.001000,0.001000,0.001000,0.001000
1006.750000,0.040737,0.001000,0.001000,0.001000,0.001000,0.001000
1006.769231,0.040025,0.001000,0.001000,0.001000,0.001000,0.001000
1006.788462,0.039291,0.001000,0.001000,0.001000,0.001000,0.001000
1006.807692,0.038533,0.001000,0.001000,0.001000,0.001000,0.001000
1006.826923,0.037753,0.001000,0.001000,0.001000,0.001000,0.001000
1006.846154,0.036950,0.001000,0.001000,0.001000,0.001000,0.001000
1006.865385,0.036126,0.001000,0.001000,0.001000,0.001000,0.001000
1006.884615,0.035282,0.001000,0.001000,0.001000,0.001000,0.001000
1006.903846,0.034416,0.001000,0.001000,0.001000,0.001000,0.001000
1006.923077,0.033531,0.001000,0.001000,0.001000,0.001000,0.001000
1006.942308,0.032626,0.001000,0.001000,0.001000,0.001000,0.001000
1006.961538,0.031702,0.001000,0.001000,0.001000,0.001000,0.001000
1006.980769,0.030759,0.001000,0.001000,0.001000,0.001000,0.001000
1007.000000,0.029799,0.001000,0.001000,0.001000,0.001000,0.001000
1007.019231,0.028821,0.001000,0.001000,0.001000,0.001000,0.001000
1007.038462,0.027827,0.001000,0.001000,0.001000,0.001000,0.001000
1007.057692,0.026816,0.001000,0.001000,0.001000,0.001000,0.001000
1007.076923,0.025790,0.001000,0.001000,0.001000,0.001000,0.001000
1007.096154,0.024748,0.001000,0.001000,0.001000,0.001000,0.001000
1007.115385,0.023693,0.001000,0.001000,0.001000,0.001000,0.001000
1007.134615,0.022623,0.001000,0.001000,0.001000,0.001000,0.001000
1007.153846,0.021540,0.001000,0.001000,0.001000,0.001000,0.001000
1007.173077,0.020445,0.001000,0.001000,0.001000,0.001000,0.001000
1007.192308,0.019338,0.001000,0.001000,0.001000,0.001000,0.001000
1007.211538,0.018219,0.001000,0.001000,0.001000,0.001000,0.001000
1007.230769,0.017090,0.001000,0.001000,0.001000,0.001000,0.001000
1007.250000,0.015951,0.001000,0.001000,0.001000,0.001000,0.001000
1007.269231,0.014802,0.001000,0.001000,0.001000,0.001000,0.001000
1007.288462,0.013645,0.001000,0.001000,0.001000,0.001000,0.001000
1007.307692,0.012480,0.001000,0.001000,0.001000,0.001000,0.001000
1007.326923,0.011308,0.001000,0.001000,0.001000,0.001000,0.001000
1007.346154,0.010129,0.001000,0.001000,0.001000,0.001000,0.001000
1007.365385,0.008945,0.001000,0.001000,0.001000,0.001000,0.001000
1007.384615,0.007755,0.001000,0.001000,0.001000,0.001000,0.001000
1007.403846,0.006560,0.001000,0.001000,0.001000,0.001000,0.001000
1007.423077,0.005362,0.001000,0.001000,0.001000,0.001000,0.001000
1007.442308,0.004161,0.001000,0.001000,0.001000,0.001000,0.001000
1007.461538,0.002957,0.001000,0.001000,0.001000,0.001000,0.001000
1007.480769,0.001751,0.001000,0.001000,0.001000,0.001000,0.001000
1007.500000,0.000545,0.001000,0.001000,0.001000,0.001000,0.001000
1007.519231,-0.000662,0.001000,0.001000,0.001000,0.001000,0.001000
1007.538462,-0.001869,0.001000,0.001000,0.001000,0.001000,0.001000
1007.557692,-0.003074,0.001000,0.001000,0.001000,0.001000,0.001000
1007.576923,-0.004278,0.001000,0.001000,0.001000,0.001000,0.001000
1007.596154,-0.005479,0.001000,0.001000,0.001000,0.001000,0.001000
1007.615385,-0.006677,0.001000,0.001000,0.001000,0.001000,0.001000
1007.634615,-0.007871,0.001000,0.001000,0.001000,0.001000,0.001000
1007.653846,-0.009060,0.001000,0.001000,0.001000,0.001000,0.001000
1007.673077,-0.010244,0.001000,0.001000,0.001000,0.001000,0.001000
1007.692308,-0.011423,0.001000,0.001000,0.001000,0.001000,0.001000
1007.711538,-0.012594,0.001000,0.001000,0.001000,0.001000,0.001000
1007.730769,-0.013758,0.001000,0.001000,0.001000,0.001000,0.001000
1007.750000,-0.014915,0.001000,0.001000,0.001000,0.001000,0.001000
1007.769231,-0.016062,0.001000,0.001000,0.001000,0.001000,0.001000
1007.788462,-0.017200,0.001000,0.001000,0.001000,0.001000,0.001000
1007.807692,-0.018328,0.001000,0.001000,0.001000,0.001000,0.001000
1007.826923,-0.019446,0.001000,0.001000,0.001000,0.001000,0.001000
1007.846154,-0.020552,0.001000,0.001000,0.001000,0.001000,0.001000
1007.865385,-0.021646,0.001000,0.001000,0.001000,0.001000,0.001000
1007.884615,-0.022728,0.001000,0.001000,0.001000,0.001000,0.001000
1007.903846,-0.023796,0.001000,0.001000,0.001000,0.001000,0.001000
1007.923077,-0.024850,0.001000,0.001000,0.001000,0.001000,0.001000
1007.942308,-0.025890,0.001000,0.001000,0.001000,0.001000,0.001000
1007.961538,-0.026915,0.001000,0.001000,0.001000,0.001000,0.001000
1007.980769,-0.027924,0.001000,0.001000,0.001000,0.001000,0.001000
1008.000000,-0.028917,0.001000,0.001000,0.001000,0.001000,0.001000
1008.019231,-0.029893,0.001000,0.001000,0.001000,0.001000,0.001000
1008.038462,-0.030852,0.001000,0.001000,0.001000,0.001000,0.001000
1008.057692,-0.031793,0.001000,0.001000,0.001000,0.001000,0.001000
1008.076923,-0.032715,0.001000,0.001000,0.001000,0.001000,0.001000
1008.096154,-0.033618,0.001000,0.001000,0.001000,0.001000,0.001000
1008.115385,-0.034501,0.001000,0.001000,0.001000,0.001000,0.001000
1008.134615,-0.035365,0.001000,0.001000,0.001000,0.001000,0.001000
1008.153846,-0.036208,0.001000,0.001000,0.001000,0.001000,0.001000
1008.173077,-0.037029,0.001000,0.001000,0.001000,0.001000,0.001000
1008.192308,-0.037829,0.001000,0.001000,0.001000,0.001000,0.001000
1008.211538,-0.038607,0.001000,0.001000,0.001000,0.001000,0.001000
1008.230769,-0.039363,0.001000,0.001000,0.001000,0.001000,0.001000
1008.250000,-0.040096,0.001000,0.001000,0.001000,0.001000,0.001000
1008.269231,-0.040805,0.001000,0.001000,0.001000,0.001000,0.001000
1008.288462,-0.041491,0.001000,0.001000,0.001000,0.001000,0.001000
1008.307692,-0.042152,0.001000,0.001000,0.001000,0.001000,0.001000
1008.326923,-0.042789,0.001000,0.001000,0.001000,0.001000,0.001000
1008.346154,-0.043401,0.001000,0.001000,0.001000,0.001000,0.001000
1008.365385,-0.043987,0.001000,0.001000,0.001000,0.001000,0.001000
1008.384615,-0.044548,0.001000,0.001000,0.001000,0.001000,0.001000
1008.403846,-0.045083,0.001000,0.001000,0.001000,0.001000,0.001000
1008.423077,-0.045592,0.001000,0.001000,0.001000,0.001000,0.001000
1008.442308,-0.046074,0.001000,0.001000,0.001000,0.001000,0.001000
1008.461538,-0.046529,0.001000,0.001000,0.001000,0.001000,0.001000
1008.480769,-0.046958,0.001000,0.001000,0.001000,0.001000,0.001000
1008.500000,-0.047358,0.001000,0.001000,0.001000,0.001000,0.001000
1008.519231,-0.047732,0.001000,0.001000,0.001000,0.001000,0.001000
1008.538462,-0.048077,0.001000,0.001000,0.001000,0.001000,0.001000
1008.557692,-0.048395,0.001000,0.001000,0.001000,0.001000,0.001000
1008.576923,-0.048684,0.001000,0.001000,0.001000,0.001000,0.001000
1008.596154,-0.048945,0.001000,0.001000,0.001000,0.001000,0.001000
1008.615385,-0.049177,0.001000,0.001000,0.001000,0.001000,0.001000
1008.634615,-0.049381,0.001000,0.001000,0.001000,0.001000,0.001000
1008.653846,-0.049556,0.001000,0.001000,0.001000,0.001000,0.001000
1008.673077,-0.049702,0.001000,0.001000,0.001000,0.001000,0.001000
1008.692308,-0.049819,0.001000,0.001000,0.001000,0.001000,0.001000
1008.711538,-0.049907,0.001000,0.001000,0.001000,0.001000,0.001000
1008.730769,-0.049966,0.001000,0.001000,0.001000,0.001000,0.001000
1008.750000,-0.049996,0.001000,0.001000,0.001000,0.001000,0.001000
1008.769231,-0.049997,0.001000,0.001000,0.001000,0.001000,0.001000
1008.788462,-0.049968,0.001000,0.001000,0.001000,0.001000,0.001000
1008.807692,-0.049911,0.001000,0.001000,0.001000,0.001000,0.001000
1008.826923,-0.049824,0.001000,0.001000,0.001000,0.001000,0.001000
1008.846154,-0.049709,0.001000,0.001000,0.001000,0.001000,0.001000
1008.865385,-0.049564,0.001000,0.001000,0.001000,0.001000,0.001000
1008.884615,-0.049391,0.001000,0.001000,0.001000,0.001000,0.001000
1008.903846,-0.049189,0.001000,0.001000,0.001000,0.001000,0.001000
1008.923077,-0.048958,0.001000,0.001000,0.001000,0.001000,0.001000
1008.942308,-0.048698,0.001000,0.001000,0.001000,0.001000,0.001000
1008.961538,-0.048411,0.001000,0.001000,0.001000,0.001000,0.001000
1008.980769,-0.048095,0.001000,0.001000,0.001000,0.001000,0.001000
1009.000000,-0.047751,0.001000,0.001000,0.001000,0.001000,0.001000
1009.019231,-0.047379,0.001000,0.001000,0.001000,0.001000,0.001000
1009.038462,-0.046980,0.001000,0.001000,0.001000,0.001000,0.001000
1009.057692,-0.046553,0.001000,0.001000,0.001000,0.001000,0.001000
1009.076923,-0.046099,0.001000,0.001000,0.001000,0.001000,0.001000
1009.096154,-0.045618,0.001000,0.001000,0.001000,0.001000,0.001000
1009.115385,-0.045111,0.001000,0.001000,0.001000,0.001000,0.001000
1009.134615,-0.044577,0.001000,0.001000,0.001000,0.001000,0.001000
1009.153846,-0.044018,0.001000,0.001000,0.001000,0.001000,0.001000
1009.173077,-0.043432,0.001000,0.001000,0.001000,0.001000,0.001000
1009.192308,-0.042822,0.001000,0.001000,0.001000,0.001000,0.001000
1009.211538,-0.042186,0.001000,0.001000,0.001000,0.001000,0.001000
1009.230769,-0.041526,0.001000,0.001000,0.001000,0.001000,0.001000
1009.250000,-0.040842,0.001000,0.001000,0.001000,0.001000,0.001000
1009.269231,-0.040134,0.001000,0.001000,0.001000,0.001000,0.001000
1009.288462,-0.039403,0.001000,0.001000,0.001000,0.001000,0.001000
1009.307692,-0.038648,0.001000,0.001000,0.001000,0.001000,0.001000
1009.326923,-0.037871,0.001000,0.001000,0.001000,0.001000,0.001000
1009.346154,-0.037072,0.001000,0.001000,0.001000,0.001000,0.001000
1009.365385,-0.036252,0.001000,0.001000,0.001000,0.001000,0.001000
1009.384615,-0.035410,0.001000,0.001000,0.001000,0.001000,0.001000
1009.403846,-0.034548,0.001000,0.001000,0.001000,0.001000,0.001000
1009.423077,-0.033665,0.001000,0.001000,0.001000,0.001000,0.001000
1009.442308,-0.032763,0.001000,0.001000,0.001000,0.001000,0.001000
1009.461538,-0.031842,0.001000,0.001000,0.001000,0.001000,0.001000
1009.480769,-0.030902,0.001000,0.001000,0.001000,0.001000,0.001000
1009.500000,-0.029945,0.001000,0.001000,0.001000,0.001000,0.001000
1009.519231,-0.028970,0.001000,0.001000,0.001000,0.001000,0.001000
1009.538462,-0.027977,0.001000,0.001000,0.001000,0.001000,0.001000
1009.557692,-0.026969,0.001000,0.001000,0.001000,0.001000,0.001000
1009.576923,-0.025945,0.001000,0.001000,0.001000,0.001000,0.001000
1009.596154,-0.024906,0.001000,0.001000,0.001000,0.001000,0.001000
1009.615385,-0.023852,0.001000,0.001000,0.001000,0.001000,0.001000
1009.634615,-0.022785,0.001000,0.001000,0.001000,0.001000,0.001000
1009.653846,-0.021704,0.001000,0.001000,0.001000,0.001000,0.001000
1009.673077,-0.020610,0.001000,0.001000,0.001000,0.001000,0.001000
1009.692308,-0.019505,0.001000,0.001000,0.001000,0.001000,0.001000
1009.711538,-0.018388,0.001000,0.001000,0.001000,0.001000,0.001000
1009.730769,-0.017260,0.001000,0.001000,0.001000,0.001000,0.001000
1009.750000,-0.016123,0.001000,0.001000,0.001000,0.001000,0.001000
1009.769231,-0.014976,0.001000,0.001000,0.001000,0.001000,0.001000
1009.788462,-0.013820,0.001000,0.001000,0.001000,0.001000,0.001000
1009.807692,-0.012656,0.001000,0.001000,0.001000,0.001000,0.001000
1009.826923,-0.011485,0.001000,0.001000,0.001000,0.001000,0.001000
1009.846154,-0.010307,0.001000,0.001000,0.001000,0.001000,0.001000
1009.865385,-0.009123,0.001000,0.001000,0.001000,0.001000,0.001000
1009.884615,-0.007934,0.001000,0.001000,0.001000,0.001000,0.001000
1009.903846,-0.006740,0.001000,0.001000,0.001000,0.001000,0.001000
1009.923077,-0.005543,0.001000,0.001000,0.001000,0.001000,0.001000
1009.942308,-0.004342,0.001000,0.001000,0.001000,0.001000,0.001000
1009.961538,-0.003138,0.001000,0.001000,0.001000,0.001000,0.001000
1009.980769,-0.001933,0.001000,0.001000,0.001000,0.001000,0.001000
1010.000000,-0.000726,0.001000,0.001000,0.001000,0.001000,0.001000
1010.019231,0.000481,0.001000,0.001000,0.001000,0.001000,0.001000
1010.038462,0.001687,0.001000,0.001000,0.001000,0.001000,0.001000
1010.057692,0.002893,0.001000,0.001000,0.001000,0.001000,0.001000
1010.076923,0.004097,0.001000,0.001000,0.001000,0.001000,0.001000
1010.096154,0.005298,0.001000,0.001000,0.001000,0.001000,0.001000
1010.115385,0.006497,0.001000,0.001000,0.001000,0.001000,0.001000
1010.134615,0.007691,0.001000,0.001000,0.001000,0.001000,0.001000
1010.153846,0.008882,0.001000,0.001000,0.001000,0.001000,0.001000
1010.173077,0.010067,0.001000,0.001000,0.001000,0.001000,0.001000
1010.192308,0.011246,0.001000,0.001000,0.001000,0.001000,0.001000
1010.211538,0.012418,0.001000,0.001000,0.001000,0.001000,0.001000
1010.230769,0.013584,0.001000,0.001000,0.001000,0.001000,0.001000
1010.250000,0.014741,0.001000,0.001000,0.001000,0.001000,0.001000
1010.269231,0.015890,0.001000,0.001000,0.001000,0.001000,0.001000
1010.288462,0.017030,0.001000,0.001000,0.001000,0.001000,0.001000
1010.307692,0.018159,0.001000,0.001000,0.001000,0.001000,0.001000
1010.326923,0.019278,0.001000,0.001000,0.001000,0.001000,0.001000
1010.346154,0.020386,0.001000,0.001000,0.001000,0.001000,0.001000
1010.365385,0.021482,0.001000,0.001000,0.001000,0.001000,0.001000
1010.384615,0.022566,0.001000,0.001000,0.001000,0.001000,0.001000
1010.403846,0.023636,0.001000,0.001000,0.001000,0.001000,0.001000
1010.423077,0.024693,0.001000,0.001000,0.001000,0.001000,0.001000
1010.442308,0.025735,0.001000,0.001000,0.001000,0.001000,0.001000
1010.461538,0.026762,0.001000,0.001000,0.001000,0.001000,0.001000
1010.480769,0.027773,0.001000,0.001000,0.001000,0.001000,0.001000
1010.500000,0.028769,0.001000,0.001000,0.001000,0.001000,0.001000
1010.519231,0.029748,0.001000,0.001000,0.001000,0.001000,0.001000
1010.538462,0.030709,0.001000,0.001000,0.001000,0.001000,0.001000
1010.557692,0.031652,0.001000,0.001000,0.001000,0.001000,0.001000
1010.576923,0.032577,0.001000,0.001000,0.001000,0.001000,0.001000
1010.596154,0.033483,0.001000,0.001000,0.001000,0.001000,0.001000
1010.615385,0.034370,0.001000,0.001000,0.001000,0.001000,0.001000
1010.634615,0.035236,0.001000,0.001000,0.001000,0.001000,0.001000
1010.653846,0.036082,0.001000,0.001000,0.001000,0.001000,0.001000
1010.673077,0.036907,0.001000,0.001000,0.001000,0.001000,0.001000
1010.692308,0.037710,0.001000,0.001000,0.001000,0.001000,0.001000
1010.711538,0.038492,0.001000,0.001000,0.001000,0.001000,0.001000
1010.730769,0.039251,0.001000,0.001000,0.001000,0.001000,0.001000
1010.750000,0.039987,0.001000,0.001000,0.001000,0.001000,0.001000
1010.769231,0.040700,0.001000,0.001000,0.001000,0.001000,0.001000
1010.788462,0.041389,0.001000,0.001000,0.001000,0.001000,0.001000
1010.807692,0.042054,0.001000,0.001000,0.001000,0.001000,0.001000
1010.826923,0.042695,0.001000,0.001000,0.001000,0.001000,0.001000
1010.846154,0.043310,0.001000,0.001000,0.001000,0.001000,0.001000
1010.865385,0.043901,0.001000,0.001000,0.001000,0.001000,0.001000
1010.884615,0.044465,0.001000,0.001000,0.001000,0.001000,0.001000
1010.903846,0.045004,0.001000,0.001000,0.001000,0.001000,0.001000
1010.923077,0.045517,0.001000,0.001000,0.001000,0.001000,0.001000
1010.942308,0.046003,0.001000,0.001000,0.001000,0.001000,0.001000
1010.961538,0.046463,0.001000,0.001000,0.001000,0.001000,0.001000
1010.980769,0.046895,0.001000,0.001000,0.001000,0.001000,0.001000
1011.000000,0.047300,0.001000,0.001000,0.001000,0.001000,0.001000
1011.019231,0.047677,0.001000,0.001000,0.001000,0.001000,0.001000
1011.038462,0.048027,0.001000,0.001000,0.001000,0.001000,0.001000
1011.057692,0.048349,0.001000,0.001000,0.001000,0.001000,0.001000
1011.076923,0.048642,0.001000,0.001000,0.001000,0.001000,0.001000
1011.096154,0.048907,0.001000,0.001000,0.001000,0.001000,0.001000
1011.115385,0.049144,0.001000,0.001000,0.001000,0.001000,0.001000
1011.134615,0.049352,0.001000,0.001000,0.001000,0.001000,0.001000
1011.153846,0.049531,0.001000,0.001000,0.001000,0.001000,0.001000
1011.173077,0.049682,0.001000,0.001000,0.001000,0.001000,0.001000
1011.192308,0.049803,0.001000,0.001000,0.001000,0.001000,0.001000
1011.211538,0.049896,0.001000,0.001000,0.001000,0.001000,0.001000
1011.230769,0.049959,0.001000,0.001000,0.001000,0.001000,0.001000
1011.250000,0.049993,0.001000,0.001000,0.001000,0.001000,0.001000
1011.269231,0.049998,0.001000,0.001000,0.001000,0.001000,0.001000
1011.288462,0.049975,0.001000,0.001000,0.001000,0.001000,0.001000
1011.307692,0.049921,0.001000,0.001000,0.001000,0.001000,0.001000
1011.326923,0.049839,0.001000,0.001000,0.001000,0.001000,0.001000
1011.346154,0.049728,0.001000,0.001000,0.001000,0.001000,0.001000
1011.365385,0.049588,0.001000,0.001000,0.001000,0.001000,0.001000
1011.384615,0.049419,0.001000,0.001000,0.001000,0.001000,0.001000
1011.403846,0.049221,0.001000,0.001000,0.001000,0.001000,0.001000
1011.423077,0.048994,0.001000,0.001000,0.001000,0.001000,0.001000
1011.442308,0.048739,0.001000,0.001000,0.001000,0.001000,0.001000
1011.461538,0.048456,0.001000,0.001000,0.001000,0.001000,0.001000
1011.480769,0.048144,0.001000,0.001000,0.001000,0.001000,0.001000
1011.500000,0.047804,0.001000,0.001000,0.001000,0.001000,0.001000
1011.519231,0.047437,0.001000,0.001000,0.001000,0.001000,0.001000
1011.538462,0.047041,0.001000,0.001000,0.001000,0.001000,0.001000
1011.557692,0.046619,0.001000,0.001000,0.001000,0.001000,0.001000
1011.576923,0.046169,0.001000,0.001000,0.001000,0.001000,0.001000
1011.596154,0.045692,0.001000,0.001000,0.001000,0.001000,0.001000
1011.615385,0.045189,0.001000,0.001000,0.001000,0.001000,0.001000
1011.634615,0.044659,0.001000,0.001000,0.001000,0.001000,0.001000
1011.653846,0.044103,0.001000,0.001000,0.001000,0.001000,0.001000
1011.673077,0.043522,0.001000,0.001000,0.001000,0.001000,0.001000
1011.692308,0.042915,0.001000,0.001000,0.001000,0.001000,0.001000
1011.711538,0.042284,0.001000,0.001000,0.001000,0.001000,0.001000
1011.730769,0.041627,0.001000,0.001000,0.001000,0.001000,0.001000
1011.750000,0.040947,0.001000,0.001000,0.001000,0.001000,0.001000
1011.769231,0.040242,0.001000,0.001000,0.001000,0.001000,0.001000
1011.788462,0.039514,0.001000,0.001000,0.001000,0.001000,0.001000
1011.807692,0.038763,0.001000,0.001000,0.001000,0.001000,0.001000
1011.826923,0.037990,0.001000,0.001000,0.001000,0.001000,0.001000
1011.846154,0.037194,0.001000,0.001000,0.001000,0.001000,0.001000
1011.865385,0.036377,0.001000,0.001000,0.001000,0.001000,0.001000
1011.884615,0.035538,0.001000,0.001000,0.001000,0.001000,0.001000
1011.903846,0.034679,0.001000,0.001000,0.001000,0.001000,0.001000
1011.923077,0.033799,0.001000,0.001000,0.001000,0.001000,0.001000
1011.942308,0.032900,0.001000,0.001000,0.001000,0.001000,0.001000
1011.961538,0.031982,0.001000,0.001000,0.001000,0.001000,0.001000
1011.980769,0.031045,0.001000,0.001000,0.001000,0.001000,0.001000
1012.000000,0.030090,0.001000,0.001000,0.001000,0.001000,0.001000
1012.019231,0.029117,0.001000,0.001000,0.001000,0.001000,0.001000
1012.038462,0.028128,0.001000,0.001000,0.001000,0.001000,0.001000
1012.057692,0.027122,0.001000,0.001000,0.001000,0.001000,0.001000
1012.076923,0.026100,0.001000,0.001000,0.001000,0.001000,0.001000
1012.096154,0.025063,0.001000,0.001000,0.001000,0.001000,0.001000
1012.115385,0.024012,0.001000,0.001000,0.001000,0.001000,0.001000
1012.134615,0.022946,0.001000,0.001000,0.001000,0.001000,0.001000
1012.153846,0.021867,0.001000,0.001000,0.001000,0.001000,0.001000
1012.173077,0.020776,0.001000,0.001000,0.001000,0.001000,0.001000
1012.192308,0.019672,0.001000,0.001000,0.001000,0.001000,0.001000
1012.211538,0.018557,0.001000,0.001000,0.001000,0.001000,0.001000
1012.230769,0.017431,0.001000,0.001000,0.001000,0.001000,0.001000
1012.250000,0.016295,0.001000,0.001000,0.001000,0.001000,0.001000
1012.269231,0.015149,0.001000,0.001000,0.001000,0.001000,0.001000
1012.288462,0.013994,0.001000,0.001000,0.001000,0.001000,0.001000
1012.307692,0.012832,0.001000,0.001000,0.001000,0.001000,0.001000
1012.326923,0.011662,0.001000,0.001000,0.001000,0.001000,0.001000
1012.346154,0.010485,0.001000,0.001000,0.001000,0.001000,0.001000
1012.365385,0.009302,0.001000,0.001000,0.001000,0.001000,0.001000
1012.384615,0.008113,0.001000,0.001000,0.001000,0.001000,0.001000
1012.403846,0.006920,0.001000,0.001000,0.001000,0.001000,0.001000
1012.423077,0.005723,0.001000,0.001000,0.001000,0.001000,0.001000
1012.442308,0.004522,0.001000,0.001000,0.001000,0.001000,0.001000
1012.461538,0.003319,0.001000,0.001000,0.001000,0.001000,0.001000
1012.480769,0.002114,0.001000,0.001000,0.001000,0.001000,0.001000
1012.500000,0.000908,0.001000,0.001000,0.001000,0.001000,0.001000
1012.519231,-0.000299,0.001000,0.001000,0.001000,0.001000,0.001000
1012.538462,-0.001506,0.001000,0.001000,0.001000,0.001000,0.001000
1012.557692,-0.002711,0.001000,0.001000,0.001000,0.001000,0.001000
1012.576923,-0.003916,0.001000,0.001000,0.001000,0.001000,0.001000
1012.596154,-0.005118,0.001000,0.001000,0.001000,0.001000,0.001000
1012.615385,-0.006317,0.001000,0.001000,0.001000,0.001000,0.001000
1012.634615,-0.007512,0.001000,0.001000,0.001000,0.001000,0.001000
1012.653846,-0.008703,0.001000,0.001000,0.001000,0.001000,0.001000
1012.673077,-0.009889,0.001000,0.001000,0.001000,0.001000,0.001000
1012.692308,-0.011069,0.001000,0.001000,0.001000,0.001000,0.001000
1012.711538,-0.012242,0.001000,0.001000,0.001000,0.001000,0.001000
1012.730769,-0.013409,0.001000,0.001000,0.001000,0.001000,0.001000
1012.750000,-0.014568,0.001000,0.001000,0.001000,0.001000,0.001000
1012.769231,-0.015718,0.001000,0.001000,0.001000,0.001000,0.001000
1012.788462,-0.016859,0.001000,0.001000,0.001000,0.001000,0.001000
1012.807692,-0.017990,0.001000,0.001000,0.001000,0.001000,0.001000
1012.826923,-0.019111,0.001000,0.001000,0.001000,0.001000,0.001000
1012.846154,-0.020220,0.001000,0.001000,0.001000,0.001000,0.001000
1012.865385,-0.021318,0.001000,0.001000,0.001000,0.001000,0.001000
1012.884615,-0.022403,0.001000,0.001000,0.001000,0.001000,0.001000
1012.903846,-0.023476,0.001000,0.001000,0.001000,0.001000,0.001000
1012.923077,-0.024535,0.001000,0.001000,0.001000,0.001000,0.001000
1012.942308,-0.025579,0.001000,0.001000,0.001000,0.001000,0.001000
1012.961538,-0.026608,0.001000,0.001000,0.001000,0.001000,0.001000
1012.980769,-0.027622,0.001000,0.001000,0.001000,0.001000,0.001000
1013.000000,-0.028620,0.001000,0.001000,0.001000,0.001000,0.001000
1013.019231,-0.029601,0.001000,0.001000,0.001000,0.001000,0.001000
1013.038462,-0.030565,0.001000,0.001000,0.001000,0.001000,0.001000
1013.057692,-0.031511,0.001000,0.001000,0.001000,0.001000,0.001000
1013.076923,-0.032439,0.001000,0.001000,0.001000,0.001000,0.001000
1013.096154,-0.033348,0.001000,0.001000,0.001000,0.001000,0.001000
1013.115385,-0.034238,0.001000,0.001000,0.001000,0.001000,0.001000
1013.134615,-0.035107,0.001000,0.001000,0.001000,0.001000,0.001000
1013.153846,-0.035956,0.001000,0.001000,0.001000,0.001000,0.001000
1013.173077,-0.036784,0.001000,0.001000,0.001000,0.001000,0.001000
1013.192308,-0.037591,0.001000,0.001000,0.001000,0.001000,0.001000
1013.211538,-0.038376,0.001000,0.001000,0.001000,0.001000,0.001000
1013.230769,-0.039138,0.001000,0.001000,0.001000,0.001000,0.001000
1013.250000,-0.039878,0.001000,0.001000,0.001000,0.001000,0.001000
1013.269231,-0.040594,0.001000,0.001000,0.001000,0.001000,0.001000
1013.288462,-0.041287,0.001000,0.001000,0.001000,0.001000,0.001000
1013.307692,-0.041955,0.001000,0.001000,0.001000,0.001000,0.001000
1013.326923,-0.042600,0.001000,0.001000,0.001000,0.001000,0.001000
1013.346154,-0.043219,0.001000,0.001000,0.001000,0.001000,0.001000
1013.365385,-0.043813,0.001000,0.001000,0.001000,0.001000,0.001000
1013.384615,-0.044382,0.001000,0.001000,0.001000,0.001000,0.001000
1013.403846,-0.044925,0.001000,0.001000,0.001000,0.001000,0.001000
1013.423077,-0.045442,0.001000,0.001000,0.001000,0.001000,0.001000
1013.442308,-0.045932,0.001000,0.001000,0.001000,0.001000,0.001000
1013.461538,-0.046395,0.001000,0.001000,0.001000,0.001000,0.001000
1013.480769,-0.046832,0.001000,0.001000,0.001000,0.001000,0.001000
1013.500000,-0.047241,0.001000,0.001000,0.001000,0.001000,0.001000
1013.519231,-0.047622,0.001000,0.001000,0.001000,0.001000,0.001000
1013.538462,-0.047976,0.001000,0.001000,0.001000,0.001000,0.001000
1013.557692,-0.048302,0.001000,0.001000,0.001000,0.001000,0.001000
1013.576923,-0.048600,0.001000,0.001000,0.001000,0.001000,0.001000
1013.596154,-0.048869,0.001000,0.001000,0.001000,0.001000,0.001000
1013.615385,-0.049110,0.001000,0.001000,0.001000,0.001000,0.001000
1013.634615,-0.049323,0.001000,0.001000,0.001000,0.001000,0.001000
1013.653846,-0.049506,0.001000,0.001000,0.001000,0.001000,0.001000
1013.673077,-0.049661,0.001000,0.001000,0.001000,0.001000,0.001000
1013.692308,-0.049787,0.001000,0.001000,0.001000,0.001000,0.001000
1013.711538,-0.049884,0.001000,0.001000,0.001000,0.001000,0.001000
1013.730769,-0.049951,0.001000,0.001000,0.001000,0.001000,0.001000
1013.750000,-0.049990,0.001000,0.001000,0.001000,0.001000,0.001000
1013.769231,-0.050000,0.001000,0.001000,0.001000,0.001000,0.001000
1013.788462,-0.049980,0.001000,0.001000,0.001000,0.001000,0.001000
1013.807692,-0.049931,0.001000,0.001000,0.001000,0.001000,0.001000
1013.826923,-0.049853,0.001000,0.001000,0.001000,0.001000,0.001000
1013.846154,-0.049747,0.001000,0.001000,0.001000,0.001000,0.001000
1013.865385,-0.049611,0.001000,0.001000,0.001000,0.001000,0.001000
1013.884615,-0.049446,0.001000,0.001000,0.001000,0.001000,0.001000
1013.903846,-0.049253,0.001000,0.001000,0.001000,0.001000,0.001000
1013.923077,-0.049030,0.001000,0.001000,0.001000,0.001000,0.001000
1013.942308,-0.048779,0.001000,0.001000,0.001000,0.001000,0.001000
1013.961538,-0.048500,0.001000,0.001000,0.001000,0.001000,0.001000
1013.980769,-0.048193,0.001000,0.001000,0.001000,0.001000,0.001000
1014.000000,-0.047857,0.001000,0.001000,0.001000,0.001000,0.001000
1014.019231,-0.047494,0.001000,0.001000,0.001000,0.001000,0.001000
1014.038462,-0.047103,0.001000,0.001000,0.001000,0.001000,0.001000
1014.057692,-0.046684,0.001000,0.001000,0.001000,0.001000,0.001000
1014.076923,-0.046238,0.001000,0.001000,0.001000,0.001000,0.001000
1014.096154,-0.045766,0.001000,0.001000,0.001000,0.001000,0.001000
1014.115385,-0.045266,0.001000,0.001000,0.001000,0.001000,0.001000
1014.134615,-0.044741,0.001000,0.001000,0.001000,0.001000,0.001000
1014.153846,-0.044189,0.001000,0.001000,0.001000,0.001000,0.001000
1014.173077,-0.043611,0.001000,0.001000,0.001000,0.001000,0.001000
1014.192308,-0.043008,0.001000,0.001000,0.001000,0.001000,0.001000
1014.211538,-0.042380,0.001000,0.001000,0.001000,0.001000,0.001000
1014.230769,-0.041728,0.001000,0.001000,0.001000,0.001000,0.001000
1014.250000,-0.041051,0.001000,0.001000,0.001000,0.001000,0.001000
1014.269231,-0.040350,0.001000,0.001000,0.001000,0.001000,0.001000
1014.288462,-0.039625,0.001000,0.001000,0.001000,0.001000,0.001000
1014.307692,-0.038878,0.001000,0.001000,0.001000,0.001000,0.001000
1014.326923,-0.038107,0.001000,0.001000,0.001000,0.001000,0.001000
1014.346154,-0.037315,0.001000,0.001000,0.001000,0.001000,0.001000
1014.365385,-0.036501,0.001000,0.001000,0.001000,0.001000,0.001000
1014.384615,-0.035666,0.001000,0.001000,0.001000,0.001000,0.001000
1014.403846,-0.034809,0.001000,0.001000,0.001000,0.001000,0.001000
1014.423077,-0.033933,0.001000,0.001000,0.001000,0.001000,0.001000
1014.442308,-0.033037,0.001000,0.001000,0.001000,0.001000,0.001000
1014.461538,-0.032121,0.001000,0.001000,0.001000,0.001000,0.001000
1014.480769,-0.031187,0.001000,0.001000,0.001000,0.001000,0.001000
1014.500000,-0.030235,0.001000,0.001000,0.001000,0.001000,0.001000
1014.519231,-0.029265,0.001000,0.001000,0.001000,0.001000,0.001000
1014.538462,-0.028278,0.001000,0.001000,0.001000,0.001000,0.001000
1014.557692,-0.027274,0.001000,0.001000,0.001000,0.001000,0.001000
1014.576923,-0.026255,0.001000,0.001000,0.001000,0.001000,0.001000
1014.596154,-0.025220,0.001000,0.001000,0.001000,0.001000,0.001000
1014.615385,-0.024171,0.001000,0.001000,0.001000,0.001000,0.001000
1014.634615,-0.023107,0.001000,0.001000,0.001000,0.001000,0.001000
1014.653846,-0.022030,0.001000,0.001000,0.001000,0.001000,0.001000
1014.673077,-0.020941,0.001000,0.001000,0.001000,0.001000,0.001000
1014.692308,-0.019839,0.001000,0.001000,0.001000,0.001000,0.001000
1014.711538,-0.018725,0.001000,0.001000,0.001000,0.001000,0.001000
1014.730769,-0.017601,0.001000,0.001000,0.001000,0.001000,0.001000
1014.750000,-0.016466,0.001000,0.001000,0.001000,0.001000,0.001000
1014.769231,-0.015322,0.001000,0.001000,0.001000,0.001000,0.001000
1014.788462,-0.014169,0.001000,0.001000,0.001000,0.001000,0.001000
1014.807692,-0.013007,0.001000,0.001000,0.001000,0.001000,0.001000
1014.826923,-0.011838,0.001000,0.001000,0.001000,0.001000,0.001000
1014.846154,-0.010662,0.001000,0.001000,0.001000,0.001000,0.001000
1014.865385,-0.009480,0.001000,0.001000,0.001000,0.001000,0.001000
1014.884615,-0.008292,0.001000,0.001000,0.001000,0.001000,0.001000
1014.903846,-0.007100,0.001000,0.001000,0.001000,0.001000,0.001000
1014.923077,-0.005903,0.001000,0.001000,0.001000,0.001000,0.001000
1014.942308,-0.004703,0.001000,0.001000,0.001000,0.001000,0.001000
1014.961538,-0.003500,0.001000,0.001000,0.001000,0.001000,0.001000
1014.980769,-0.002296,0.001000,0.001000,0.001000,0.001000,0.001000
1015.000000,-0.001089,0.001000,0.001000,0.001000,0.001000,0.001000
1015.019231,0.000117,0.001000,0.001000,0.001000,0.001000,0.001000
1015.038462,0.001324,0.001000,0.001000,0.001000,0.001000,0.001000
1015.057692,0.002530,0.001000,0.001000,0.001000,0.001000,0.001000
1015.076923,0.003735,0.001000,0.001000,0.001000,0.001000,0.001000
1015.096154,0.004937,0.001000,0.001000,0.001000,0.001000,0.001000
1015.115385,0.006136,0.001000,0.001000,0.001000,0.001000,0.001000
1015.134615,0.007332,0.001000,0.001000,0.001000,0.001000,0.001000
1015.153846,0.008524,0.001000,0.001000,0.001000,0.001000,0.001000
1015.173077,0.009711,0.001000,0.001000,0.001000,0.001000,0.001000
1015.192308,0.010892,0.001000,0.001000,0.001000,0.001000,0.001000
1015.211538,0.012066,0.001000,0.001000,0.001000,0.001000,0.001000
1015.230769,0.013234,0.001000,0.001000,0.001000,0.001000,0.001000
1015.250000,0.014394,0.001000,0.001000,0.001000,0.001000,0.001000
1015.269231,0.015545,0.001000,0.001000,0.001000,0.001000,0.001000
1015.288462,0.016688,0.001000,0.001000,0.001000,0.001000,0.001000
1015.307692,0.017820,0.001000,0.001000,0.001000,0.001000,0.001000
1015.326923,0.018943,0.001000,0.001000,0.001000,0.001000,0.001000
1015.346154,0.020054,0.001000,0.001000,0.001000,0.001000,0.001000
1015.365385,0.021154,0.001000,0.001000,0.001000,0.001000,0.001000
1015.384615,0.022241,0.001000,0.001000,0.001000,0.001000,0.001000
1015.403846,0.023315,0.001000,0.001000,0.001000,0.001000,0.001000
1015.423077,0.024376,0.001000,0.001000,0.001000,0.001000,0.001000
1015.442308,0.025423,0.001000,0.001000,0.001000,0.001000,0.001000
1015.461538,0.026454,0.001000,0.001000,0.001000,0.001000,0.001000
1015.480769,0.027471,0.001000,0.001000,0.001000,0.001000,0.001000
1015.500000,0.028471,0.001000,0.001000,0.001000,0.001000,0.001000
1015.519231,0.029455,0.001000,0.001000,0.001000,0.001000,0.001000
1015.538462,0.030421,0.001000,0.001000,0.001000,0.001000,0.001000
1015.557692,0.031370,0.001000,0.001000,0.001000,0.001000,0.001000
1015.576923,0.032301,0.001000,0.001000,0.001000,0.001000,0.001000
1015.596154,0.033213,0.001000,0.001000,0.001000,0.001000,0.001000
1015.615385,0.034105,0.001000,0.001000,0.001000,0.001000,0.001000
1015.634615,0.034978,0.001000,0.001000,0.001000,0.001000,0.001000
1015.653846,0.035830,0.001000,0.001000,0.001000,0.001000,0.001000
1015.673077,0.036661,0.001000,0.001000,0.001000,0.001000,0.001000
1015.692308,0.037471,0.001000,0.001000,0.001000,0.001000,0.001000
1015.711538,0.038259,0.001000,0.001000,0.001000,0.001000,0.001000
1015.730769,0.039025,0.001000,0.001000,0.001000,0.001000,0.001000
1015.750000,0.039768,0.001000,0.001000,0.001000,0.001000,0.001000
1015.769231,0.040488,0.001000,0.001000,0.001000,0.001000,0.001000
1015.788462,0.041184,0.001000,0.001000,0.001000,0.001000,0.001000
1015.807692,0.041856,0.001000,0.001000,0.001000,0.001000,0.001000
1015.826923,0.042504,0.001000,0.001000,0.001000,0.001000,0.001000
1015.846154,0.043128,0.001000,0.001000,0.001000,0.001000,0.001000
1015.865385,0.043726,0.001000,0.001000,0.001000,0.001000,0.001000
1015.884615,0.044298,0.001000,0.001000,0.001000,0.001000,0.001000
1015.903846,0.044845,0.001000,0.001000,0.001000,0.001000,0.001000
1015.923077,0.045366,0.001000,0.001000,0.001000,0.001000,0.001000
1015.942308,0.045860,0.001000,0.001000,0.001000,0.001000,0.001000
1015.961538,0.046327,0.001000,0.001000,0.001000,0.001000,0.001000
1015.980769,0.046768,0.001000,0.001000,0.001000,0.001000,0.001000
1016.000000,0.047181,0.001000,0.001000,0.001000,0.001000,0.001000
1016.019231,0.047567,0.001000,0.001000,0.001000,0.001000,0.001000
1016.038462,0.047925,0.001000,0.001000,0.001000,0.001000,0.001000
1016.057692,0.048255,0.001000,0.001000,0.001000,0.001000,0.001000
1016.076923,0.048557,0.001000,0.001000,0.001000,0.001000,0.001000
1016.096154,0.048831,0.001000,0.001000,0.001000,0.001000,0.001000
1016.115385,0.049076,0.001000,0.001000,0.001000,0.001000,0.001000
1016.134615,0.049292,0.001000,0.001000,0.001000,0.001000,0.001000
1016.153846,0.049480,0.001000,0.001000,0.001000,0.001000,0.001000
1016.173077,0.049639,0.001000,0.001000,0.001000,0.001000,0.001000
1016.192308,0.049770,0.001000,0.001000,0.001000,0.001000,0.001000
1016.211538,0.049871,0.001000,0.001000,0.001000,0.001000,0.001000
1016.230769,0.049943,0.001000,0.001000,0.001000,0.001000,0.001000
1016.250000,0.049986,0.001000,0.001000,0.001000,0.001000,0.001000
1016.269231,0.050000,0.001000,0.001000,0.001000,0.001000,0.001000
1016.288462,0.049985,0.001000,0.001000,0.001000,0.001000,0.001000
1016.307692,0.049940,0.001000,0.001000,0.001000,0.001000,0.001000
1016.326923,0.049867,0.001000,0.001000,0.001000,0.001000,0.001000
1016.346154,0.049765,0.001000,0.001000,0.001000,0.001000,0.001000
1016.365385,0.049633,0.001000,0.001000,0.001000,0.001000,0.001000
1016.384615,0.049473,0.001000,0.001000,0.001000,0.001000,0.001000
1016.403846,0.049283,0.001000,0.001000,0.001000,0.001000,0.001000
1016.423077,0.049066,0.001000,0.001000,0.001000,0.001000,0.001000
1016.442308,0.048819,0.001000,0.001000,0.001000,0.001000,0.001000
1016.461538,0.048544,0.001000,0.001000,0.001000,0.001000,0.001000
1016.480769,0.048241,0.001000,0.001000,0.001000,0.001000,0.001000
1016.500000,0.047909,0.001000,0.001000,0.001000,0.001000,0.001000
1016.519231,0.047550,0.001000,0.001000,0.001000,0.001000,0.001000
1016.538462,0.047163,0.001000,0.001000,0.001000,0.001000,0.001000
1016.557692,0.046749,0.001000,0.001000,0.001000,0.001000,0.001000
1016.576923,0.046307,0.001000,0.001000,0.001000,0.001000,0.001000
1016.596154,0.045838,0.001000,0.001000,0.001000,0.001000,0.001000
1016.615385,0.045343,0.001000,0.001000,0.001000,0.001000,0.001000
1016.634615,0.044821,0.001000,0.001000,0.001000,0.001000,0.001000
1016.653846,0.044273,0.001000,0.001000,0.001000,0.001000,0.001000
1016.673077,0.043700,0.001000,0.001000,0.001000,0.001000,0.001000
1016.692308,0.043101,0.001000,0.001000,0.001000,0.001000,0.001000
1016.711538,0.042476,0.001000,0.001000,0.001000,0.001000,0.001000
1016.730769,0.041827,0.001000,0.001000,0.001000,0.001000,0.001000
1016.750000,0.041154,0.001000,0.001000,0.001000,0.001000,0.001000
1016.769231,0.040457,0.001000,0.001000,0.001000,0.001000,0.001000
1016.788462,0.039736,0.001000,0.001000,0.001000,0.001000,0.001000
1016.807692,0.038992,0.001000,0.001000,0.001000,0.001000,0.001000
1016.826923,0.038225,0.001000,0.001000,0.001000,0.001000,0.001000
1016.846154,0.037436,0.001000,0.001000,0.001000,0.001000,0.001000
1016.865385,0.036625,0.001000,0.001000,0.001000,0.001000,0.001000
1016.884615,0.035793,0.001000,0.001000,0.001000,0.001000,0.001000
1016.903846,0.034939,0.001000,0.001000,0.001000,0.001000,0.001000
1016.923077,0.034066,0.001000,0.001000,0.001000,0.001000,0.001000
1016.942308,0.033173,0.001000,0.001000,0.001000,0.001000,0.001000
1016.961538,0.032260,0.001000,0.001000,0.001000,0.001000,0.001000
1016.980769,0.031329,0.001000,0.001000,0.001000,0.001000,0.001000
1017.000000,0.030379,0.001000,0.001000,0.001000,0.001000,0.001000
1017.019231,0.029412,0.001000,0.001000,0.001000,0.001000,0.001000
1017.038462,0.028427,0.001000,0.001000,0.001000,0.001000,0.001000
1017.057692,0.027426,0.001000,0.001000,0.001000,0.001000,0.001000
1017.076923,0.026409,0.001000,0.001000,0.001000,0.001000,0.001000
1017.096154,0.025377,0.001000,0.001000,0.001000,0.001000,0.001000
1017.115385,0.024330,0.001000,0.001000,0.001000,0.001000,0.001000
1017.134615,0.023268,0.001000,0.001000,0.001000,0.001000,0.001000
1017.153846,0.022193,0.001000,0.001000,0.001000,0.001000,0.001000
1017.173077,0.021105,0.001000,0.001000,0.001000,0.001000,0.001000
1017.192308,0.020005,0.001000,0.001000,0.001000,0.001000,0.001000
1017.211538,0.018893,0.001000,0.001000,0.001000,0.001000,0.001000
1017.230769,0.017771,0.001000,0.001000,0.001000,0.001000,0.001000
1017.250000,0.016637,0.001000,0.001000,0.001000,0.001000,0.001000
1017.269231,0.015495,0.001000,0.001000,0.001000,0.001000,0.001000
1017.288462,0.014343,0.001000,0.001000,0.001000,0.001000,0.001000
1017.307692,0.013182,0.001000,0.001000,0.001000,0.001000,0.001000
1017.326923,0.012015,0.001000,0.001000,0.001000,0.001000,0.001000
1017.346154,0.010840,0.001000,0.001000,0.001000,0.001000,0.001000
1017.365385,0.009658,0.001000,0.001000,0.001000,0.001000,0.001000
1017.384615,0.008471,0.001000,0.001000,0.001000,0.001000,0.001000
1017.403846,0.007280,0.001000,0.001000,0.001000,0.001000,0.001000
1017.423077,0.006084,0.001000,0.001000,0.001000,0.001000,0.001000
1017.442308,0.004884,0.001000,0.001000,0.001000,0.001000,0.001000
1017.461538,0.003682,0.001000,0.001000,0.001000,0.001000,0.001000
1017.480769,0.002477,0.001000,0.001000,0.001000,0.001000,0.001000
1017.500000,0.001271,0.001000,0.001000,0.001000,0.001000,0.001000
1017.519231,0.000064,0.001000,0.001000,0.001000,0.001000,0.001000
1017.538462,-0.001143,0.001000,0.001000,0.001000,0.001000,0.001000
1017.557692,-0.002349,0.001000,0.001000,0.001000,0.001000,0.001000
1017.576923,-0.003554,0.001000,0.001000,0.001000,0.001000,0.001000
1017.596154,-0.004756,0.001000,0.001000,0.001000,0.001000,0.001000
1017.615385,-0.005956,0.001000,0.001000,0.001000,0.001000,0.001000
1017.634615,-0.007153,0.001000,0.001000,0.001000,0.001000,0.001000
1017.653846,-0.008345,0.001000,0.001000,0.001000,0.001000,0.001000
1017.673077,-0.009532,0.001000,0.001000,0.001000,0.001000,0.001000
1017.692308,-0.010714,0.001000,0.001000,0.001000,0.001000,0.001000
1017.711538,-0.011890,0.001000,0.001000,0.001000,0.001000,0.001000
1017.730769,-0.013059,0.001000,0.001000,0.001000,0.001000,0.001000
1017.750000,-0.014220,0.001000,0.001000,0.001000,0.001000,0.001000
1017.769231,-0.015373,0.001000,0.001000,0.001000,0.001000,0.001000
1017.788462,-0.016516,0.001000,0.001000,0.001000,0.001000,0.001000
1017.807692,-0.017651,0.001000,0.001000,0.001000,0.001000,0.001000
1017.826923,-0.018775,0.001000,0.001000,0.001000,0.001000,0.001000
1017.846154,-0.019888,0.001000,0.001000,0.001000,0.001000,0.001000
1017.865385,-0.020989,0.001000,0.001000,0.001000,0.001000,0.001000
1017.884615,-0.022078,0.001000,0.001000,0.001000,0.001000,0.001000
1017.903846,-0.023155,0.001000,0.001000,0.001000,0.001000,0.001000
1017.923077,-0.024217,0.001000,0.001000,0.001000,0.001000,0.001000
1017.942308,-0.025266,0.001000,0.001000,0.001000,0.001000,0.001000
1017.961538,-0.026300,0.001000,0.001000,0.001000,0.001000,0.001000
1017.980769,-0.027319,0.001000,0.001000,0.001000,0.001000,0.001000
1018.000000,-0.028322,0.001000,0.001000,0.001000,0.001000,0.001000
1018.019231,-0.029308,0.001000,0.001000,0.001000,0.001000,0.001000
1018.038462,-0.030277,0.001000,0.001000,0.001000,0.001000,0.001000
1018.057692,-0.031229,0.001000,0.001000,0.001000,0.001000,0.001000
1018.076923,-0.032162,0.001000,0.001000,0.001000,0.001000,0.001000
1018.096154,-0.033077,0.001000,0.001000,0.001000,0.001000,0.001000
1018.115385,-0.033972,0.001000,0.001000,0.001000,0.001000,0.001000
1018.134615,-0.034848,0.001000,0.001000,0.001000,0.001000,0.001000
1018.153846,-0.035703,0.001000,0.001000,0.001000,0.001000,0.001000
1018.173077,-0.036537,0.001000,0.001000,0.001000,0.001000,0.001000
1018.192308,-0.037350,0.001000,0.001000,0.001000,0.001000,0.001000
1018.211538,-0.038142,0.001000,0.001000,0.001000,0.001000,0.001000
1018.230769,-0.038911,0.001000,0.001000,0.001000,0.001000,0.001000
1018.250000,-0.039658,0.001000,0.001000,0.001000,0.001000,0.001000
1018.269231,-0.040381,0.001000,0.001000,0.001000,0.001000,0.001000
1018.288462,-0.041081,0.001000,0.001000,0.001000,0.001000,0.001000
1018.307692,-0.041757,0.001000,0.001000,0.001000,0.001000,0.001000
1018.326923,-0.042408,0.001000,0.001000,0.001000,0.001000,0.001000
1018.346154,-0.043035,0.001000,0.001000,0.001000,0.001000,0.001000
1018.365385,-0.043637,0.001000,0.001000,0.001000,0.001000,0.001000
1018.384615,-0.044214,0.001000,0.001000,0.001000,0.001000,0.001000
1018.403846,-0.044764,0.001000,0.001000,0.001000,0.001000,0.001000
1018.423077,-0.045289,0.001000,0.001000,0.001000,0.001000,0.001000
1018.442308,-0.045787,0.001000,0.001000,0.001000,0.001000,0.001000
1018.461538,-0.046259,0.001000,0.001000,0.001000,0.001000,0.001000
1018.480769,-0.046703,0.001000,0.001000,0.001000,0.001000,0.001000
1018.500000,-0.047120,0.001000,0.001000,0.001000,0.001000,0.001000
1018.519231,-0.047510,0.001000,0.001000,0.001000,0.001000,0.001000
1018.538462,-0.047873,0.001000,0.001000,0.001000,0.001000,0.001000
1018.557692,-0.048207,0.001000,0.001000,0.001000,0.001000,0.001000
1018.576923,-0.048513,0.001000,0.001000,0.001000,0.001000,0.001000
1018.596154,-0.048791,0.001000,0.001000,0.001000,0.001000,0.001000
1018.615385,-0.049041,0.001000,0.001000,0.001000,0.001000,0.001000
1018.634615,-0.049262,0.001000,0.001000,0.001000,0.001000,0.001000
1018.653846,-0.049454,0.001000,0.001000,0.001000,0.001000,0.001000
1018.673077,-0.049617,0.001000,0.001000,0.001000,0.001000,0.001000
1018.692308,-0.049752,0.001000,0.001000,0.001000,0.001000,0.001000
1018.711538,-0.049858,0.001000,0.001000,0.001000,0.001000,0.001000
1018.730769,-0.049934,0.001000,0.001000,0.001000,0.001000,0.001000
1018.750000,-0.049981,0.001000,0.001000,0.001000,0.001000,0.001000
1018.769231,-0.050000,0.001000,0.001000,0.001000,0.001000,0.001000
1018.788462,-0.049989,0.001000,0.001000,0.001000,0.001000,0.001000
1018.807692,-0.049949,0.001000,0.001000,0.001000,0.001000,0.001000
1018.826923,-0.049880,0.001000,0.001000,0.001000,0.001000,0.001000
1018.846154,-0.049782,0.001000,0.001000,0.001000,0.001000,0.001000
1018.865385,-0.049655,0.001000,0.001000,0.001000,0.001000,0.001000
1018.884615,-0.049499,0.001000,0.001000,0.001000,0.001000,0.001000
1018.903846,-0.049314,0.001000,0.001000,0.001000,0.001000,0.001000
1018.923077,-0.049100,0.001000,0.001000,0.001000,0.001000,0.001000
1018.942308,-0.048858,0.001000,0.001000,0.001000,0.001000,0.001000
1018.961538,-0.048587,0.001000,0.001000,0.001000,0.001000,0.001000
1018.980769,-0.048288,0.001000,0.001000,0.001000,0.001000,0.001000
1019.000000,-0.047961,0.001000,0.001000,0.001000,0.001000,0.001000
1019.019231,-0.047606,0.001000,0.001000,0.001000,0.001000,0.001000
1019.038462,-0.047223,0.001000,0.001000,0.001000,0.001000,0.001000
1019.057692,-0.046813,0.001000,0.001000,0.001000,0.001000,0.001000
1019.076923,-0.046375,0.001000,0.001000,0.001000,0.001000,0.001000
1019.096154,-0.045911,0.001000,0.001000,0.001000,0.001000,0.001000
1019.115385,-0.045419,0.001000,0.001000,0.001000,0.001000,0.001000
1019.134615,-0.044901,0.001000,0.001000,0.001000,0.001000,0.001000
1019.153846,-0.044357,0.001000,0.001000,0.001000,0.001000,0.001000
1019.173077,-0.043788,0.001000,0.001000,0.001000,0.001000,0.001000
1019.192308,-0.043192,0.001000,0.001000,0.001000,0.001000,0.001000
1019.211538,-0.042572,0.001000,0.001000,0.001000,0.001000,0.001000
1019.230769,-0.041926,0.001000,0.001000,0.001000,0.001000,0.001000
1019.250000,-0.041257,0.001000,0.001000,0.001000,0.001000,0.001000
1019.269231,-0.040563,0.001000,0.001000,0.001000,0.001000,0.001000
1019.288462,-0.039846,0.001000,0.001000,0.001000,0.001000,0.001000
1019.307692,-0.039105,0.001000,0.001000,0.001000,0.001000,0.001000
1019.326923,-0.038342,0.001000,0.001000,0.001000,0.001000,0.001000
1019.346154,-0.037556,0.001000,0.001000,0.001000,0.001000,0.001000
1019.365385,-0.036748,0.001000,0.001000,0.001000,0.001000,0.001000
1019.384615,-0.035919,0.001000,0.001000,0.001000,0.001000,0.001000
1019.403846,-0.035069,0.001000,0.001000,0.001000,0.001000,0.001000
1019.423077,-0.034199,0.001000,0.001000,0.001000,0.001000,0.001000
1019.442308,-0.033308,0.001000,0.001000,0.001000,0.001000,0.001000
1019.461538,-0.032399,0.001000,0.001000,0.001000,0.001000,0.001000
1019.480769,-0.031470,0.001000,0.001000,0.001000,0.001000,0.001000
1019.500000,-0.030523,0.001000,0.001000,0.001000,0.001000,0.001000
1019.519231,-0.029558,0.001000,0.001000,0.001000,0.001000,0.001000
1019.538462,-0.028576,0.001000,0.001000,0.001000,0.001000,0.001000
1019.557692,-0.027578,0.001000,0.001000,0.001000,0.001000,0.001000
1019.576923,-0.026563,0.001000,0.001000,0.001000,0.001000,0.001000
1019.596154,-0.025533,0.001000,0.001000,0.001000,0.001000,0.001000
1019.615385,-0.024488,0.001000,0.001000,0.001000,0.001000,0.001000
1019.634615,-0.023429,0.001000,0.001000,0.001000,0.001000,0.001000
1019.653846,-0.022356,0.001000,0.001000,0.001000,0.001000,0.001000
1019.673077,-0.021270,0.001000,0.001000,0.001000,0.001000,0.001000
1019.692308,-0.020172,0.001000,0.001000,0.001000,0.001000,0.001000
1019.711538,-0.019061,0.001000,0.001000,0.001000,0.001000,0.001000
1019.730769,-0.017940,0.001000,0.001000,0.001000,0.001000,0.001000
1019.750000,-0.016809,0.001000,0.001000,0.001000,0.001000,0.001000
1019.769231,-0.015667,0.001000,0.001000,0.001000,0.001000,0.001000
1019.788462,-0.014517,0.001000,0.001000,0.001000,0.001000,0.001000
1019.807692,-0.013358,0.001000,0.001000,0.001000,0.001000,0.001000
1019.826923,-0.012191,0.001000,0.001000,0.001000,0.001000,0.001000
1019.846154,-0.011017,0.001000,0.001000,0.001000,0.001000,0.001000
1019.865385,-0.009836,0.001000,0.001000,0.001000,0.001000,0.001000
1019.884615,-0.008650,0.001000,0.001000,0.001000,0.001000,0.001000
1019.903846,-0.007459,0.001000,0.001000,0.001000,0.001000,0.001000
1019.923077,-0.006264,0.001000,0.001000,0.001000,0.001000,0.001000
1019.942308,-0.005065,0.001000,0.001000,0.001000,0.001000,0.001000
1019.961538,-0.003863,0.001000,0.001000,0.001000,0.001000,0.001000
1019.980769,-0.002658,0.001000,0.001000,0.001000,0.001000,0.001000
1020.000000,-0.001452,0.001000,0.001000,0.001000,0.001000,0.001000
1020.019231,-0.000246,0.001000,0.001000,0.001000,0.001000,0.001000
1020.038462,0.000961,0.001000,0.001000,0.001000,0.001000,0.001000
1020.057692,0.002167,0.001000,0.001000,0.001000,0.001000,0.001000
1020.076923,0.003372,0.001000,0.001000,0.001000,0.001000,0.001000
1020.096154,0.004575,0.001000,0.001000,0.001000,0.001000,0.001000
1020.115385,0.005776,0.001000,0.001000,0.001000,0.001000,0.001000
1020.134615,0.006973,0.001000,0.001000,0.001000,0.001000,0.001000
1020.153846,0.008166,0.001000,0.001000,0.001000,0.001000,0.001000
1020.173077,0.009354,0.001000,0.001000,0.001000,0.001000,0.001000
1020.192308,0.010537,0.001000,0.001000,0.001000,0.001000,0.001000
1020.211538,0.011713,0.001000,0.001000,0.001000,0.001000,0.001000
1020.230769,0.012883,0.001000,0.001000,0.001000,0.001000,0.001000
1020.250000,0.014046,0.001000,0.001000,0.001000,0.001000,0.001000
1020.269231,0.015200,0.001000,0.001000,0.001000,0.001000,0.001000
1020.288462,0.016345,0.001000,0.001000,0.001000,0.001000,0.001000
1020.307692,0.017481,0.001000,0.001000,0.001000,0.001000,0.001000
1020.326923,0.018606,0.001000,0.001000,0.001000,0.001000,0.001000
1020.346154,0.019721,0.001000,0.001000,0.001000,0.001000,0.001000
1020.365385,0.020824,0.001000,0.001000,0.001000,0.001000,0.001000
1020.384615,0.021915,0.001000,0.001000,0.001000,0.001000,0.001000
1020.403846,0.022993,0.001000,0.001000,0.001000,0.001000,0.001000
1020.423077,0.024058,0.001000,0.001000,0.001000,0.001000,0.001000
1020.442308,0.025109,0.001000,0.001000,0.001000,0.001000,0.001000
1020.461538,0.026146,0.001000,0.001000,0.001000,0.001000,0.001000
1020.480769,0.027167,0.001000,0.001000,0.001000,0.001000,0.001000
1020.500000,0.028172,0.001000,0.001000,0.001000,0.001000,0.001000
1020.519231,0.029161,0.001000,0.001000,0.001000,0.001000,0.001000
1020.538462,0.030132,0.001000,0.001000,0.001000,0.001000,0.001000
1020.557692,0.031087,0.001000,0.001000,0.001000,0.001000,0.001000
1020.576923,0.032023,0.001000,0.001000,0.001000,0.001000,0.001000
1020.596154,0.032940,0.001000,0.001000,0.001000,0.001000,0.001000
1020.615385,0.033839,0.001000,0.001000,0.001000,0.001000,0.001000
1020.634615,0.034717,0.001000,0.001000,0.001000,0.001000,0.001000
1020.653846,0.035575,0.001000,0.001000,0.001000,0.001000,0.001000
1020.673077,0.036413,0.001000,0.001000,0.001000,0.001000,0.001000
1020.692308,0.037230,0.001000,0.001000,0.001000,0.001000,0.001000
1020.711538,0.038024,0.001000,0.001000,0.001000,0.001000,0.001000
1020.730769,0.038797,0.001000,0.001000,0.001000,0.001000,0.001000
1020.750000,0.039547,0.001000,0.001000,0.001000,0.001000,0.001000
1020.769231,0.040274,0.001000,0.001000,0.001000,0.001000,0.001000
1020.788462,0.040977,0.001000,0.001000,0.001000,0.001000,0.001000
1020.807692,0.041657,0.001000,0.001000,0.001000,0.001000,0.001000
1020.826923,0.042312,0.001000,0.001000,0.001000,0.001000,0.001000
1020.846154,0.042943,0.001000,0.001000,0.001000,0.001000,0.001000
1020.865385,0.043548,0.001000,0.001000,0.001000,0.001000,0.001000
1020.884615,0.044129,0.001000,0.001000,0.001000,0.001000,0.001000
1020.903846,0.044683,0.001000,0.001000,0.001000,0.001000,0.001000
1020.923077,0.045212,0.001000,0.001000,0.001000,0.001000,0.001000
1020.942308,0.045714,0.001000,0.001000,0.001000,0.001000,0.001000
1020.961538,0.046189,0.001000,0.001000,0.001000,0.001000,0.001000
1020.980769,0.046638,0.001000,0.001000,0.001000,0.001000,0.001000
1021.000000,0.047059,0.001000,0.001000,0.001000,0.001000,0.001000
1021.019231,0.047453,0.001000,0.001000,0.001000,0.001000,0.001000
1021.038462,0.047820,0.001000,0.001000,0.001000,0.001000,0.001000
1021.057692,0.048158,0.001000,0.001000,0.001000,0.001000,0.001000
1021.076923,0.048469,0.001000,0.001000,0.001000,0.001000,0.001000
1021.096154,0.048751,0.001000,0.001000,0.001000,0.001000,0.001000
1021.115385,0.049005,0.001000,0.001000,0.001000,0.001000,0.001000
1021.134615,0.049230,0.001000,0.001000,0.001000,0.001000,0.001000
1021.153846,0.049427,0.001000,0.001000,0.001000,0.001000,0.001000
1021.173077,0.049595,0.001000,0.001000,0.001000,0.001000,0.001000
1021.192308,0.049734,0.001000,0.001000,0.001000,0.001000,0.001000
1021.211538,0.049843,0.001000,0.001000,0.001000,0.001000,0.001000
1021.230769,0.049924,0.001000,0.001000,0.001000,0.001000,0.001000
1021.250000,0.049976,0.001000,0.001000,0.001000,0.001000,0.001000
1021.269231,0.049999,0.001000,0.001000,0.001000,0.001000,0.001000
1021.288462,0.049992,0.001000,0.001000,0.001000,0.001000,0.001000
1021.307692,0.049957,0.001000,0.001000,0.001000,0.001000,0.001000
1021.326923,0.049892,0.001000,0.001000,0.001000,0.001000,0.001000
1021.346154,0.049798,0.001000,0.001000,0.001000,0.001000,0.001000
1021.365385,0.049676,0.001000,0.001000,0.001000,0.001000,0.001000
1021.384615,0.049524,0.001000,0.001000,0.001000,0.001000,0.001000
1021.403846,0.049343,0.001000,0.001000,0.001000,0.001000,0.001000
1021.423077,0.049134,0.001000,0.001000,0.001000,0.001000,0.001000
1021.442308,0.048896,0.001000,0.001000,0.001000,0.001000,0.001000
1021.461538,0.048630,0.001000,0.001000,0.001000,0.001000,0.001000
1021.480769,0.048335,0.001000,0.001000,0.001000,0.001000,0.001000
1021.500000,0.048012,0.001000,0.001000,0.001000,0.001000,0.001000
1021.519231,0.047661,0.001000,0.001000,0.001000,0.001000,0.001000
1021.538462,0.047283,0.001000,0.001000,0.001000,0.001000,0.001000
1021.557692,0.046876,0.001000,0.001000,0.001000,0.001000,0.001000
1021.576923,0.046443,0.001000,0.001000,0.001000,0.001000,0.001000
1021.596154,0.045982,0.001000,0.001000,0.001000,0.001000,0.001000
1021.615385,0.045495,0.001000,0.001000,0.001000,0.001000,0.001000
1021.634615,0.044981,0.001000,0.001000,0.001000,0.001000,0.001000
1021.653846,0.044441,0.001000,0.001000,0.001000,0.001000,0.001000
1021.673077,0.043875,0.001000,0.001000,0.001000,0.001000,0.001000
1021.692308,0.043283,0.001000,0.001000,0.001000,0.001000,0.001000
1021.711538,0.042667,0.001000,0.001000,0.001000,0.001000,0.001000
1021.730769,0.042025,0.001000,0.001000,0.001000,0.001000,0.001000
1021.750000,0.041359,0.001000,0.001000,0.001000,0.001000,0.001000
1021.769231,0.040669,0.001000,0.001000,0.001000,0.001000,0.001000
1021.788462,0.039955,0.001000,0.001000,0.001000,0.001000,0.001000
1021.807692,0.039218,0.001000,0.001000,0.001000,0.001000,0.001000
1021.826923,0.038458,0.001000,0.001000,0.001000,0.001000,0.001000
1021.846154,0.037675,0.001000,0.001000,0.001000,0.001000,0.001000
1021.865385,0.036871,0.001000,0.001000,0.001000,0.001000,0.001000
1021.884615,0.036045,0.001000,0.001000,0.001000,0.001000,0.001000
1021.903846,0.035198,0.001000,0.001000,0.001000,0.001000,0.001000
1021.923077,0.034331,0.001000,0.001000,0.001000,0.001000,0.001000
1021.942308,0.033444,0.001000,0.001000,0.001000,0.001000,0.001000
1021.961538,0.032537,0.001000,0.001000,0.001000,0.001000,0.001000
1021.980769,0.031611,0.001000,0.001000,0.001000,0.001000,0.001000
1022.000000,0.030667,0.001000,0.001000,0.001000,0.001000,0.001000
1022.019231,0.029705,0.001000,0.001000,0.001000,0.001000,0.001000
1022.038462,0.028725,0.001000,0.001000,0.001000,0.001000,0.001000
1022.057692,0.027729,0.001000,0.001000,0.001000,0.001000,0.001000
1022.076923,0.026717,0.001000,0.001000,0.001000,0.001000,0.001000
1022.096154,0.025689,0.001000,0.001000,0.001000,0.001000,0.001000
1022.115385,0.024646,0.001000,0.001000,0.001000,0.001000,0.001000
1022.134615,0.023589,0.001000,0.001000,0.001000,0.001000,0.001000
1022.153846,0.022518,0.001000,0.001000,0.001000,0.001000,0.001000
1022.173077,0.021434,0.001000,0.001000,0.001000,0.001000,0.001000
1022.192308,0.020338,0.001000,0.001000,0.001000,0.001000,0.001000
1022.211538,0.019229,0.001000,0.001000,0.001000,0.001000,0.001000
1022.230769,0.018110,0.001000,0.001000,0.001000,0.001000,0.001000
1022.250000,0.016979,0.001000,0.001000,0.001000,0.001000,0.001000
1022.269231,0.015839,0.001000,0.001000,0.001000,0.001000,0.001000
1022.288462,0.014690,0.001000,0.001000,0.001000,0.001000,0.001000
1022.307692,0.013532,0.001000,0.001000,0.001000,0.001000,0.001000
1022.326923,0.012367,0.001000,0.001000,0.001000,0.001000,0.001000
1022.346154,0.011194,0.001000,0.001000,0.001000,0.001000,0.001000
1022.365385,0.010014,0.001000,0.001000,0.001000,0.001000,0.001000
1022.384615,0.008829,0.001000,0.001000,0.001000,0.001000,0.001000
1022.403846,0.007639,0.001000,0.001000,0.001000,0.001000,0.001000
1022.423077,0.006444,0.001000,0.001000,0.001000,0.001000,0.001000
1022.442308,0.005245,0.001000,0.001000,0.001000,0.001000,0.001000
1022.461538,0.004044,0.001000,0.001000,0.001000,0.001000,0.001000
1022.480769,0.002840,0.001000,0.001000,0.001000,0.001000,0.001000
1022.500000,0.001634,0.001000,0.001000,0.001000,0.001000,0.001000
1022.519231,0.000427,0.001000,0.001000,0.001000,0.001000,0.001000
1022.538462,-0.000780,0.001000,0.001000,0.001000,0.001000,0.001000
1022.557692,-0.001986,0.001000,0.001000,0.001000,0.001000,0.001000
1022.576923,-0.003191,0.001000,0.001000,0.001000,0.001000,0.001000
1022.596154,-0.004395,0.001000,0.001000,0.001000,0.001000,0.001000
1022.615385,-0.005595,0.001000,0.001000,0.001000,0.001000,0.001000
1022.634615,-0.006793,0.001000,0.001000,0.001000,0.001000,0.001000
1022.653846,-0.007987,0.001000,0.001000,0.001000,0.001000,0.001000
1022.673077,-0.009176,0.001000,0.001000,0.001000,0.001000,0.001000
1022.692308,-0.010359,0.001000,0.001000,0.001000,0.001000,0.001000
1022.711538,-0.011537,0.001000,0.001000,0.001000,0.001000,0.001000
1022.730769,-0.012708,0.001000,0.001000,0.001000,0.001000,0.001000
1022.750000,-0.013871,0.001000,0.001000,0.001000,0.001000,0.001000
1022.769231,-0.015027,0.001000,0.001000,0.001000,0.001000,0.001000
1022.788462,-0.016173,0.001000,0.001000,0.001000,0.001000,0.001000
1022.807692,-0.017310,0.001000,0.001000,0.001000,0.001000,0.001000
1022.826923,-0.018438,0.001000,0.001000,0.001000,0.001000,0.001000
1022.846154,-0.019554,0.001000,0.001000,0.001000,0.001000,0.001000
1022.865385,-0.020659,0.001000,0.001000,0.001000,0.001000,0.001000
1022.884615,-0.021752,0.001000,0.001000,0.001000,0.001000,0.001000
1022.903846,-0.022832,0.001000,0.001000,0.001000,0.001000,0.001000
1022.923077,-0.023899,0.001000,0.001000,0.001000,0.001000,0.001000
1022.942308,-0.024952,0.001000,0.001000,0.001000,0.001000,0.001000
1022.961538,-0.025991,0.001000,0.001000,0.001000,0.001000,0.001000
1022.980769,-0.027014,0.001000,0.001000,0.001000,0.001000,0.001000
1023.000000,-0.028022,0.001000,0.001000,0.001000,0.001000,0.001000
1023.019231,-0.029013,0.001000,0.001000,0.001000,0.001000,0.001000
1023.038462,-0.029987,0.001000,0.001000,0.001000,0.001000,0.001000
1023.057692,-0.030944,0.001000,0.001000,0.001000,0.001000,0.001000
1023.076923,-0.031883,0.001000,0.001000,0.001000,0.001000,0.001000
1023.096154,-0.032803,0.001000,0.001000,0.001000,0.001000,0.001000
1023.115385,-0.033705,0.001000,0.001000,0.001000,0.001000,0.001000
1023.134615,-0.034586,0.001000,0.001000,0.001000,0.001000,0.001000
1023.153846,-0.035448,0.001000,0.001000,0.001000,0.001000,0.001000
1023.173077,-0.036288,0.001000,0.001000,0.001000,0.001000,0.001000
1023.192308,-0.037108,0.001000,0.001000,0.001000,0.001000,0.001000
1023.211538,-0.037906,0.001000,0.001000,0.001000,0.001000,0.001000
1023.230769,-0.038682,0.001000,0.001000,0.001000,0.001000,0.001000
1023.250000,-0.039435,0.001000,0.001000,0.001000,0.001000,0.001000
1023.269231,-0.040166,0.001000,0.001000,0.001000,0.001000,0.001000
1023.288462,-0.040873,0.001000,0.001000,0.001000,0.001000,0.001000
1023.307692,-0.041556,0.001000,0.001000,0.001000,0.001000,0.001000
1023.326923,-0.042215,0.001000,0.001000,0.001000,0.001000,0.001000
1023.346154,-0.042849,0.001000,0.001000,0.001000,0.001000,0.001000
1023.365385,-0.043459,0.001000,0.001000,0.001000,0.001000,0.001000
1023.384615,-0.044043,0.001000,0.001000,0.001000,0.001000,0.001000
1023.403846,-0.044601,0.001000,0.001000,0.001000,0.001000,0.001000
1023.423077,-0.045134,0.001000,0.001000,0.001000,0.001000,0.001000
1023.442308,-0.045640,0.001000,0.001000,0.001000,0.001000,0.001000
1023.461538,-0.046120,0.001000,0.001000,0.001000,0.001000,0.001000
1023.480769,-0.046572,0.001000,0.001000,0.001000,0.001000,0.001000
1023.500000,-0.046998,0.001000,0.001000,0.001000,0.001000,0.001000
1023.519231,-0.047396,0.001000,0.001000,0.001000,0.001000,0.001000
1023.538462,-0.047767,0.001000,0.001000,0.001000,0.001000,0.001000
1023.557692,-0.048109,0.001000,0.001000,0.001000,0.001000,0.001000
1023.576923,-0.048424,0.001000,0.001000,0.001000,0.001000,0.001000
1023.596154,-0.048710,0.001000,0.001000,0.001000,0.001000,0.001000
1023.615385,-0.048969,0.001000,0.001000,0.001000,0.001000,0.001000
1023.634615,-0.049198,0.001000,0.001000,0.001000,0.001000,0.001000
1023.653846,-0.049399,0.001000,0.001000,0.001000,0.001000,0.001000
1023.673077,-0.049571,0.001000,0.001000,0.001000,0.001000,0.001000
1023.692308,-0.049715,0.001000,0.001000,0.001000,0.001000,0.001000
1023.711538,-0.049829,0.001000,0.001000,0.001000,0.001000,0.001000
1023.730769,-0.049914,0.001000,0.001000,0.001000,0.001000,0.001000
1023.750000,-0.049970,0.001000,0.001000,0.001000,0.001000,0.001000
1023.769231,-0.049997,0.001000,0.001000,0.001000,0.001000,0.001000
1023.788462,-0.049995,0.001000,0.001000,0.001000,0.001000,0.001000
1023.807692,-0.049964,0.001000,0.001000,0.001000,0.001000,0.001000
1023.826923,-0.049904,0.001000,0.001000,0.001000,0.001000,0.001000
1023.846154,-0.049814,0.001000,0.001000,0.001000,0.001000,0.001000
1023.865385,-0.049696,0.001000,0.001000,0.001000,0.001000,0.001000
1023.884615,-0.049549,0.001000,0.001000,0.001000,0.001000,0.001000
1023.903846,-0.049372,0.001000,0.001000,0.001000,0.001000,0.001000
1023.923077,-0.049167,0.001000,0.001000,0.001000,0.001000,0.001000
1023.942308,-0.048934,0.001000,0.001000,0.001000,0.001000,0.001000
1023.961538,-0.048672,0.001000,0.001000,0.001000,0.001000,0.001000
1023.980769,-0.048381,0.001000,0.001000,0.001000,0.001000,0.001000
1024.000000,-0.048062,0.001000,0.001000,0.001000,0.001000,0.001000
1024.019231,-0.047716,0.001000,0.001000,0.001000,0.001000,0.001000
1024.038462,-0.047341,0.001000,0.001000,0.001000,0.001000,0.001000
1024.057692,-0.046939,0.001000,0.001000,0.001000,0.001000,0.001000
1024.076923,-0.046510,0.001000,0.001000,0.001000,0.001000,0.001000
1024.096154,-0.046053,0.001000,0.001000,0.001000,0.001000,0.001000
1024.115385,-0.045570,0.001000,0.001000,0.001000,0.001000,0.001000
1024.134615,-0.045060,0.001000,0.001000,0.001000,0.001000,0.001000
1024.153846,-0.044524,0.001000,0.001000,0.001000,0.001000,0.001000
1024.173077,-0.043962,0.001000,0.001000,0.001000,0.001000,0.001000
1024.192308,-0.043374,0.001000,0.001000,0.001000,0.001000,0.001000
1024.211538,-0.042761,0.001000,0.001000,0.001000,0.001000,0.001000
1024.230769,-0.042123,0.001000,0.001000,0.001000,0.001000,0.001000
1024.250000,-0.041461,0.001000,0.001000,0.001000,0.001000,0.001000
1024.269231,-0.040774,0.001000,0.001000,0.001000,0.001000,0.001000
1024.288462,-0.040064,0.001000,0.001000,0.001000,0.001000,0.001000
1024.307692,-0.039330,0.001000,0.001000,0.001000,0.001000,0.001000
1024.326923,-0.038574,0.001000,0.001000,0.001000,0.001000,0.001000
1024.346154,-0.037795,0.001000,0.001000,0.001000,0.001000,0.001000
1024.365385,-0.036993,0.001000,0.001000,0.001000,0.001000,0.001000
1024.384615,-0.036171,0.001000,0.001000,0.001000,0.001000,0.001000
1024.403846,-0.035327,0.001000,0.001000,0.001000,0.001000,0.001000
1024.423077,-0.034463,0.001000,0.001000,0.001000,0.001000,0.001000
1024.442308,-0.033578,0.001000,0.001000,0.001000,0.001000,0.001000
1024.461538,-0.032674,0.001000,0.001000,0.001000,0.001000,0.001000
1024.480769,-0.031751,0.001000,0.001000,0.001000,0.001000,0.001000
1024.500000,-0.030810,0.001000,0.001000,0.001000,0.001000,0.001000
1024.519231,-0.029851,0.001000,0.001000,0.001000,0.001000,0.001000
1024.538462,-0.028874,0.001000,0.001000,0.001000,0.001000,0.001000
1024.557692,-0.027880,0.001000,0.001000,0.001000,0.001000,0.001000
1024.576923,-0.026870,0.001000,0.001000,0.001000,0.001000,0.001000
1024.596154,-0.025845,0.001000,0.001000,0.001000,0.001000,0.001000
1024.615385,-0.024804,0.001000,0.001000,0.001000,0.001000,0.001000
1024.634615,-0.023749,0.001000,0.001000,0.001000,0.001000,0.001000
1024.653846,-0.022680,0.001000,0.001000,0.001000,0.001000,0.001000
1024.673077,-0.021598,0.001000,0.001000,0.001000,0.001000,0.001000
1024.692308,-0.020503,0.001000,0.001000,0.001000,0.001000,0.001000
1024.711538,-0.019397,0.001000,0.001000,0.001000,0.001000,0.001000
1024.730769,-0.018279,0.001000,0.001000,0.001000,0.001000,0.001000
1024.750000,-0.017150,0.001000,0.001000,0.001000,0.001000,0.001000
1024.769231,-0.016012,0.001000,0.001000,0.001000,0.001000,0.001000
1024.788462,-0.014864,0.001000,0.001000,0.001000,0.001000,0.001000
1024.807692,-0.013707,0.001000,0.001000,0.001000,0.001000,0.001000
1024.826923,-0.012543,0.001000,0.001000,0.001000,0.001000,0.001000
1024.846154,-0.011371,0.001000,0.001000,0.001000,0.001000,0.001000
1024.865385,-0.010192,0.001000,0.001000,0.001000,0.001000,0.001000
1024.884615,-0.009008,0.001000,0.001000,0.001000,0.001000,0.001000
1024.903846,-0.007818,0.001000,0.001000,0.001000,0.001000,0.001000
1024.923077,-0.006624,0.001000,0.001000,0.001000,0.001000,0.001000
1024.942308,-0.005426,0.001000,0.001000,0.001000,0.001000,0.001000
1024.961538,-0.004225,0.001000,0.001000,0.001000,0.001000,0.001000
1024.980769,-0.003021,0.001000,0.001000,0.001000,0.001000,0.001000
1025.000000,-0.001815,0.001000,0.001000,0.001000,0.001000,0.001000
1025.019231,-0.000609,0.001000,0.001000,0.001000,0.001000,0.001000
1025.038462,0.000598,0.001000,0.001000,0.001000,0.001000,0.001000
1025.057692,0.001805,0.001000,0.001000,0.001000,0.001000,0.001000
1025.076923,0.003010,0.001000,0.001000,0.001000,0.001000,0.001000
1025.096154,0.004214,0.001000,0.001000,0.001000,0.001000,0.001000
1025.115385,0.005415,0.001000,0.001000,0.001000,0.001000,0.001000
1025.134615,0.006613,0.001000,0.001000,0.001000,0.001000,0.001000
1025.153846,0.007807,0.001000,0.001000,0.001000,0.001000,0.001000
1025.173077,0.008997,0.001000,0.001000,0.001000,0.001000,0.001000
1025.192308,0.010182,0.001000,0.001000,0.001000,0.001000,0.001000
1025.211538,0.011360,0.001000,0.001000,0.001000,0.001000,0.001000
1025.230769,0.012532,0.001000,0.001000,0.001000,0.001000,0.001000
1025.250000,0.013697,0.001000,0.001000,0.001000,0.001000,0.001000
1025.269231,0.014853,0.001000,0.001000,0.001000,0.001000,0.001000
1025.288462,0.016001,0.001000,0.001000,0.001000,0.001000,0.001000
1025.307692,0.017140,0.001000,0.001000,0.001000,0.001000,0.001000
1025.326923,0.018269,0.001000,0.001000,0.001000,0.001000,0.001000
1025.346154,0.019387,0.001000,0.001000,0.001000,0.001000,0.001000
1025.365385,0.020493,0.001000,0.001000,0.001000,0.001000,0.001000
1025.384615,0.021588,0.001000,0.001000,0.001000,0.001000,0.001000
1025.403846,0.022670,0.001000,0.001000,0.001000,0.001000,0.001000
1025.423077,0.023739,0.001000,0.001000,0.001000,0.001000,0.001000
1025.442308,0.024795,0.001000,0.001000,0.001000,0.001000,0.001000
1025.461538,0.025835,0.001000,0.001000,0.001000,0.001000,0.001000
1025.480769,0.026861,0.001000,0.001000,0.001000,0.001000,0.001000
1025.500000,0.027871,0.001000,0.001000,0.001000,0.001000,0.001000
1025.519231,0.028865,0.001000,0.001000,0.001000,0.001000,0.001000
1025.538462,0.029842,0.001000,0.001000,0.001000,0.001000,0.001000
1025.557692,0.030801,0.001000,0.001000,0.001000,0.001000,0.001000
1025.576923,0.031743,0.001000,0.001000,0.001000,0.001000,0.001000
1025.596154,0.032666,0.001000,0.001000,0.001000,0.001000,0.001000
1025.615385,0.033570,0.001000,0.001000,0.001000,0.001000,0.001000
1025.634615,0.034455,0.001000,0.001000,0.001000,0.001000,0.001000
1025.653846,0.035319,0.001000,0.001000,0.001000,0.001000,0.001000
1025.673077,0.036163,0.001000,0.001000,0.001000,0.001000,0.001000
1025.692308,0.036986,0.001000,0.001000,0.001000,0.001000,0.001000
1025.711538,0.037787,0.001000,0.001000,0.001000,0.001000,0.001000
1025.730769,0.038567,0.001000,0.001000,0.001000,0.001000,0.001000
1025.750000,0.039323,0.001000,0.001000,0.001000,0.001000,0.001000
1025.769231,0.040057,0.001000,0.001000,0.001000,0.001000,0.001000
1025.788462,0.040768,0.001000,0.001000,0.001000,0.001000,0.001000
1025.807692,0.041455,0.001000,0.001000,0.001000,0.001000,0.001000
1025.826923,0.042117,0.001000,0.001000,0.001000,0.001000,0.001000
1025.846154,0.042756,0.001000,0.001000,0.001000,0.001000,0.001000
1025.865385,0.043369,0.001000,0.001000,0.001000,0.001000,0.001000
1025.884615,0.043957,0.001000,0.001000,0.001000,0.001000,0.001000
1025.903846,0.044519,0.001000,0.001000,0.001000,0.001000,0.001000
1025.923077,0.045055,0.001000,0.001000,0.001000,0.001000,0.001000
1025.942308,0.045565,0.001000,0.001000,0.001000,0.001000,0.001000
1025.961538,0.046049,0.001000,0.001000,0.001000,0.001000,0.001000
1025.980769,0.046506,0.001000,0.001000,0.001000,0.001000,0.001000
1026.000000,0.046935,0.001000,0.001000,0.001000,0.001000,0.001000
1026.019231,0.047338,0.001000,0.001000,0.001000,0.001000,0.001000
1026.038462,0.047713,0.001000,0.001000,0.001000,0.001000,0.001000
1026.057692,0.048059,0.001000,0.001000,0.001000,0.001000,0.001000
1026.076923,0.048378,0.001000,0.001000,0.001000,0.001000,0.001000
1026.096154,0.048669,0.001000,0.001000,0.001000,0.001000,0.001000
1026.115385,0.048932,0.001000,0.001000,0.001000,0.001000,0.001000
1026.134615,0.049165,0.001000,0.001000,0.001000,0.001000,0.001000
1026.153846,0.049371,0.001000,0.001000,0.001000,0.001000,0.001000
1026.173077,0.049547,0.001000,0.001000,0.001000,0.001000,0.001000
1026.192308,0.049695,0.001000,0.001000,0.001000,0.001000,0.001000
1026.211538,0.049813,0.001000,0.001000,0.001000,0.001000,0.001000
1026.230769,0.049903,0.001000,0.001000,0.001000,0.001000,0.001000
1026.250000,0.049964,0.001000,0.001000,0.001000,0.001000,0.001000
1026.269231,0.049995,0.001000,0.001000,0.001000,0.001000,0.001000
1026.288462,0.049997,0.001000,0.001000,0.001000,0.001000,0.001000
1026.307692,0.049971,0.001000,0.001000,0.001000,0.001000,0.001000
1026.326923,0.049915,0.001000,0.001000,0.001000,0.001000,0.001000
1026.346154,0.049830,0.001000,0.001000,0.001000,0.001000,0.001000
1026.365385,0.049716,0.001000,0.001000,0.001000,0.001000,0.001000
1026.384615,0.049573,0.001000,0.001000,0.001000,0.001000,0.001000
1026.403846,0.049401,0.001000,0.001000,0.001000,0.001000,0.001000
1026.423077,0.049200,0.001000,0.001000,0.001000,0.001000,0.001000
1026.442308,0.048971,0.001000,0.001000,0.001000,0.001000,0.001000
1026.461538,0.048713,0.001000,0.001000,0.001000,0.001000,0.001000
1026.480769,0.048427,0.001000,0.001000,0.001000,0.001000,0.001000
1026.500000,0.048112,0.001000,0.001000,0.001000,0.001000,0.001000
1026.519231,0.047770,0.001000,0.001000,0.001000,0.001000,0.001000
1026.538462,0.047399,0.001000,0.001000,0.001000,0.001000,0.001000
1026.557692,0.047001,0.001000,0.001000,0.001000,0.001000,0.001000
1026.576923,0.046576,0.001000,0.001000,0.001000,0.001000,0.001000
1026.596154,0.046124,0.001000,0.001000,0.001000,0.001000,0.001000
1026.615385,0.045644,0.001000,0.001000,0.001000,0.001000,0.001000
1026.634615,0.045138,0.001000,0.001000,0.001000,0.001000,0.001000
1026.653846,0.044606,0.001000,0.001000,0.001000,0.001000,0.001000
1026.673077,0.044048,0.001000,0.001000,0.001000,0.001000,0.001000
1026.692308,0.043464,0.001000,0.001000,0.001000,0.001000,0.001000
1026.711538,0.042855,0.001000,0.001000,0.001000,0.001000,0.001000
1026.730769,0.042221,0.001000,0.001000,0.001000,0.001000,0.001000
1026.750000,0.041562,0.001000,0.001000,0.001000,0.001000,0.001000
1026.769231,0.040879,0.001000,0.001000,0.001000,0.001000,0.001000
1026.788462,0.040172,0.001000,0.001000,0.001000,0.001000,0.001000
1026.807692,0.039442,0.001000,0.001000,0.001000,0.001000,0.001000
1026.826923,0.038689,0.001000,0.001000,0.001000,0.001000,0.001000
1026.846154,0.037913,0.001000,0.001000,0.001000,0.001000,0.001000
1026.865385,0.037115,0.001000,0.001000,0.001000,0.001000,0.001000
1026.884615,0.036296,0.001000,0.001000,0.001000,0.001000,0.001000
1026.903846,0.035455,0.001000,0.001000,0.001000,0.001000,0.001000
1026.923077,0.034594,0.001000,0.001000,0.001000,0.001000,0.001000
1026.942308,0.033713,0.001000,0.001000,0.001000,0.001000,0.001000
1026.961538,0.032812,0.001000,0.001000,0.001000,0.001000,0.001000
1026.980769,0.031892,0.001000,0.001000,0.001000,0.001000,0.001000
1027.000000,0.030953,0.001000,0.001000,0.001000,0.001000,0.001000
1027.019231,0.029996,0.001000,0.001000,0.001000,0.001000,0.001000
1027.038462,0.029022,0.001000,0.001000,0.001000,0.001000,0.001000
1027.057692,0.028031,0.001000,0.001000,0.001000,0.001000,0.001000
1027.076923,0.027023,0.001000,0.001000,0.001000,0.001000,0.001000
1027.096154,0.026000,0.001000,0.001000,0.001000,0.001000,0.001000
1027.115385,0.024962,0.001000,0.001000,0.001000,0.001000,0.001000
1027.134615,0.023909,0.001000,0.001000,0.001000,0.001000,0.001000
1027.153846,0.022842,0.001000,0.001000,0.001000,0.001000,0.001000
1027.173077,0.021762,0.001000,0.001000,0.001000,0.001000,0.001000
1027.192308,0.020669,0.001000,0.001000,0.001000,0.001000,0.001000
1027.211538,0.019564,0.001000,0.001000,0.001000,0.001000,0.001000
1027.230769,0.018448,0.001000,0.001000,0.001000,0.001000,0.001000
1027.250000,0.017321,0.001000,0.001000,0.001000,0.001000,0.001000
1027.269231,0.016183,0.001000,0.001000,0.001000,0.001000,0.001000
1027.288462,0.015037,0.001000,0.001000,0.001000,0.001000,0.001000
1027.307692,0.013882,0.001000,0.001000,0.001000,0.001000,0.001000
1027.326923,0.012718,0.001000,0.001000,0.001000,0.001000,0.001000
1027.346154,0.011547,0.001000,0.001000,0.001000,0.001000,0.001000
1027.365385,0.010370,0.001000,0.001000,0.001000,0.001000,0.001000
1027.384615,0.009186,0.001000,0.001000,0.001000,0.001000,0.001000
1027.403846,0.007997,0.001000,0.001000,0.001000,0.001000,0.001000
1027.423077,0.006804,0.001000,0.001000,0.001000,0.001000,0.001000
1027.442308,0.005606,0.001000,0.001000,0.001000,0.001000,0.001000
1027.461538,0.004405,0.001000,0.001000,0.001000,0.001000,0.001000
1027.480769,0.003202,0.001000,0.001000,0.001000,0.001000,0.001000
1027.500000,0.001997,0.001000,0.001000,0.001000,0.001000,0.001000
1027.519231,0.000790,0.001000,0.001000,0.001000,0.001000,0.001000
1027.538462,-0.000416,0.001000,0.001000,0.001000,0.001000,0.001000
1027.557692,-0.001623,0.001000,0.001000,0.001000,0.001000,0.001000
1027.576923,-0.002829,0.001000,0.001000,0.001000,0.001000,0.001000
1027.596154,-0.004033,0.001000,0.001000,0.001000,0.001000,0.001000
1027.615385,-0.005234,0.001000,0.001000,0.001000,0.001000,0.001000
1027.634615,-0.006433,0.001000,0.001000,0.001000,0.001000,0.001000
1027.653846,-0.007628,0.001000,0.001000,0.001000,0.001000,0.001000
1027.673077,-0.008818,0.001000,0.001000,0.001000,0.001000,0.001000
1027.692308,-0.010004,0.001000,0.001000,0.001000,0.001000,0.001000
1027.711538,-0.011183,0.001000,0.001000,0.001000,0.001000,0.001000
1027.730769,-0.012356,0.001000,0.001000,0.001000,0.001000,0.001000
1027.750000,-0.013522,0.001000,0.001000,0.001000,0.001000,0.001000
1027.769231,-0.014680,0.001000,0.001000,0.001000,0.001000,0.001000
1027.788462,-0.015829,0.001000,0.001000,0.001000,0.001000,0.001000
1027.807692,-0.016969,0.001000,0.001000,0.001000,0.001000,0.001000
1027.826923,-0.018099,0.001000,0.001000,0.001000,0.001000,0.001000
1027.846154,-0.019219,0.001000,0.001000,0.001000,0.001000,0.001000
1027.865385,-0.020328,0.001000,0.001000,0.001000,0.001000,0.001000
1027.884615,-0.021424,0.001000,0.001000,0.001000,0.001000,0.001000
1027.903846,-0.022508,0.001000,0.001000,0.001000,0.001000,0.001000
1027.923077,-0.023579,0.001000,0.001000,0.001000,0.001000,0.001000
1027.942308,-0.024637,0.001000,0.001000,0.001000,0.001000,0.001000
1027.961538,-0.025680,0.001000,0.001000,0.001000,0.001000,0.001000
1027.980769,-0.026708,0.001000,0.001000,0.001000,0.001000,0.001000
1028.000000,-0.027720,0.001000,0.001000,0.001000,0.001000,0.001000
1028.019231,-0.028716,0.001000,0.001000,0.001000,0.001000,0.001000
1028.038462,-0.029696,0.001000,0.001000,0.001000,0.001000,0.001000
1028.057692,-0.030658,0.001000,0.001000,0.001000,0.001000,0.001000
1028.076923,-0.031603,0.001000,0.001000,0.001000,0.001000,0.001000
1028.096154,-0.032529,0.001000,0.001000,0.001000,0.001000,0.001000
1028.115385,-0.033436,0.001000,0.001000,0.001000,0.001000,0.001000
1028.134615,-0.034323,0.001000,0.001000,0.001000,0.001000,0.001000
1028.153846,-0.035191,0.001000,0.001000,0.001000,0.001000,0.001000
1028.173077,-0.036038,0.001000,0.001000,0.001000,0.001000,0.001000
1028.192308,-0.036864,0.001000,0.001000,0.001000,0.001000,0.001000
1028.211538,-0.037668,0.001000,0.001000,0.001000,0.001000,0.001000
1028.230769,-0.038451,0.001000,0.001000,0.001000,0.001000,0.001000
1028.250000,-0.039211,0.001000,0.001000,0.001000,0.001000,0.001000
1028.269231,-0.039948,0.001000,0.001000,0.001000,0.001000,0.001000
1028.288462,-0.040663,0.001000,0.001000,0.001000,0.001000,0.001000
1028.307692,-0.041353,0.001000,0.001000,0.001000,0.001000,0.001000
1028.326923,-0.042019,0.001000,0.001000,0.001000,0.001000,0.001000
1028.346154,-0.042661,0.001000,0.001000,0.001000,0.001000,0.001000
1028.365385,-0.043278,0.001000,0.001000,0.001000,0.001000,0.001000
1028.384615,-0.043870,0.001000,0.001000,0.001000,0.001000,0.001000
1028.403846,-0.044436,0.001000,0.001000,0.001000,0.001000,0.001000
1028.423077,-0.044976,0.001000,0.001000,0.001000,0.001000,0.001000
1028.442308,-0.045490,0.001000,0.001000,0.001000,0.001000,0.001000
1028.461538,-0.045978,0.001000,0.001000,0.001000,0.001000,0.001000
1028.480769,-0.046439,0.001000,0.001000,0.001000,0.001000,0.001000
1028.500000,-0.046873,0.001000,0.001000,0.001000,0.001000,0.001000
1028.519231,-0.047279,0.001000,0.001000,0.001000,0.001000,0.001000
1028.538462,-0.047658,0.001000,0.001000,0.001000,0.001000,0.001000
1028.557692,-0.048009,0.001000,0.001000,0.001000,0.001000,0.001000
1028.576923,-0.048332,0.001000,0.001000,0.001000,0.001000,0.001000
1028.596154,-0.048627,0.001000,0.001000,0.001000,0.001000,0.001000
1028.615385,-0.048894,0.001000,0.001000,0.001000,0.001000,0.001000
1028.634615,-0.049132,0.001000,0.001000,0.001000,0.001000,0.001000
1028.653846,-0.049342,0.001000,0.001000,0.001000,0.001000,0.001000
1028.673077,-0.049522,0.001000,0.001000,0.001000,0.001000,0.001000
1028.692308,-0.049674,0.001000,0.001000,0.001000,0.001000,0.001000
1028.711538,-0.049797,0.001000,0.001000,0.001000,0.001000,0.001000
1028.730769,-0.049891,0.001000,0.001000,0.001000,0.001000,0.001000
1028.750000,-0.049956,0.001000,0.001000,0.001000,0.001000,0.001000
1028.769231,-0.049992,0.001000,0.001000,0.001000,0.001000,0.001000
1028.788462,-0.049999,0.001000,0.001000,0.001000,0.001000,0.001000
1028.807692,-0.049977,0.001000,0.001000,0.001000,0.001000,0.001000
1028.826923,-0.049925,0.001000,0.001000,0.001000,0.001000,0.001000
1028.846154,-0.049844,0.001000,0.001000,0.001000,0.001000,0.001000
1028.865385,-0.049735,0.001000,0.001000,0.001000,0.001000,0.001000
1028.884615,-0.049596,0.001000,0.001000,0.001000,0.001000,0.001000
1028.903846,-0.049428,0.001000,0.001000,0.001000,0.001000,0.001000
1028.923077,-0.049232,0.001000,0.001000,0.001000,0.001000,0.001000
1028.942308,-0.049007,0.001000,0.001000,0.001000,0.001000,0.001000
1028.961538,-0.048754,0.001000,0.001000,0.001000,0.001000,0.001000
1028.980769,-0.048472,0.001000,0.001000,0.001000,0.001000,0.001000
1029.000000,-0.048161,0.001000,0.001000,0.001000,0.001000,0.001000
1029.019231,-0.047823,0.001000,0.001000,0.001000,0.001000,0.001000
1029.038462,-0.047457,0.001000,0.001000,0.001000,0.001000,0.001000
1029.057692,-0.047063,0.001000,0.001000,0.001000,0.001000,0.001000
1029.076923,-0.046642,0.001000,0.001000,0.001000,0.001000,0.001000
1029.096154,-0.046194,0.001000,0.001000,0.001000,0.001000,0.001000
1029.115385,-0.045718,0.001000,0.001000,0.001000,0.001000,0.001000
1029.134615,-0.045216,0.001000,0.001000,0.001000,0.001000,0.001000
1029.153846,-0.044688,0.001000,0.001000,0.001000,0.001000,0.001000
1029.173077,-0.044134,0.001000,0.001000,0.001000,0.001000,0.001000
1029.192308,-0.043554,0.001000,0.001000,0.001000,0.001000,0.001000
1029.211538,-0.042948,0.001000,0.001000,0.001000,0.001000,0.001000
1029.230769,-0.042318,0.001000,0.001000,0.001000,0.001000,0.001000
1029.250000,-0.041663,0.001000,0.001000,0.001000,0.001000,0.001000
1029.269231,-0.040983,0.001000,0.001000,0.001000,0.001000,0.001000
1029.288462,-0.040280,0.001000,0.001000,0.001000,0.001000,0.001000
1029.307692,-0.039553,0.001000,0.001000,0.001000,0.001000,0.001000
1029.326923,-0.038804,0.001000,0.001000,0.001000,0.001000,0.001000
1029.346154,-0.038031,0.001000,0.001000,0.001000,0.001000,0.001000
1029.365385,-0.037237,0.001000,0.001000,0.001000,0.001000,0.001000
1029.384615,-0.036421,0.001000,0.001000,0.001000,0.001000,0.001000
1029.403846,-0.035583,0.001000,0.001000,0.001000,0.001000,0.001000
1029.423077,-0.034725,0.001000,0.001000,0.001000,0.001000,0.001000
1029.442308,-0.033847,0.001000,0.001000,0.001000,0.001000,0.001000
1029.461538,-0.032948,0.001000,0.001000,0.001000,0.001000,0.001000
1029.480769,-0.032031,0.001000,0.001000,0.001000,0.001000,0.001000
1029.500000,-0.031095,0.001000,0.001000,0.001000,0.001000,0.001000
1029.519231,-0.030141,0.001000,0.001000,0.001000,0.001000,0.001000
1029.538462,-0.029169,0.001000,0.001000,0.001000,0.001000,0.001000
1029.557692,-0.028181,0.001000,0.001000,0.001000,0.001000,0.001000
1029.576923,-0.027176,0.001000,0.001000,0.001000,0.001000,0.001000
1029.596154,-0.026155,0.001000,0.001000,0.001000,0.001000,0.001000
1029.615385,-0.025119,0.001000,0.001000,0.001000,0.001000,0.001000
1029.634615,-0.024068,0.001000,0.001000,0.001000,0.001000,0.001000
1029.653846,-0.023003,0.001000,0.001000,0.001000,0.001000,0.001000
1029.673077,-0.021925,0.001000,0.001000,0.001000,0.001000,0.001000
1029.692308,-0.020834,0.001000,0.001000,0.001000,0.001000,0.001000
1029.711538,-0.019731,0.001000,0.001000,0.001000,0.001000,0.001000
1029.730769,-0.018616,0.001000,0.001000,0.001000,0.001000,0.001000
1029.750000,-0.017491,0.001000,0.001000,0.001000,0.001000,0.001000
1029.769231,-0.016355,0.001000,0.001000,0.001000,0.001000,0.001000
1029.788462,-0.015210,0.001000,0.001000,0.001000,0.001000,0.001000
1029.807692,-0.014056,0.001000,0.001000,0.001000,0.001000,0.001000
1029.826923,-0.012894,0.001000,0.001000,0.001000,0.001000,0.001000
1029.846154,-0.011724,0.001000,0.001000,0.001000,0.001000,0.001000
1029.865385,-0.010547,0.001000,0.001000,0.001000,0.001000,0.001000
1029.884615,-0.009365,0.001000,0.001000,0.001000,0.001000,0.001000
1029.903846,-0.008177,0.001000,0.001000,0.001000,0.001000,0.001000
1029.923077,-0.006984,0.001000,0.001000,0.001000,0.001000,0.001000
1029.942308,-0.005787,0.001000,0.001000,0.001000,0.001000,0.001000
1029.961538,-0.004586,0.001000,0.001000,0.001000,0.001000,0.001000
1029.980769,-0.003383,0.001000,0.001000,0.001000,0.001000,0.001000
1030.000000,0.000000,0.001000,0.001000,0.001000,0.001000,0.001000
1030.019231,0.001158,0.001000,0.001000,0.001000,0.001000,0.001000
1030.038462,0.002316,0.001000,0.001000,0.001000,0.001000,0.001000
1030.057692,0.003472,0.001000,0.001000,0.001000,0.001000,0.001000
1030.076923,0.004627,0.001000,0.001000,0.001000,0.001000,0.001000
1030.096154,0.005779,0.001000,0.001000,0.001000,0.001000,0.001000
1030.115385,0.006927,0.001000,0.001000,0.001000,0.001000,0.001000
1030.134615,0.008073,0.001000,0.001000,0.001000,0.001000,0.001000
1030.153846,0.009213,0.001000,0.001000,0.001000,0.001000,0.001000
1030.173077,0.010349,0.001000,0.001000,0.001000,0.001000,0.001000
1030.192308,0.011480,0.001000,0.001000,0.001000,0.001000,0.001000
1030.211538,0.012604,0.001000,0.001000,0.001000,0.001000,0.001000
1030.230769,0.013721,0.001000,0.001000,0.001000,0.001000,0.001000
1030.250000,0.014831,0.001000,0.001000,0.001000,0.001000,0.001000
1030.269231,0.015933,0.001000,0.001000,0.001000,0.001000,0.001000
1030.288462,0.017027,0.001000,0.001000,0.001000,0.001000,0.001000
1030.307692,0.018111,0.001000,0.001000,0.001000,0.001000,0.001000
1030.326923,0.019186,0.001000,0.001000,0.001000,0.001000,0.001000
1030.346154,0.020250,0.001000,0.001000,0.001000,0.001000,0.001000
1030.365385,0.021304,0.001000,0.001000,0.001000,0.001000,0.001000
1030.384615,0.022346,0.001000,0.001000,0.001000,0.001000,0.001000
1030.403846,0.023376,0.001000,0.001000,0.001000,0.001000,0.001000
1030.423077,0.024393,0.001000,0.001000,0.001000,0.001000,0.001000
1030.442308,0.025398,0.001000,0.001000,0.001000,0.001000,0.001000
1030.461538,0.026389,0.001000,0.001000,0.001000,0.001000,0.001000
1030.480769,0.027365,0.001000,0.001000,0.001000,0.001000,0.001000
1030.500000,0.028327,0.001000,0.001000,0.001000,0.001000,0.001000
1030.519231,0.029274,0.001000,0.001000,0.001000,0.001000,0.001000
1030.538462,0.030205,0.001000,0.001000,0.001000,0.001000,0.001000
1030.557692,0.031120,0.001000,0.001000,0.001000,0.001000,0.001000
1030.576923,0.032018,0.001000,0.001000,0.001000,0.001000,0.001000
1030.596154,0.032899,0.001000,0.001000,0.001000,0.001000,0.001000
1030.615385,0.033763,0.001000,0.001000,0.001000,0.001000,0.001000
1030.634615,0.034608,0.001000,0.001000,0.001000,0.001000,0.001000
1030.653846,0.035434,0.001000,0.001000,0.001000,0.001000,0.001000
1030.673077,0.036242,0.001000,0.001000,0.001000,0.001000,0.001000
1030.692308,0.037030,0.001000,0.001000,0.001000,0.001000,0.001000
1030.711538,0.037799,0.001000,0.001000,0.001000,0.001000,0.001000
1030.730769,0.038547,0.001000,0.001000,0.001000,0.001000,0.001000
1030.750000,0.039274,0.001000,0.001000,0.001000,0.001000,0.001000
1030.769231,0.039980,0.001000,0.001000,0.001000,0.001000,0.001000
1030.788462,0.040665,0.001000,0.001000,0.001000,0.001000,0.001000
1030.807692,0.041328,0.001000,0.001000,0.001000,0.001000,0.001000
1030.826923,0.041969,0.001000,0.001000,0.001000,0.001000,0.001000
1030.846154,0.042587,0.001000,0.001000,0.001000,0.001000,0.001000
1030.865385,0.043182,0.001000,0.001000,0.001000,0.001000,0.001000
1030.884615,0.043755,0.001000,0.001000,0.001000,0.001000,0.001000
1030.903846,0.044303,0.001000,0.001000,0.001000,0.001000,0.001000
1030.923077,0.044828,0.001000,0.001000,0.001000,0.001000,0.001000
1030.942308,0.045329,0.001000,0.001000,0.001000,0.001000,0.001000
1030.961538,0.045806,0.001000,0.001000,0.001000,0.001000,0.001000
1030.980769,0.046258,0.001000,0.001000,0.001000,0.001000,0.001000
1031.000000,0.046685,0.001000,0.001000,0.001000,0.001000,0.001000
1031.019231,0.047087,0.001000,0.001000,0.001000,0.001000,0.001000
1031.038462,0.047464,0.001000,0.001000,0.001000,0.001000,0.001000
1031.057692,0.047816,0.001000,0.001000,0.001000,0.001000,0.001000
1031.076923,0.048141,0.001000,0.001000,0.001000,0.001000,0.001000
1031.096154,0.048441,0.001000,0.001000,0.001000,0.001000,0.001000
1031.115385,0.048715,0.001000,0.001000,0.001000,0.001000,0.001000
1031.134615,0.048963,0.001000,0.001000,0.001000,0.001000,0.001000
1031.153846,0.049185,0.001000,0.001000,0.001000,0.001000,0.001000
1031.173077,0.049380,0.001000,0.001000,0.001000,0.001000,0.001000
1031.192308,0.049548,0.001000,0.001000,0.001000,0.001000,0.001000
1031.211538,0.049690,0.001000,0.001000,0.001000,0.001000,0.001000
1031.230769,0.049806,0.001000,0.001000,0.001000,0.001000,0.001000
1031.250000,0.049894,0.001000,0.001000,0.001000,0.001000,0.001000
1031.269231,0.049956,0.001000,0.001000,0.001000,0.001000,0.001000
1031.288462,0.049991,0.001000,0.001000,0.001000,0.001000,0.001000
1031.307692,0.049999,0.001000,0.001000,0.001000,0.001000,0.001000
1031.326923,0.049981,0.001000,0.001000,0.001000,0.001000,0.001000
1031.346154,0.049935,0.001000,0.001000,0.001000,0.001000,0.001000
1031.365385,0.049863,0.001000,0.001000,0.001000,0.001000,0.001000
1031.384615,0.049764,0.001000,0.001000,0.001000,0.001000,0.001000
1031.403846,0.049639,0.001000,0.001000,0.001000,0.001000,0.001000
1031.423077,0.049486,0.001000,0.001000,0.001000,0.001000,0.001000
1031.442308,0.049307,0.001000,0.001000,0.001000,0.001000,0.001000
1031.461538,0.049102,0.001000,0.001000,0.001000,0.001000,0.001000
1031.480769,0.048870,0.001000,0.001000,0.001000,0.001000,0.001000
1031.500000,0.048612,0.001000,0.001000,0.001000,0.001000,0.001000
1031.519231,0.048328,0.001000,0.001000,0.001000,0.001000,0.001000
1031.538462,0.048019,0.001000,0.001000,0.001000,0.001000,0.001000
1031.557692,0.047683,0.001000,0.001000,0.001000,0.001000,0.001000
1031.576923,0.047322,0.001000,0.001000,0.001000,0.001000,0.001000
1031.596154,0.046935,0.001000,0.001000,0.001000,0.001000,0.001000
1031.615385,0.046523,0.001000,0.001000,0.001000,0.001000,0.001000
1031.634615,0.046086,0.001000,0.001000,0.001000,0.001000,0.001000
1031.653846,0.045625,0.001000,0.001000,0.001000,0.001000,0.001000
1031.673077,0.045139,0.001000,0.001000,0.001000,0.001000,0.001000
1031.692308,0.044628,0.001000,0.001000,0.001000,0.001000,0.001000
1031.711538,0.044094,0.001000,0.001000,0.001000,0.001000,0.001000
1031.730769,0.043536,0.001000,0.001000,0.001000,0.001000,0.001000
1031.750000,0.042955,0.001000,0.001000,0.001000,0.001000,0.001000
1031.769231,0.042351,0.001000,0.001000,0.001000,0.001000,0.001000
1031.788462,0.041724,0.001000,0.001000,0.001000,0.001000,0.001000
1031.807692,0.041074,0.001000,0.001000,0.001000,0.001000,0.001000
1031.826923,0.040403,0.001000,0.001000,0.001000,0.001000,0.001000
1031.846154,0.039710,0.001000,0.001000,0.001000,0.001000,0.001000
1031.865385,0.038995,0.001000,0.001000,0.001000,0.001000,0.001000
1031.884615,0.038260,0.001000,0.001000,0.001000,0.001000,0.001000
1031.903846,0.037504,0.001000,0.001000,0.001000,0.001000,0.001000
1031.923077,0.036728,0.001000,0.001000,0.001000,0.001000,0.001000
1031.942308,0.035932,0.001000,0.001000,0.001000,0.001000,0.001000
1031.961538,0.035117,0.001000,0.001000,0.001000,0.001000,0.001000
1031.980769,0.034283,0.001000,0.001000,0.001000,0.001000,0.001000
1032.000000,0.033431,0.001000,0.001000,0.001000,0.001000,0.001000
1032.019231,0.032561,0.001000,0.001000,0.001000,0.001000,0.001000
1032.038462,0.031673,0.001000,0.001000,0.001000,0.001000,0.001000
1032.057692,0.030768,0.001000,0.001000,0.001000,0.001000,0.001000
1032.076923,0.029847,0.001000,0.001000,0.001000,0.001000,0.001000
1032.096154,0.028910,0.001000,0.001000,0.001000,0.001000,0.001000
1032.115385,0.027957,0.001000,0.001000,0.001000,0.001000,0.001000
1032.134615,0.026989,0.001000,0.001000,0.001000,0.001000,0.001000
1032.153846,0.026007,0.001000,0.001000,0.001000,0.001000,0.001000
1032.173077,0.025011,0.001000,0.001000,0.001000,0.001000,0.001000
1032.192308,0.024002,0.001000,0.001000,0.001000,0.001000,0.001000
1032.211538,0.022979,0.001000,0.001000,0.001000,0.001000,0.001000
1032.230769,0.021944,0.001000,0.001000,0.001000,0.001000,0.001000
1032.250000,0.020898,0.001000,0.001000,0.001000,0.001000,0.001000
1032.269231,0.019840,0.001000,0.001000,0.001000,0.001000,0.001000
1032.288462,0.018772,0.001000,0.001000,0.001000,0.001000,0.001000
1032.307692,0.017693,0.001000,0.001000,0.001000,0.001000,0.001000
1032.326923,0.016605,0.001000,0.001000,0.001000,0.001000,0.001000
1032.346154,0.015508,0.001000,0.001000,0.001000,0.001000,0.001000
1032.365385,0.014403,0.001000,0.001000,0.001000,0.001000,0.001000
1032.384615,0.013290,0.001000,0.001000,0.001000,0.001000,0.001000
1032.403846,0.012170,0.001000,0.001000,0.001000,0.001000,0.001000
1032.423077,0.011043,0.001000,0.001000,0.001000,0.001000,0.001000
1032.442308,0.009911,0.001000,0.001000,0.001000,0.001000,0.001000
1032.461538,0.008773,0.001000,0.001000,0.001000,0.001000,0.001000
1032.480769,0.007630,0.001000,0.001000,0.001000,0.001000,0.001000
1032.500000,0.006484,0.001000,0.001000,0.001000,0.001000,0.001000
1032.519231,0.005333,0.001000,0.001000,0.001000,0.001000,0.001000
1032.538462,0.004180,0.001000,0.001000,0.001000,0.001000,0.001000
1032.557692,0.003025,0.001000,0.001000,0.001000,0.001000,0.001000
1032.576923,0.001868,0.001000,0.001000,0.001000,0.001000,0.001000
1032.596154,0.000710,0.001000,0.001000,0.001000,0.001000,0.001000
1032.615385,-0.000448,0.001000,0.001000,0.001000,0.001000,0.001000
1032.634615,-0.001606,0.001000,0.001000,0.001000,0.001000,0.001000
1032.653846,-0.002763,0.001000,0.001000,0.001000,0.001000,0.001000
1032.673077,-0.003919,0.001000,0.001000,0.001000,0.001000,0.001000
1032.692308,-0.005072,0.001000,0.001000,0.001000,0.001000,0.001000
1032.711538,-0.006223,0.001000,0.001000,0.001000,0.001000,0.001000
1032.730769,-0.007371,0.001000,0.001000,0.001000,0.001000,0.001000
1032.750000,-0.008514,0.001000,0.001000,0.001000,0.001000,0.001000
1032.769231,-0.009653,0.001000,0.001000,0.001000,0.001000,0.001000
1032.788462,-0.010787,0.001000,0.001000,0.001000,0.001000,0.001000
1032.807692,-0.011915,0.001000,0.001000,0.001000,0.001000,0.001000
1032.826923,-0.013037,0.001000,0.001000,0.001000,0.001000,0.001000
1032.846154,-0.014151,0.001000,0.001000,0.001000,0.001000,0.001000
1032.865385,-0.015258,0.001000,0.001000,0.001000,0.001000,0.001000
1032.884615,-0.016357,0.001000,0.001000,0.001000,0.001000,0.001000
1032.903846,-0.017447,0.001000,0.001000,0.001000,0.001000,0.001000
1032.923077,-0.018528,0.001000,0.001000,0.001000,0.001000,0.001000
1032.942308,-0.019599,0.001000,0.001000,0.001000,0.001000,0.001000
1032.961538,-0.020659,0.001000,0.001000,0.001000,0.001000,0.001000
1032.980769,-0.021708,0.001000,0.001000,0.001000,0.001000,0.001000
1033.000000,-0.022746,0.001000,0.001000,0.001000,0.001000,0.001000
1033.019231,-0.023771,0.001000,0.001000,0.001000,0.001000,0.001000
1033.038462,-0.024783,0.001000,0.001000,0.001000,0.001000,0.001000
1033.057692,-0.025783,0.001000,0.001000,0.001000,0.001000,0.001000
1033.076923,-0.026768,0.001000,0.001000,0.001000,0.001000,0.001000
1033.096154,-0.027739,0.001000,0.001000,0.001000,0.001000,0.001000
1033.115385,-0.028695,0.001000,0.001000,0.001000,0.001000,0.001000
1033.134615,-0.029636,0.001000,0.001000,0.001000,0.001000,0.001000
1033.153846,-0.030561,0.001000,0.001000,0.001000,0.001000,0.001000
1033.173077,-0.031469,0.001000,0.001000,0.001000,0.001000,0.001000
1033.192308,-0.032361,0.001000,0.001000,0.001000,0.001000,0.001000
1033.211538,-0.033235,0.001000,0.001000,0.001000,0.001000,0.001000
1033.230769,-0.034092,0.001000,0.001000,0.001000,0.001000,0.001000
1033.250000,-0.034930,0.001000,0.001000,0.001000,0.001000,0.001000
1033.269231,-0.035749,0.001000,0.001000,0.001000,0.001000,0.001000
1033.288462,-0.036549,0.001000,0.001000,0.001000,0.001000,0.001000
1033.307692,-0.037330,0.001000,0.001000,0.001000,0.001000,0.001000
1033.326923,-0.038090,0.001000,0.001000,0.001000,0.001000,0.001000
1033.346154,-0.038830,0.001000,0.001000,0.001000,0.001000,0.001000
1033.365385,-0.039549,0.001000,0.001000,0.001000,0.001000,0.001000
1033.384615,-0.040247,0.001000,0.001000,0.001000,0.001000,0.001000
1033.403846,-0.040924,0.001000,0.001000,0.001000,0.001000,0.001000
1033.423077,-0.041578,0.001000,0.001000,0.001000,0.001000,0.001000
1033.442308,-0.042210,0.001000,0.001000,0.001000,0.001000,0.001000
1033.461538,-0.042820,0.001000,0.001000,0.001000,0.001000,0.001000
1033.480769,-0.043406,0.001000,0.001000,0.001000,0.001000,0.001000
1033.500000,-0.043970,0.001000,0.001000,0.001000,0.001000,0.001000
1033.519231,-0.044509,0.001000,0.001000,0.001000,0.001000,0.001000
1033.538462,-0.045025,0.001000,0.001000,0.001000,0.001000,0.001000
1033.557692,-0.045517,0.001000,0.001000,0.001000,0.001000,0.001000
1033.576923,-0.045984,0.001000,0.001000,0.001000,0.001000,0.001000
1033.596154,-0.046426,0.001000,0.001000,0.001000,0.001000,0.001000
1033.615385,-0.046844,0.001000,0.001000,0.001000,0.001000,0.001000
1033.634615,-0.047236,0.001000,0.001000,0.001000,0.001000,0.001000
1033.653846,-0.047603,0.001000,0.001000,0.001000,0.001000,0.001000
1033.673077,-0.047945,0.001000,0.001000,0.001000,0.001000,0.001000
1033.692308,-0.048260,0.001000,0.001000,0.001000,0.001000,0.001000
1033.711538,-0.048550,0.001000,0.001000,0.001000,0.001000,0.001000
1033.730769,-0.048814,0.001000,0.001000,0.001000,0.001000,0.001000
1033.750000,-0.049052,0.001000,0.001000,0.001000,0.001000,0.001000
1033.769231,-0.049263,0.001000,0.001000,0.001000,0.001000,0.001000
1033.788462,-0.049448,0.001000,0.001000,0.001000,0.001000,0.001000
1033.807692,-0.049606,0.001000,0.001000,0.001000,0.001000,0.001000
1033.826923,-0.049738,0.001000,0.001000,0.001000,0.001000,0.001000
1033.846154,-0.049843,0.001000,0.001000,0.001000,0.001000,0.001000
1033.865385,-0.049921,0.001000,0.001000,0.001000,0.001000,0.001000
1033.884615,-0.049973,0.001000,0.001000,0.001000,0.001000,0.001000
1033.903846,-0.049998,0.001000,0.001000,0.001000,0.001000,0.001000
1033.923077,-0.049995,0.001000,0.001000,0.001000,0.001000,0.001000
1033.942308,-0.049967,0.001000,0.001000,0.001000,0.001000,0.001000
1033.961538,-0.049911,0.001000,0.001000,0.001000,0.001000,0.001000
1033.980769,-0.049828,0.001000,0.001000,0.001000,0.001000,0.001000
1034.000000,-0.049719,0.001000,0.001000,0.001000,0.001000,0.001000
1034.019231,-0.049583,0.001000,0.001000,0.001000,0.001000,0.001000
1034.038462,-0.049420,0.001000,0.001000,0.001000,0.001000,0.001000
1034.057692,-0.049231,0.001000,0.001000,0.001000,0.001000,0.001000
1034.076923,-0.049016,0.001000,0.001000,0.001000,0.001000,0.001000
1034.096154,-0.048774,0.001000,0.001000,0.001000,0.001000,0.001000
1034.115385,-0.048506,0.001000,0.001000,0.001000,0.001000,0.001000
1034.134615,-0.048212,0.001000,0.001000,0.001000,0.001000,0.001000
1034.153846,-0.047892,0.001000,0.001000,0.001000,0.001000,0.001000
1034.173077,-0.047546,0.001000,0.001000,0.001000,0.001000,0.001000
1034.192308,-0.047175,0.001000,0.001000,0.001000,0.001000,0.001000
1034.211538,-0.046779,0.001000,0.001000,0.001000,0.001000,0.001000
1034.230769,-0.046357,0.001000,0.001000,0.001000,0.001000,0.001000
1034.250000,-0.045911,0.001000,0.001000,0.001000,0.001000,0.001000
1034.269231,-0.045439,0.001000,0.001000,0.001000,0.001000,0.001000
1034.288462,-0.044944,0.001000,0.001000,0.001000,0.001000,0.001000
1034.307692,-0.044424,0.001000,0.001000,0.001000,0.001000,0.001000
1034.326923,-0.043881,0.001000,0.001000,0.001000,0.001000,0.001000
1034.346154,-0.043314,0.001000,0.001000,0.001000,0.001000,0.001000
1034.365385,-0.042724,0.001000,0.001000,0.001000,0.001000,0.001000
1034.384615,-0.042111,0.001000,0.001000,0.001000,0.001000,0.001000
1034.403846,-0.041475,0.001000,0.001000,0.001000,0.001000,0.001000
1034.423077,-0.040817,0.001000,0.001000,0.001000,0.001000,0.001000
1034.442308,-0.040137,0.001000,0.001000,0.001000,0.001000,0.001000
1034.461538,-0.039436,0.001000,0.001000,0.001000,0.001000,0.001000
1034.480769,-0.038713,0.001000,0.001000,0.001000,0.001000,0.001000
1034.500000,-0.037970,0.001000,0.001000,0.001000,0.001000,0.001000
1034.519231,-0.037206,0.001000,0.001000,0.001000,0.001000,0.001000
1034.538462,-0.036422,0.001000,0.001000,0.001000,0.001000,0.001000
1034.557692,-0.035619,0.001000,0.001000,0.001000,0.001000,0.001000
1034.576923,-0.034797,0.001000,0.001000,0.001000,0.001000,0.001000
1034.596154,-0.033956,0.001000,0.001000,0.001000,0.001000,0.001000
1034.615385,-0.033096,0.001000,0.001000,0.001000,0.001000,0.001000
1034.634615,-0.032219,0.001000,0.001000,0.001000,0.001000,0.001000
1034.653846,-0.031325,0.001000,0.001000,0.001000,0.001000,0.001000
1034.673077,-0.030414,0.001000,0.001000,0.001000,0.001000,0.001000
