timestamp,ax,ay,az,gx,gy,gz
1000.000000,0.000000,0.001000,0.001000,0.001000,0.001000,0.001000
1000.019231,0.001134,0.001000,0.001000,0.001000,0.001000,0.001000
1000.038462,0.002267,0.001000,0.001000,0.001000,0.001000,0.001000
1000.057692,0.003398,0.001000,0.001000,0.001000,0.001000,0.001000
1000.076923,0.004529,0.001000,0.001000,0.001000,0.001000,0.001000
1000.096154,0.005656,0.001000,0.001000,0.001000,0.001000,0.001000
1000.115385,0.006781,0.001000,0.001000,0.001000,0.001000,0.001000
1000.134615,0.007903,0.001000,0.001000,0.001000,0.001000,0.001000
1000.153846,0.009020,0.001000,0.001000,0.001000,0.001000,0.001000
1000.173077,0.010132,0.001000,0.001000,0.001000,0.001000,0.001000
1000.192308,0.011240,0.001000,0.001000,0.001000,0.001000,0.001000
1000.211538,0.012342,0.001000,0.001000,0.001000,0.001000,0.001000
1000.230769,0.013437,0.001000,0.001000,0.001000,0.001000,0.001000
1000.250000,0.014525,0.001000,0.001000,0.001000,0.001000,0.001000
1000.269231,0.015606,0.001000,0.001000,0.001000,0.001000,0.001000
1000.288462,0.016679,0.001000,0.001000,0.001000,0.001000,0.001000
1000.307692,0.017744,0.001000,0.001000,0.001000,0.001000,0.001000
1000.326923,0.018799,0.001000,0.001000,0.001000,0.001000,0.001000
1000.346154,0.019845,0.001000,0.001000,0.001000,0.001000,0.001000
1000.365385,0.020880,0.001000,0.001000,0.001000,0.001000,0.001000
1000.384615,0.021905,0.001000,0.001000,0.001000,0.001000,0.001000
1000.403846,0.022918,0.001000,0.001000,0.001000,0.001000,0.001000
1000.423077,0.023920,0.001000,0.001000,0.001000,0.001000,0.001000
1000.442308,0.024909,0.001000,0.001000,0.001000,0.001000,0.001000
1000.461538,0.025885,0.001000,0.001000,0.001000,0.001000,0.001000
1000.480769,0.026849,0.001000,0.001000,0.001000,0.001000,0.001000
1000.500000,0.027798,0.001000,0.001000,0.001000,0.001000,0.001000
1000.519231,0.028733,0.001000,0.001000,0.001000,0.001000,0.001000
1000.538462,0.029653,0.001000,0.001000,0.001000,0.001000,0.001000
1000.557692,0.030558,0.001000,0.001000,0.001000,0.001000,0.001000
1000.576923,0.031448,0.001000,0.001000,0.001000,0.001000,0.001000
1000.596154,0.032321,0.001000,0.001000,0.001000,0.001000,0.001000
1000.615385,0.033178,0.001000,0.001000,0.001000,0.001000,0.001000
1000.634615,0.034017,0.001000,0.001000,0.001000,0.001000,0.001000
1000.653846,0.034839,0.001000,0.001000,0.001000,0.001000,0.001000
1000.673077,0.035643,0.001000,0.001000,0.001000,0.001000,0.001000
1000.692308,0.036429,0.001000,0.001000,0.001000,0.001000,0.001000
1000.711538,0.037196,0.001000,0.001000,0.001000,0.001000,0.001000
1000.730769,0.037944,0.001000,0.001000,0.001000,0.001000,0.001000
1000.750000,0.038673,0.001000,0.001000,0.001000,0.001000,0.001000
1000.769231,0.039381,0.001000,0.001000,0.001000,0.001000,0.001000
1000.788462,0.040070,0.001000,0.001000,0.001000,0.001000,0.001000
1000.807692,0.040737,0.001000,0.001000,0.001000,0.001000,0.001000
1000.826923,0.041384,0.001000,0.001000,0.001000,0.001000,0.001000
1000.846154,0.042010,0.001000,0.001000,0.001000,0.001000,0.001000
1000.865385,0.042614,0.001000,0.001000,0.001000,0.001000,0.001000
1000.884615,0.043196,0.001000,0.001000,0.001000,0.001000,0.001000
1000.903846,0.043756,0.001000,0.001000,0.001000,0.001000,0.001000
1000.923077,0.044293,0.001000,0.001000,0.001000,0.001000,0.001000
1000.942308,0.044807,0.001000,0.001000,0.001000,0.001000,0.001000
1000.961538,0.045299,0.001000,0.001000,0.001000,0.001000,0.001000
1000.980769,0.045767,0.001000,0.001000,0.001000,0.001000,0.001000
1001.000000,0.046212,0.001000,0.001000,0.001000,0.001000,0.001000
1001.019231,0.046633,0.001000,0.001000,0.001000,0.001000,0.001000
1001.038462,0.047030,0.001000,0.001000,0.001000,0.001000,0.001000
1001.057692,0.047403,0.001000,0.001000,0.001000,0.001000,0.001000
1001.076923,0.047751,0.001000,0.001000,0.001000,0.001000,0.001000
1001.096154,0.048075,0.001000,0.001000,0.001000,0.001000,0.001000
1001.115385,0.048374,0.001000,0.001000,0.001000,0.001000,0.001000
1001.134615,0.048648,0.001000,0.001000,0.001000,0.001000,0.001000
1001.153846,0.048898,0.001000,0.001000,0.001000,0.001000,0.001000
1001.173077,0.049122,0.001000,0.001000,0.001000,0.001000,0.001000
1001.192308,0.049321,0.001000,0.001000,0.001000,0.001000,0.001000
1001.211538,0.049494,0.001000,0.001000,0.001000,0.001000,0.001000
1001.230769,0.049642,0.001000,0.001000,0.001000,0.001000,0.001000
1001.250000,0.049765,0.001000,0.001000,0.001000,0.001000,0.001000
1001.269231,0.049862,0.001000,0.001000,0.001000,0.001000,0.001000
1001.288462,0.049933,0.001000,0.001000,0.001000,0.001000,0.001000
1001.307692,0.049979,0.001000,0.001000,0.001000,0.001000,0.001000
1001.326923,0.049999,0.001000,0.001000,0.001000,0.001000,0.001000
1001.346154,0.049993,0.001000,0.001000,0.001000,0.001000,0.001000
1001.365385,0.049962,0.001000,0.001000,0.001000,0.001000,0.001000
1001.384615,0.049905,0.001000,0.001000,0.001000,0.001000,0.001000
1001.403846,0.049822,0.001000,0.001000,0.001000,0.001000,0.001000
1001.423077,0.049714,0.001000,0.001000,0.001000,0.001000,0.001000
1001.442308,0.049580,0.001000,0.001000,0.001000,0.001000,0.001000
1001.461538,0.049420,0.001000,0.001000,0.001000,0.001000,0.001000
1001.480769,0.049236,0.001000,0.001000,0.001000,0.001000,0.001000
1001.500000,0.049026,0.001000,0.001000,0.001000,0.001000,0.001000
1001.519231,0.048790,0.001000,0.001000,0.001000,0.001000,0.001000
1001.538462,0.048530,0.001000,0.001000,0.001000,0.001000,0.001000
1001.557692,0.048245,0.001000,0.001000,0.001000,0.001000,0.001000
1001.576923,0.047934,0.001000,0.001000,0.001000,0.001000,0.001000
1001.596154,0.047600,0.001000,0.001000,0.001000,0.001000,0.001000
1001.615385,0.047240,0.001000,0.001000,0.001000,0.001000,0.001000
1001.634615,0.046857,0.001000,0.001000,0.001000,0.001000,0.001000
1001.653846,0.046449,0.001000,0.001000,0.001000,0.001000,0.001000
1001.673077,0.046018,0.001000,0.001000,0.001000,0.001000,0.001000
1001.692308,0.045562,0.001000,0.001000,0.001000,0.001000,0.001000
1001.711538,0.045084,0.001000,0.001000,0.001000,0.001000,0.001000
1001.730769,0.044582,0.001000,0.001000,0.001000,0.001000,0.001000
1001.750000,0.044057,0.001000,0.001000,0.001000,0.001000,0.001000
1001.769231,0.043510,0.001000,0.001000,0.001000,0.001000,0.001000
1001.788462,0.042940,0.001000,0.001000,0.001000,0.001000,0.001000
1001.807692,0.042349,0.001000,0.001000,0.001000,0.001000,0.001000
1001.826923,0.041735,0.001000,0.001000,0.001000,0.001000,0.001000
1001.846154,0.041100,0.001000,0.001000,0.001000,0.001000,0.001000
1001.865385,0.040444,0.001000,0.001000,0.001000,0.001000,0.001000
1001.884615,0.039767,0.001000,0.001000,0.001000,0.001000,0.001000
1001.903846,0.039070,0.001000,0.001000,0.001000,0.001000,0.001000
1001.923077,0.038352,0.001000,0.001000,0.001000,0.001000,0.001000
1001.942308,0.037615,0.001000,0.001000,0.001000,0.001000,0.001000
1001.961538,0.036859,0.001000,0.001000,0.001000,0.001000,0.001000
1001.980769,0.036083,0.001000,0.001000,0.001000,0.001000,0.001000
1002.000000,0.035289,0.001000,0.001000,0.001000,0.001000,0.001000
1002.019231,0.034477,0.001000,0.001000,0.001000,0.001000,0.001000
1002.038462,0.033647,0.001000,0.001000,0.001000,0.001000,0.001000
1002.057692,0.032800,0.001000,0.001000,0.001000,0.001000,0.001000
1002.076923,0.031936,0.001000,0.001000,0.001000,0.001000,0.001000
1002.096154,0.031056,0.001000,0.001000,0.001000,0.001000,0.001000
1002.115385,0.030159,0.001000,0.001000,0.001000,0.001000,0.001000
1002.134615,0.029247,0.001000,0.001000,0.001000,0.001000,0.001000
1002.153846,0.028320,0.001000,0.001000,0.001000,0.001000,0.001000
1002.173077,0.027379,0.001000,0.001000,0.001000,0.001000,0.001000
1002.192308,0.026423,0.001000,0.001000,0.001000,0.001000,0.001000
1002.211538,0.025454,0.001000,0.001000,0.001000,0.001000,0.001000
1002.230769,0.024472,0.001000,0.001000,0.001000,0.001000,0.001000
1002.250000,0.023477,0.001000,0.001000,0.001000,0.001000,0.001000
1002.269231,0.022470,0.001000,0.001000,0.001000,0.001000,0.001000
1002.288462,0.021452,0.001000,0.001000,0.001000,0.001000,0.001000
1002.307692,0.020422,0.001000,0.001000,0.001000,0.001000,0.001000
1002.326923,0.019382,0.001000,0.001000,0.001000,0.001000,0.001000
1002.346154,0.018332,0.001000,0.001000,0.001000,0.001000,0.001000
1002.365385,0.017273,0.001000,0.001000,0.001000,0.001000,0.001000
1002.384615,0.016205,0.001000,0.001000,0.001000,0.001000,0.001000
1002.403846,0.015128,0.001000,0.001000,0.001000,0.001000,0.001000
1002.423077,0.014044,0.001000,0.001000,0.001000,0.001000,0.001000
1002.442308,0.012952,0.001000,0.001000,0.001000,0.001000,0.001000
1002.461538,0.011854,0.001000,0.001000,0.001000,0.001000,0.001000
1002.480769,0.010750,0.001000,0.001000,0.001000,0.001000,0.001000
1002.500000,0.009640,0.001000,0.001000,0.001000,0.001000,0.001000
1002.519231,0.008525,0.001000,0.001000,0.001000,0.001000,0.001000
1002.538462,0.007406,0.001000,0.001000,0.001000,0.001000,0.001000
1002.557692,0.006283,0.001000,0.001000,0.001000,0.001000,0.001000
1002.576923,0.005157,0.001000,0.001000,0.001000,0.001000,0.001000
1002.596154,0.004028,0.001000,0.001000,0.001000,0.001000,0.001000
1002.615385,0.002897,0.001000,0.001000,0.001000,0.001000,0.001000
1002.634615,0.001765,0.001000,0.001000,0.001000,0.001000,0.001000
1002.653846,0.000631,0.001000,0.001000,0.001000,0.001000,0.001000
1002.673077,-0.000502,0.001000,0.001000,0.001000,0.001000,0.001000
1002.692308,-0.001636,0.001000,0.001000,0.001000,0.001000,0.001000
1002.711538,-0.002768,0.001000,0.001000,0.001000,0.001000,0.001000
1002.730769,-0.003900,0.001000,0.001000,0.001000,0.001000,0.001000
1002.750000,-0.005029,0.001000,0.001000,0.001000,0.001000,0.001000
1002.769231,-0.006155,0.001000,0.001000,0.001000,0.001000,0.001000
1002.788462,-0.007279,0.001000,0.001000,0.001000,0.001000,0.001000
1002.807692,-0.008398,0.001000,0.001000,0.001000,0.001000,0.001000
1002.826923,-0.009514,0.001000,0.001000,0.001000,0.001000,0.001000
1002.846154,-0.010624,0.001000,0.001000,0.001000,0.001000,0.001000
1002.865385,-0.011729,0.001000,0.001000,0.001000,0.001000,0.001000
1002.884615,-0.012828,0.001000,0.001000,0.001000,0.001000,0.001000
1002.903846,-0.013920,0.001000,0.001000,0.001000,0.001000,0.001000
1002.923077,-0.015005,0.001000,0.001000,0.001000,0.001000,0.001000
1002.942308,-0.016083,0.001000,0.001000,0.001000,0.001000,0.001000
1002.961538,-0.017152,0.001000,0.001000,0.001000,0.001000,0.001000
1002.980769,-0.018213,0.001000,0.001000,0.001000,0.001000,0.001000
1003.000000,-0.019264,0.001000,0.001000,0.001000,0.001000,0.001000
1003.019231,-0.020305,0.001000,0.001000,0.001000,0.001000,0.001000
1003.038462,-0.021335,0.001000,0.001000,0.001000,0.001000,0.001000
1003.057692,-0.022355,0.001000,0.001000,0.001000,0.001000,0.001000
1003.076923,-0.023363,0.001000,0.001000,0.001000,0.001000,0.001000
1003.096154,-0.024360,0.001000,0.001000,0.001000,0.001000,0.001000
1003.115385,-0.025343,0.001000,0.001000,0.001000,0.001000,0.001000
1003.134615,-0.026314,0.001000,0.001000,0.001000,0.001000,0.001000
1003.153846,-0.027271,0.001000,0.001000,0.001000,0.001000,0.001000
1003.173077,-0.028214,0.001000,0.001000,0.001000,0.001000,0.001000
1003.192308,-0.029143,0.001000,0.001000,0.001000,0.001000,0.001000
1003.211538,-0.030056,0.001000,0.001000,0.001000,0.001000,0.001000
1003.230769,-0.030955,0.001000,0.001000,0.001000,0.001000,0.001000
1003.250000,-0.031837,0.001000,0.001000,0.001000,0.001000,0.001000
1003.269231,-0.032703,0.001000,0.001000,0.001000,0.001000,0.001000
1003.288462,-0.033552,0.001000,0.001000,0.001000,0.001000,0.001000
1003.307692,-0.034384,0.001000,0.001000,0.001000,0.001000,0.001000
1003.326923,-0.035198,0.001000,0.001000,0.001000,0.001000,0.001000
1003.346154,-0.035994,0.001000,0.001000,0.001000,0.001000,0.001000
1003.365385,-0.036772,0.001000,0.001000,0.001000,0.001000,0.001000
1003.384615,-0.037530,0.001000,0.001000,0.001000,0.001000,0.001000
1003.403846,-0.038270,0.001000,0.001000,0.001000,0.001000,0.001000
1003.423077,-0.038989,0.001000,0.001000,0.001000,0.001000,0.001000
1003.442308,-0.039689,0.001000,0.001000,0.001000,0.001000,0.001000
1003.461538,-0.040368,0.001000,0.001000,0.001000,0.001000,0.001000
1003.480769,-0.041027,0.001000,0.001000,0.001000,0.001000,0.001000
1003.500000,-0.041664,0.001000,0.001000,0.001000,0.001000,0.001000
1003.519231,-0.042280,0.001000,0.001000,0.001000,0.001000,0.001000
1003.538462,-0.042874,0.001000,0.001000,0.001000,0.001000,0.001000
1003.557692,-0.043447,0.001000,0.001000,0.001000,0.001000,0.001000
1003.576923,-0.043996,0.001000,0.001000,0.001000,0.001000,0.001000
1003.596154,-0.044524,0.001000,0.001000,0.001000,0.001000,0.001000
1003.615385,-0.045028,0.001000,0.001000,0.001000,0.001000,0.001000
1003.634615,-0.045509,0.001000,0.001000,0.001000,0.001000,0.001000
1003.653846,-0.045967,0.001000,0.001000,0.001000,0.001000,0.001000
1003.673077,-0.046401,0.001000,0.001000,0.001000,0.001000,0.001000
1003.692308,-0.046812,0.001000,0.001000,0.001000,0.001000,0.001000
1003.711538,-0.047198,0.001000,0.001000,0.001000,0.001000,0.001000
1003.730769,-0.047560,0.001000,0.001000,0.001000,0.001000,0.001000
1003.750000,-0.047898,0.001000,0.001000,0.001000,0.001000,0.001000
1003.769231,-0.048211,0.001000,0.001000,0.001000,0.001000,0.001000
1003.788462,-0.048499,0.001000,0.001000,0.001000,0.001000,0.001000
1003.807692,-0.048762,0.001000,0.001000,0.001000,0.001000,0.001000
1003.826923,-0.049000,0.001000,0.001000,0.001000,0.001000,0.001000
1003.846154,-0.049213,0.001000,0.001000,0.001000,0.001000,0.001000
1003.865385,-0.049401,0.001000,0.001000,0.001000,0.001000,0.001000
1003.884615,-0.049563,0.001000,0.001000,0.001000,0.001000,0.001000
1003.903846,-0.049700,0.001000,0.001000,0.001000,0.001000,0.001000
1003.923077,-0.049811,0.001000,0.001000,0.001000,0.001000,0.001000
1003.942308,-0.049897,0.001000,0.001000,0.001000,0.001000,0.001000
1003.961538,-0.049957,0.001000,0.001000,0.001000,0.001000,0.001000
1003.980769,-0.049991,0.001000,0.001000,0.001000,0.001000,0.001000
1004.000000,-0.050000,0.001000,0.001000,0.001000,0.001000,0.001000
1004.019231,-0.049983,0.001000,0.001000,0.001000,0.001000,0.001000
1004.038462,-0.049940,0.001000,0.001000,0.001000,0.001000,0.001000
1004.057692,-0.049871,0.001000,0.001000,0.001000,0.001000,0.001000
1004.076923,-0.049777,0.001000,0.001000,0.001000,0.001000,0.001000
1004.096154,-0.049658,0.001000,0.001000,0.001000,0.001000,0.001000
1004.115385,-0.049512,0.001000,0.001000,0.001000,0.001000,0.001000
1004.134615,-0.049342,0.001000,0.001000,0.001000,0.001000,0.001000
1004.153846,-0.049146,0.001000,0.001000,0.001000,0.001000,0.001000
1004.173077,-0.048924,0.001000,0.001000,0.001000,0.001000,0.001000
1004.192308,-0.048678,0.001000,0.001000,0.001000,0.001000,0.001000
1004.211538,-0.048406,0.001000,0.001000,0.001000,0.001000,0.001000
1004.230769,-0.048110,0.001000,0.001000,0.001000,0.001000,0.001000
1004.250000,-0.047789,0.001000,0.001000,0.001000,0.001000,0.001000
1004.269231,-0.047443,0.001000,0.001000,0.001000,0.001000,0.001000
1004.288462,-0.047073,0.001000,0.001000,0.001000,0.001000,0.001000
1004.307692,-0.046679,0.001000,0.001000,0.001000,0.001000,0.001000
1004.326923,-0.046261,0.001000,0.001000,0.001000,0.001000,0.001000
1004.346154,-0.045819,0.001000,0.001000,0.001000,0.001000,0.001000
1004.365385,-0.045353,0.001000,0.001000,0.001000,0.001000,0.001000
1004.384615,-0.044864,0.001000,0.001000,0.001000,0.001000,0.001000
1004.403846,-0.044352,0.001000,0.001000,0.001000,0.001000,0.001000
1004.423077,-0.043818,0.001000,0.001000,0.001000,0.001000,0.001000
1004.442308,-0.043260,0.001000,0.001000,0.001000,0.001000,0.001000
1004.461538,-0.042681,0.001000,0.001000,0.001000,0.001000,0.001000
1004.480769,-0.042079,0.001000,0.001000,0.001000,0.001000,0.001000
1004.500000,-0.041456,0.001000,0.001000,0.001000,0.001000,0.001000
1004.519231,-0.040812,0.001000,0.001000,0.001000,0.001000,0.001000
1004.538462,-0.040147,0.001000,0.001000,0.001000,0.001000,0.001000
1004.557692,-0.039461,0.001000,0.001000,0.001000,0.001000,0.001000
1004.576923,-0.038754,0.001000,0.001000,0.001000,0.001000,0.001000
1004.596154,-0.038028,0.001000,0.001000,0.001000,0.001000,0.001000
1004.615385,-0.037282,0.001000,0.001000,0.001000,0.001000,0.001000
1004.634615,-0.036517,0.001000,0.001000,0.001000,0.001000,0.001000
1004.653846,-0.035734,0.001000,0.001000,0.001000,0.001000,0.001000
1004.673077,-0.034931,0.001000,0.001000,0.001000,0.001000,0.001000
1004.692308,-0.034111,0.001000,0.001000,0.001000,0.001000,0.001000
1004.711538,-0.033274,0.001000,0.001000,0.001000,0.001000,0.001000
1004.730769,-0.032419,0.001000,0.001000,0.001000,0.001000,0.001000
1004.750000,-0.031548,0.001000,0.001000,0.001000,0.001000,0.001000
1004.769231,-0.030660,0.001000,0.001000,0.001000,0.001000,0.001000
1004.788462,-0.029757,0.001000,0.001000,0.001000,0.001000,0.001000
1004.807692,-0.028838,0.001000,0.001000,0.001000,0.001000,0.001000
1004.826923,-0.027905,0.001000,0.001000,0.001000,0.001000,0.001000
1004.846154,-0.026957,0.001000,0.001000,0.001000,0.001000,0.001000
1004.865385,-0.025995,0.001000,0.001000,0.001000,0.001000,0.001000
1004.884615,-0.025020,0.001000,0.001000,0.001000,0.001000,0.001000
1004.903846,-0.024033,0.001000,0.001000,0.001000,0.001000,0.001000
1004.923077,-0.023032,0.001000,0.001000,0.001000,0.001000,0.001000
1004.942308,-0.022020,0.001000,0.001000,0.001000,0.001000,0.001000
1004.961538,-0.020997,0.001000,0.001000,0.001000,0.001000,0.001000
1004.980769,-0.019963,0.001000,0.001000,0.001000,0.001000,0.001000
1005.000000,-0.018918,0.001000,0.001000,0.001000,0.001000,0.001000
1005.019231,-0.017864,0.001000,0.001000,0.001000,0.001000,0.001000
1005.038462,-0.016801,0.001000,0.001000,0.001000,0.001000,0.001000
1005.057692,-0.015729,0.001000,0.001000,0.001000,0.001000,0.001000
1005.076923,-0.014649,0.001000,0.001000,0.001000,0.001000,0.001000
1005.096154,-0.013561,0.001000,0.001000,0.001000,0.001000,0.001000
1005.115385,-0.012466,0.001000,0.001000,0.001000,0.001000,0.001000
1005.134615,-0.011365,0.001000,0.001000,0.001000,0.001000,0.001000
1005.153846,-0.010259,0.001000,0.001000,0.001000,0.001000,0.001000
1005.173077,-0.009146,0.001000,0.001000,0.001000,0.001000,0.001000
1005.192308,-0.008030,0.001000,0.001000,0.001000,0.001000,0.001000
1005.211538,-0.006909,0.001000,0.001000,0.001000,0.001000,0.001000
1005.230769,-0.005784,0.001000,0.001000,0.001000,0.001000,0.001000
1005.250000,-0.004657,0.001000,0.001000,0.001000,0.001000,0.001000
1005.269231,-0.003527,0.001000,0.001000,0.001000,0.001000,0.001000
1005.288462,-0.002395,0.001000,0.001000,0.001000,0.001000,0.001000
1005.307692,-0.001262,0.001000,0.001000,0.001000,0.001000,0.001000
1005.326923,-0.000129,0.001000,0.001000,0.001000,0.001000,0.001000
1005.346154,0.001005,0.001000,0.001000,0.001000,0.001000,0.001000
1005.365385,0.002138,0.001000,0.001000,0.001000,0.001000,0.001000
1005.384615,0.003270,0.001000,0.001000,0.001000,0.001000,0.001000
1005.403846,0.004400,0.001000,0.001000,0.001000,0.001000,0.001000
1005.423077,0.005528,0.001000,0.001000,0.001000,0.001000,0.001000
1005.442308,0.006654,0.001000,0.001000,0.001000,0.001000,0.001000
1005.461538,0.007775,0.001000,0.001000,0.001000,0.001000,0.001000
1005.480769,0.008893,0.001000,0.001000,0.001000,0.001000,0.001000
1005.500000,0.010006,0.001000,0.001000,0.001000,0.001000,0.001000
1005.519231,0.011114,0.001000,0.001000,0.001000,0.001000,0.001000
1005.538462,0.012217,0.001000,0.001000,0.001000,0.001000,0.001000
1005.557692,0.013313,0.001000,0.001000,0.001000,0.001000,0.001000
1005.576923,0.014402,0.001000,0.001000,0.001000,0.001000,0.001000
1005.596154,0.015484,0.001000,0.001000,0.001000,0.001000,0.001000
1005.615385,0.016558,0.001000,0.001000,0.001000,0.001000,0.001000
1005.634615,0.017623,0.001000,0.001000,0.001000,0.001000,0.001000
1005.653846,0.018680,0.001000,0.001000,0.001000,0.001000,0.001000
1005.673077,0.019726,0.001000,0.001000,0.001000,0.001000,0.001000
1005.692308,0.020763,0.001000,0.001000,0.001000,0.001000,0.001000
1005.711538,0.021789,0.001000,0.001000,0.001000,0.001000,0.001000
1005.730769,0.022803,0.001000,0.001000,0.001000,0.001000,0.001000
1005.750000,0.023806,0.001000,0.001000,0.001000,0.001000,0.001000
1005.769231,0.024797,0.001000,0.001000,0.001000,0.001000,0.001000
1005.788462,0.025775,0.001000,0.001000,0.001000,0.001000,0.001000
1005.807692,0.026740,0.001000,0.001000,0.001000,0.001000,0.001000
1005.826923,0.027691,0.001000,0.001000,0.001000,0.001000,0.001000
1005.846154,0.028628,0.001000,0.001000,0.001000,0.001000,0.001000
1005.865385,0.029550,0.001000,0.001000,0.001000,0.001000,0.001000
1005.884615,0.030456,0.001000,0.001000,0.001000,0.001000,0.001000
1005.903846,0.031348,0.001000,0.001000,0.001000,0.001000,0.001000
1005.923077,0.032223,0.001000,0.001000,0.001000,0.001000,0.001000
1005.942308,0.033081,0.001000,0.001000,0.001000,0.001000,0.001000
1005.961538,0.033923,0.001000,0.001000,0.001000,0.001000,0.001000
1005.980769,0.034747,0.001000,0.001000,0.001000,0.001000,0.001000
1006.000000,0.035553,0.001000,0.001000,0.001000,0.001000,0.001000
1006.019231,0.036341,0.001000,0.001000,0.001000,0.001000,0.001000
1006.038462,0.037110,0.001000,0.001000,0.001000,0.001000,0.001000
1006.057692,0.037860,0.001000,0.001000,0.001000,0.001000,0.001000
1006.076923,0.038591,0.001000,0.001000,0.001000,0.001000,0.001000
1006.096154,0.039302,0.001000,0.001000,0.001000,0.001000,0.001000
1006.115385,0.039993,0.001000,0.001000,0.001000,0.001000,0.001000
1006.134615,0.040663,0.001000,0.001000,0.001000,0.001000,0.001000
1006.153846,0.041312,0.001000,0.001000,0.001000,0.001000,0.001000
1006.173077,0.041940,0.001000,0.001000,0.001000,0.001000,0.001000
1006.192308,0.042546,0.001000,0.001000,0.001000,0.001000,0.001000
1006.211538,0.043131,0.001000,0.001000,0.001000,0.001000,0.001000
1006.230769,0.043693,0.001000,0.001000,0.001000,0.001000,0.001000
1006.250000,0.044233,0.001000,0.001000,0.001000,0.001000,0.001000
1006.269231,0.044750,0.001000,0.001000,0.001000,0.001000,0.001000
1006.288462,0.045244,0.001000,0.001000,0.001000,0.001000,0.001000
1006.307692,0.045715,0.001000,0.001000,0.001000,0.001000,0.001000
1006.326923,0.046163,0.001000,0.001000,0.001000,0.001000,0.001000
1006.346154,0.046586,0.001000,0.001000,0.001000,0.001000,0.001000
1006.365385,0.046986,0.001000,0.001000,0.001000,0.001000,0.001000
1006.384615,0.047361,0.001000,0.001000,0.001000,0.001000,0.001000
1006.403846,0.047713,0.001000,0.001000,0.001000,0.001000,0.001000
1006.423077,0.048039,0.001000,0.001000,0.001000,0.001000,0.001000
1006.442308,0.048341,0.001000,0.001000,0.001000,0.001000,0.001000
1006.461538,0.048618,0.001000,0.001000,0.001000,0.001000,0.001000
1006.480769,0.048871,0.001000,0.001000,0.001000,0.001000,0.001000
1006.500000,0.049098,0.001000,0.001000,0.001000,0.001000,0.001000
1006.519231,0.049299,0.001000,0.001000,0.001000,0.001000,0.001000
1006.538462,0.049476,0.001000,0.001000,0.001000,0.001000,0.001000
1006.557692,0.049627,0.001000,0.001000,0.001000,0.001000,0.001000
1006.576923,0.049752,0.001000,0.001000,0.001000,0.001000,0.001000
1006.596154,0.049852,0.001000,0.001000,0.001000,0.001000,0.001000
1006.615385,0.049926,0.001000,0.001000,0.001000,0.001000,0.001000
1006.634615,0.049975,0.001000,0.001000,0.001000,0.001000,0.001000
1006.653846,0.049998,0.001000,0.001000,0.001000,0.001000,0.001000
1006.673077,0.049995,0.001000,0.001000,0.001000,0.001000,0.001000
1006.692308,0.049967,0.001000,0.001000,0.001000,0.001000,0.001000
1006.711538,0.049913,0.001000,0.001000,0.001000,0.001000,0.001000
1006.730769,0.049833,0.001000,0.001000,0.001000,0.001000,0.001000
1006.750000,0.049727,0.001000,0.001000,0.001000,0.001000,0.001000
1006.769231,0.049596,0.001000,0.001000,0.001000,0.001000,0.001000
1006.788462,0.049440,0.001000,0.001000,0.001000,0.001000,0.001000
1006.807692,0.049258,0.001000,0.001000,0.001000,0.001000,0.001000
1006.826923,0.049051,0.001000,0.001000,0.001000,0.001000,0.001000
1006.846154,0.048818,0.001000,0.001000,0.001000,0.001000,0.001000
1006.865385,0.048561,0.001000,0.001000,0.001000,0.001000,0.001000
1006.884615,0.048278,0.001000,0.001000,0.001000,0.001000,0.001000
1006.903846,0.047971,0.001000,0.001000,0.001000,0.001000,0.001000
1006.923077,0.047639,0.001000,0.001000,0.001000,0.001000,0.001000
1006.942308,0.047282,0.001000,0.001000,0.001000,0.001000,0.001000
1006.961538,0.046902,0.001000,0.001000,0.001000,0.001000,0.001000
1006.980769,0.046497,0.001000,0.001000,0.001000,0.001000,0.001000
1007.000000,0.046068,0.001000,0.001000,0.001000,0.001000,0.001000
1007.019231,0.045615,0.001000,0.001000,0.001000,0.001000,0.001000
1007.038462,0.045139,0.001000,0.001000,0.001000,0.001000,0.001000
1007.057692,0.044640,0.001000,0.001000,0.001000,0.001000,0.001000
1007.076923,0.044118,0.001000,0.001000,0.001000,0.001000,0.001000
1007.096154,0.043573,0.001000,0.001000,0.001000,0.001000,0.001000
1007.115385,0.043006,0.001000,0.001000,0.001000,0.001000,0.001000
1007.134615,0.042417,0.001000,0.001000,0.001000,0.001000,0.001000
1007.153846,0.041806,0.001000,0.001000,0.001000,0.001000,0.001000
1007.173077,0.041173,0.001000,0.001000,0.001000,0.001000,0.001000
1007.192308,0.040520,0.001000,0.001000,0.001000,0.001000,0.001000
1007.211538,0.039845,0.001000,0.001000,0.001000,0.001000,0.001000
1007.230769,0.039150,0.001000,0.001000,0.001000,0.001000,0.001000
1007.250000,0.038435,0.001000,0.001000,0.001000,0.001000,0.001000
1007.269231,0.037700,0.001000,0.001000,0.001000,0.001000,0.001000
1007.288462,0.036946,0.001000,0.001000,0.001000,0.001000,0.001000
1007.307692,0.036172,0.001000,0.001000,0.001000,0.001000,0.001000
1007.326923,0.035380,0.001000,0.001000,0.001000,0.001000,0.001000
1007.346154,0.034570,0.001000,0.001000,0.001000,0.001000,0.001000
1007.365385,0.033742,0.001000,0.001000,0.001000,0.001000,0.001000
1007.384615,0.032897,0.001000,0.001000,0.001000,0.001000,0.001000
1007.403846,0.032035,0.001000,0.001000,0.001000,0.001000,0.001000
1007.423077,0.031156,0.001000,0.001000,0.001000,0.001000,0.001000
1007.442308,0.030262,0.001000,0.001000,0.001000,0.001000,0.001000
1007.461538,0.029352,0.001000,0.001000,0.001000,0.001000,0.001000
1007.480769,0.028426,0.001000,0.001000,0.001000,0.001000,0.001000
1007.500000,0.027487,0.001000,0.001000,0.001000,0.001000,0.001000
1007.519231,0.026533,0.001000,0.001000,0.001000,0.001000,0.001000
1007.538462,0.025565,0.001000,0.001000,0.001000,0.001000,0.001000
1007.557692,0.024584,0.001000,0.001000,0.001000,0.001000,0.001000
1007.576923,0.023591,0.001000,0.001000,0.001000,0.001000,0.001000
1007.596154,0.022585,0.001000,0.001000,0.001000,0.001000,0.001000
1007.615385,0.021568,0.001000,0.001000,0.001000,0.001000,0.001000
1007.634615,0.020540,0.001000,0.001000,0.001000,0.001000,0.001000
1007.653846,0.019501,0.001000,0.001000,0.001000,0.001000,0.001000
1007.673077,0.018452,0.001000,0.001000,0.001000,0.001000,0.001000
1007.692308,0.017394,0.001000,0.001000,0.001000,0.001000,0.001000
1007.711538,0.016327,0.001000,0.001000,0.001000,0.001000,0.001000
1007.730769,0.015251,0.001000,0.001000,0.001000,0.001000,0.001000
1007.750000,0.014167,0.001000,0.001000,0.001000,0.001000,0.001000
1007.769231,0.013077,0.001000,0.001000,0.001000,0.001000,0.001000
1007.788462,0.011979,0.001000,0.001000,0.001000,0.001000,0.001000
1007.807692,0.010876,0.001000,0.001000,0.001000,0.001000,0.001000
1007.826923,0.009766,0.001000,0.001000,0.001000,0.001000,0.001000
1007.846154,0.008652,0.001000,0.001000,0.001000,0.001000,0.001000
1007.865385,0.007533,0.001000,0.001000,0.001000,0.001000,0.001000
1007.884615,0.006411,0.001000,0.001000,0.001000,0.001000,0.001000
1007.903846,0.005285,0.001000,0.001000,0.001000,0.001000,0.001000
1007.923077,0.004156,0.001000,0.001000,0.001000,0.001000,0.001000
1007.942308,0.003026,0.001000,0.001000,0.001000,0.001000,0.001000
1007.961538,0.001893,0.001000,0.001000,0.001000,0.001000,0.001000
1007.980769,0.000760,0.001000,0.001000,0.001000,0.001000,0.001000
1008.000000,-0.000374,0.001000,0.001000,0.001000,0.001000,0.001000
1008.019231,-0.001507,0.001000,0.001000,0.001000,0.001000,0.001000
1008.038462,-0.002640,0.001000,0.001000,0.001000,0.001000,0.001000
1008.057692,-0.003771,0.001000,0.001000,0.001000,0.001000,0.001000
1008.076923,-0.004901,0.001000,0.001000,0.001000,0.001000,0.001000
1008.096154,-0.006027,0.001000,0.001000,0.001000,0.001000,0.001000
1008.115385,-0.007151,0.001000,0.001000,0.001000,0.001000,0.001000
1008.134615,-0.008271,0.001000,0.001000,0.001000,0.001000,0.001000
1008.153846,-0.009387,0.001000,0.001000,0.001000,0.001000,0.001000
1008.173077,-0.010498,0.001000,0.001000,0.001000,0.001000,0.001000
1008.192308,-0.011604,0.001000,0.001000,0.001000,0.001000,0.001000
1008.211538,-0.012703,0.001000,0.001000,0.001000,0.001000,0.001000
1008.230769,-0.013797,0.001000,0.001000,0.001000,0.001000,0.001000
1008.250000,-0.014883,0.001000,0.001000,0.001000,0.001000,0.001000
1008.269231,-0.015961,0.001000,0.001000,0.001000,0.001000,0.001000
1008.288462,-0.017031,0.001000,0.001000,0.001000,0.001000,0.001000
1008.307692,-0.018093,0.001000,0.001000,0.001000,0.001000,0.001000
1008.326923,-0.019145,0.001000,0.001000,0.001000,0.001000,0.001000
1008.346154,-0.020187,0.001000,0.001000,0.001000,0.001000,0.001000
1008.365385,-0.021219,0.001000,0.001000,0.001000,0.001000,0.001000
1008.384615,-0.022240,0.001000,0.001000,0.001000,0.001000,0.001000
1008.403846,-0.023249,0.001000,0.001000,0.001000,0.001000,0.001000
1008.423077,-0.024247,0.001000,0.001000,0.001000,0.001000,0.001000
1008.442308,-0.025232,0.001000,0.001000,0.001000,0.001000,0.001000
1008.461538,-0.026204,0.001000,0.001000,0.001000,0.001000,0.001000
1008.480769,-0.027163,0.001000,0.001000,0.001000,0.001000,0.001000
1008.500000,-0.028108,0.001000,0.001000,0.001000,0.001000,0.001000
1008.519231,-0.029038,0.001000,0.001000,0.001000,0.001000,0.001000
1008.538462,-0.029953,0.001000,0.001000,0.001000,0.001000,0.001000
1008.557692,-0.030853,0.001000,0.001000,0.001000,0.001000,0.001000
1008.576923,-0.031737,0.001000,0.001000,0.001000,0.001000,0.001000
1008.596154,-0.032605,0.001000,0.001000,0.001000,0.001000,0.001000
1008.615385,-0.033456,0.001000,0.001000,0.001000,0.001000,0.001000
1008.634615,-0.034290,0.001000,0.001000,0.001000,0.001000,0.001000
1008.653846,-0.035106,0.001000,0.001000,0.001000,0.001000,0.001000
1008.673077,-0.035904,0.001000,0.001000,0.001000,0.001000,0.001000
1008.692308,-0.036684,0.001000,0.001000,0.001000,0.001000,0.001000
1008.711538,-0.037445,0.001000,0.001000,0.001000,0.001000,0.001000
1008.730769,-0.038187,0.001000,0.001000,0.001000,0.001000,0.001000
1008.750000,-0.038909,0.001000,0.001000,0.001000,0.001000,0.001000
1008.769231,-0.039610,0.001000,0.001000,0.001000,0.001000,0.001000
1008.788462,-0.040292,0.001000,0.001000,0.001000,0.001000,0.001000
1008.807692,-0.040953,0.001000,0.001000,0.001000,0.001000,0.001000
1008.826923,-0.041593,0.001000,0.001000,0.001000,0.001000,0.001000
1008.846154,-0.042211,0.001000,0.001000,0.001000,0.001000,0.001000
1008.865385,-0.042808,0.001000,0.001000,0.001000,0.001000,0.001000
1008.884615,-0.043383,0.001000,0.001000,0.001000,0.001000,0.001000
1008.903846,-0.043935,0.001000,0.001000,0.001000,0.001000,0.001000
1008.923077,-0.044465,0.001000,0.001000,0.001000,0.001000,0.001000
1008.942308,-0.044972,0.001000,0.001000,0.001000,0.001000,0.001000
1008.961538,-0.045456,0.001000,0.001000,0.001000,0.001000,0.001000
1008.980769,-0.045916,0.001000,0.001000,0.001000,0.001000,0.001000
1009.000000,-0.046353,0.001000,0.001000,0.001000,0.001000,0.001000
1009.019231,-0.046766,0.001000,0.001000,0.001000,0.001000,0.001000
1009.038462,-0.047155,0.001000,0.001000,0.001000,0.001000,0.001000
1009.057692,-0.047520,0.001000,0.001000,0.001000,0.001000,0.001000
1009.076923,-0.047860,0.001000,0.001000,0.001000,0.001000,0.001000
1009.096154,-0.048176,0.001000,0.001000,0.001000,0.001000,0.001000
1009.115385,-0.048467,0.001000,0.001000,0.001000,0.001000,0.001000
1009.134615,-0.048733,0.001000,0.001000,0.001000,0.001000,0.001000
1009.153846,-0.048974,0.001000,0.001000,0.001000,0.001000,0.001000
1009.173077,-0.049190,0.001000,0.001000,0.001000,0.001000,0.001000
1009.192308,-0.049381,0.001000,0.001000,0.001000,0.001000,0.001000
1009.211538,-0.049546,0.001000,0.001000,0.001000,0.001000,0.001000
1009.230769,-0.049686,0.001000,0.001000,0.001000,0.001000,0.001000
1009.250000,-0.049800,0.001000,0.001000,0.001000,0.001000,0.001000
1009.269231,-0.049888,0.001000,0.001000,0.001000,0.001000,0.001000
1009.288462,-0.049951,0.001000,0.001000,0.001000,0.001000,0.001000
1009.307692,-0.049988,0.001000,0.001000,0.001000,0.001000,0.001000
1009.326923,-0.050000,0.001000,0.001000,0.001000,0.001000,0.001000
1009.346154,-0.049986,0.001000,0.001000,0.001000,0.001000,0.001000
1009.365385,-0.049946,0.001000,0.001000,0.001000,0.001000,0.001000
1009.384615,-0.049880,0.001000,0.001000,0.001000,0.001000,0.001000
1009.403846,-0.049789,0.001000,0.001000,0.001000,0.001000,0.001000
1009.423077,-0.049672,0.001000,0.001000,0.001000,0.001000,0.001000
1009.442308,-0.049530,0.001000,0.001000,0.001000,0.001000,0.001000
1009.461538,-0.049362,0.001000,0.001000,0.001000,0.001000,0.001000
1009.480769,-0.049169,0.001000,0.001000,0.001000,0.001000,0.001000
1009.500000,-0.048951,0.001000,0.001000,0.001000,0.001000,0.001000
1009.519231,-0.048707,0.001000,0.001000,0.001000,0.001000,0.001000
1009.538462,-0.048439,0.001000,0.001000,0.001000,0.001000,0.001000
1009.557692,-0.048145,0.001000,0.001000,0.001000,0.001000,0.001000
1009.576923,-0.047827,0.001000,0.001000,0.001000,0.001000,0.001000
1009.596154,-0.047484,0.001000,0.001000,0.001000,0.001000,0.001000
1009.615385,-0.047117,0.001000,0.001000,0.001000,0.001000,0.001000
1009.634615,-0.046725,0.001000,0.001000,0.001000,0.001000,0.001000
1009.653846,-0.046310,0.001000,0.001000,0.001000,0.001000,0.001000
1009.673077,-0.045870,0.001000,0.001000,0.001000,0.001000,0.001000
1009.692308,-0.045407,0.001000,0.001000,0.001000,0.001000,0.001000
1009.711538,-0.044921,0.001000,0.001000,0.001000,0.001000,0.001000
1009.730769,-0.044412,0.001000,0.001000,0.001000,0.001000,0.001000
1009.750000,-0.043880,0.001000,0.001000,0.001000,0.001000,0.001000
1009.769231,-0.043325,0.001000,0.001000,0.001000,0.001000,0.001000
1009.788462,-0.042748,0.001000,0.001000,0.001000,0.001000,0.001000
1009.807692,-0.042149,0.001000,0.001000,0.001000,0.001000,0.001000
1009.826923,-0.041528,0.001000,0.001000,0.001000,0.001000,0.001000
1009.846154,-0.040886,0.001000,0.001000,0.001000,0.001000,0.001000
1009.865385,-0.040223,0.001000,0.001000,0.001000,0.001000,0.001000
1009.884615,-0.039539,0.001000,0.001000,0.001000,0.001000,0.001000
1009.903846,-0.038835,0.001000,0.001000,0.001000,0.001000,0.001000
1009.923077,-0.038111,0.001000,0.001000,0.001000,0.001000,0.001000
1009.942308,-0.037368,0.001000,0.001000,0.001000,0.001000,0.001000
1009.961538,-0.036605,0.001000,0.001000,0.001000,0.001000,0.001000
1009.980769,-0.035824,0.001000,0.001000,0.001000,0.001000,0.001000
1010.000000,-0.035023,0.001000,0.001000,0.001000,0.001000,0.001000
1010.019231,-0.034205,0.001000,0.001000,0.001000,0.001000,0.001000
1010.038462,-0.033370,0.001000,0.001000,0.001000,0.001000,0.001000
1010.057692,-0.032517,0.001000,0.001000,0.001000,0.001000,0.001000
1010.076923,-0.031648,0.001000,0.001000,0.001000,0.001000,0.001000
1010.096154,-0.030762,0.001000,0.001000,0.001000,0.001000,0.001000
1010.115385,-0.029860,0.001000,0.001000,0.001000,0.001000,0.001000
1010.134615,-0.028943,0.001000,0.001000,0.001000,0.001000,0.001000
1010.153846,-0.028012,0.001000,0.001000,0.001000,0.001000,0.001000
1010.173077,-0.027065,0.001000,0.001000,0.001000,0.001000,0.001000
1010.192308,-0.026105,0.001000,0.001000,0.001000,0.001000,0.001000
1010.211538,-0.025132,0.001000,0.001000,0.001000,0.001000,0.001000
1010.230769,-0.024145,0.001000,0.001000,0.001000,0.001000,0.001000
1010.250000,-0.023146,0.001000,0.001000,0.001000,0.001000,0.001000
1010.269231,-0.022136,0.001000,0.001000,0.001000,0.001000,0.001000
1010.288462,-0.021114,0.001000,0.001000,0.001000,0.001000,0.001000
1010.307692,-0.020081,0.001000,0.001000,0.001000,0.001000,0.001000
1010.326923,-0.019037,0.001000,0.001000,0.001000,0.001000,0.001000
1010.346154,-0.017984,0.001000,0.001000,0.001000,0.001000,0.001000
1010.365385,-0.016922,0.001000,0.001000,0.001000,0.001000,0.001000
1010.384615,-0.015851,0.001000,0.001000,0.001000,0.001000,0.001000
1010.403846,-0.014772,0.001000,0.001000,0.001000,0.001000,0.001000
1010.423077,-0.013685,0.001000,0.001000,0.001000,0.001000,0.001000
1010.442308,-0.012591,0.001000,0.001000,0.001000,0.001000,0.001000
1010.461538,-0.011491,0.001000,0.001000,0.001000,0.001000,0.001000
1010.480769,-0.010385,0.001000,0.001000,0.001000,0.001000,0.001000
1010.500000,-0.009273,0.001000,0.001000,0.001000,0.001000,0.001000
1010.519231,-0.008157,0.001000,0.001000,0.001000,0.001000,0.001000
1010.538462,-0.007036,0.001000,0.001000,0.001000,0.001000,0.001000
1010.557692,-0.005912,0.001000,0.001000,0.001000,0.001000,0.001000
1010.576923,-0.004785,0.001000,0.001000,0.001000,0.001000,0.001000
1010.596154,-0.003655,0.001000,0.001000,0.001000,0.001000,0.001000
1010.615385,-0.002524,0.001000,0.001000,0.001000,0.001000,0.001000
1010.634615,-0.001391,0.001000,0.001000,0.001000,0.001000,0.001000
1010.653846,-0.000258,0.001000,0.001000,0.001000,0.001000,0.001000
1010.673077,0.000876,0.001000,0.001000,0.001000,0.001000,0.001000
1010.692308,0.002009,0.001000,0.001000,0.001000,0.001000,0.001000
1010.711538,0.003141,0.001000,0.001000,0.001000,0.001000,0.001000
1010.730769,0.004272,0.001000,0.001000,0.001000,0.001000,0.001000
1010.750000,0.005400,0.001000,0.001000,0.001000,0.001000,0.001000
1010.769231,0.006526,0.001000,0.001000,0.001000,0.001000,0.001000
1010.788462,0.007648,0.001000,0.001000,0.001000,0.001000,0.001000
1010.807692,0.008766,0.001000,0.001000,0.001000,0.001000,0.001000
1010.826923,0.009880,0.001000,0.001000,0.001000,0.001000,0.001000
1010.846154,0.010989,0.001000,0.001000,0.001000,0.001000,0.001000
1010.865385,0.012092,0.001000,0.001000,0.001000,0.001000,0.001000
1010.884615,0.013189,0.001000,0.001000,0.001000,0.001000,0.001000
1010.903846,0.014279,0.001000,0.001000,0.001000,0.001000,0.001000
1010.923077,0.015362,0.001000,0.001000,0.001000,0.001000,0.001000
1010.942308,0.016436,0.001000,0.001000,0.001000,0.001000,0.001000
1010.961538,0.017503,0.001000,0.001000,0.001000,0.001000,0.001000
1010.980769,0.018560,0.001000,0.001000,0.001000,0.001000,0.001000
1011.000000,0.019608,0.001000,0.001000,0.001000,0.001000,0.001000
1011.019231,0.020646,0.001000,0.001000,0.001000,0.001000,0.001000
1011.038462,0.021673,0.001000,0.001000,0.001000,0.001000,0.001000
1011.057692,0.022689,0.001000,0.001000,0.001000,0.001000,0.001000
1011.076923,0.023693,0.001000,0.001000,0.001000,0.001000,0.001000
1011.096154,0.024685,0.001000,0.001000,0.001000,0.001000,0.001000
1011.115385,0.025665,0.001000,0.001000,0.001000,0.001000,0.001000
1011.134615,0.026631,0.001000,0.001000,0.001000,0.001000,0.001000
1011.153846,0.027584,0.001000,0.001000,0.001000,0.001000,0.001000
1011.173077,0.028522,0.001000,0.001000,0.001000,0.001000,0.001000
1011.192308,0.029446,0.001000,0.001000,0.001000,0.001000,0.001000
1011.211538,0.030354,0.001000,0.001000,0.001000,0.001000,0.001000
1011.230769,0.031247,0.001000,0.001000,0.001000,0.001000,0.001000
1011.250000,0.032124,0.001000,0.001000,0.001000,0.001000,0.001000
1011.269231,0.032985,0.001000,0.001000,0.001000,0.001000,0.001000
1011.288462,0.033828,0.001000,0.001000,0.001000,0.001000,0.001000
1011.307692,0.034654,0.001000,0.001000,0.001000,0.001000,0.001000
1011.326923,0.035462,0.001000,0.001000,0.001000,0.001000,0.001000
1011.346154,0.036252,0.001000,0.001000,0.001000,0.001000,0.001000
1011.365385,0.037024,0.001000,0.001000,0.001000,0.001000,0.001000
1011.384615,0.037776,0.001000,0.001000,0.001000,0.001000,0.001000
1011.403846,0.038509,0.001000,0.001000,0.001000,0.001000,0.001000
1011.423077,0.039222,0.001000,0.001000,0.001000,0.001000,0.001000
1011.442308,0.039915,0.001000,0.001000,0.001000,0.001000,0.001000
1011.461538,0.040588,0.001000,0.001000,0.001000,0.001000,0.001000
1011.480769,0.041239,0.001000,0.001000,0.001000,0.001000,0.001000
1011.500000,0.041870,0.001000,0.001000,0.001000,0.001000,0.001000
1011.519231,0.042478,0.001000,0.001000,0.001000,0.001000,0.001000
1011.538462,0.043065,0.001000,0.001000,0.001000,0.001000,0.001000
1011.557692,0.043630,0.001000,0.001000,0.001000,0.001000,0.001000
1011.576923,0.044173,0.001000,0.001000,0.001000,0.001000,0.001000
1011.596154,0.044693,0.001000,0.001000,0.001000,0.001000,0.001000
1011.615385,0.045189,0.001000,0.001000,0.001000,0.001000,0.001000
1011.634615,0.045663,0.001000,0.001000,0.001000,0.001000,0.001000
1011.653846,0.046113,0.001000,0.001000,0.001000,0.001000,0.001000
1011.673077,0.046539,0.001000,0.001000,0.001000,0.001000,0.001000
1011.692308,0.046942,0.001000,0.001000,0.001000,0.001000,0.001000
1011.711538,0.047320,0.001000,0.001000,0.001000,0.001000,0.001000
1011.730769,0.047674,0.001000,0.001000,0.001000,0.001000,0.001000
1011.750000,0.048003,0.001000,0.001000,0.001000,0.001000,0.001000
1011.769231,0.048308,0.001000,0.001000,0.001000,0.001000,0.001000
1011.788462,0.048588,0.001000,0.001000,0.001000,0.001000,0.001000
1011.807692,0.048843,0.001000,0.001000,0.001000,0.001000,0.001000
1011.826923,0.049073,0.001000,0.001000,0.001000,0.001000,0.001000
1011.846154,0.049278,0.001000,0.001000,0.001000,0.001000,0.001000
1011.865385,0.049457,0.001000,0.001000,0.001000,0.001000,0.001000
1011.884615,0.049611,0.001000,0.001000,0.001000,0.001000,0.001000
1011.903846,0.049739,0.001000,0.001000,0.001000,0.001000,0.001000
1011.923077,0.049842,0.001000,0.001000,0.001000,0.001000,0.001000
1011.942308,0.049919,0.001000,0.001000,0.001000,0.001000,0.001000
1011.961538,0.049971,0.001000,0.001000,0.001000,0.001000,0.001000
1011.980769,0.049997,0.001000,0.001000,0.001000,0.001000,0.001000
1012.000000,0.049997,0.001000,0.001000,0.001000,0.001000,0.001000
1012.019231,0.049971,0.001000,0.001000,0.001000,0.001000,0.001000
1012.038462,0.049920,0.001000,0.001000,0.001000,0.001000,0.001000
1012.057692,0.049843,0.001000,0.001000,0.001000,0.001000,0.001000
1012.076923,0.049741,0.001000,0.001000,0.001000,0.001000,0.001000
1012.096154,0.049613,0.001000,0.001000,0.001000,0.001000,0.001000
1012.115385,0.049459,0.001000,0.001000,0.001000,0.001000,0.001000
1012.134615,0.049280,0.001000,0.001000,0.001000,0.001000,0.001000
1012.153846,0.049075,0.001000,0.001000,0.001000,0.001000,0.001000
1012.173077,0.048846,0.001000,0.001000,0.001000,0.001000,0.001000
1012.192308,0.048591,0.001000,0.001000,0.001000,0.001000,0.001000
1012.211538,0.048312,0.001000,0.001000,0.001000,0.001000,0.001000
1012.230769,0.048007,0.001000,0.001000,0.001000,0.001000,0.001000
1012.250000,0.047678,0.001000,0.001000,0.001000,0.001000,0.001000
1012.269231,0.047324,0.001000,0.001000,0.001000,0.001000,0.001000
1012.288462,0.046946,0.001000,0.001000,0.001000,0.001000,0.001000
1012.307692,0.046544,0.001000,0.001000,0.001000,0.001000,0.001000
1012.326923,0.046118,0.001000,0.001000,0.001000,0.001000,0.001000
1012.346154,0.045668,0.001000,0.001000,0.001000,0.001000,0.001000
1012.365385,0.045195,0.001000,0.001000,0.001000,0.001000,0.001000
1012.384615,0.044698,0.001000,0.001000,0.001000,0.001000,0.001000
1012.403846,0.044179,0.001000,0.001000,0.001000,0.001000,0.001000
1012.423077,0.043636,0.001000,0.001000,0.001000,0.001000,0.001000
1012.442308,0.043072,0.001000,0.001000,0.001000,0.001000,0.001000
1012.461538,0.042485,0.001000,0.001000,0.001000,0.001000,0.001000
1012.480769,0.041876,0.001000,0.001000,0.001000,0.001000,0.001000
1012.500000,0.041246,0.001000,0.001000,0.001000,0.001000,0.001000
1012.519231,0.040595,0.001000,0.001000,0.001000,0.001000,0.001000
1012.538462,0.039923,0.001000,0.001000,0.001000,0.001000,0.001000
1012.557692,0.039230,0.001000,0.001000,0.001000,0.001000,0.001000
1012.576923,0.038517,0.001000,0.001000,0.001000,0.001000,0.001000
1012.596154,0.037784,0.001000,0.001000,0.001000,0.001000,0.001000
1012.615385,0.037032,0.001000,0.001000,0.001000,0.001000,0.001000
1012.634615,0.036261,0.001000,0.001000,0.001000,0.001000,0.001000
1012.653846,0.035471,0.001000,0.001000,0.001000,0.001000,0.001000
1012.673077,0.034663,0.001000,0.001000,0.001000,0.001000,0.001000
1012.692308,0.033837,0.001000,0.001000,0.001000,0.001000,0.001000
1012.711538,0.032994,0.001000,0.001000,0.001000,0.001000,0.001000
1012.730769,0.032134,0.001000,0.001000,0.001000,0.001000,0.001000
1012.750000,0.031257,0.001000,0.001000,0.001000,0.001000,0.001000
1012.769231,0.030364,0.001000,0.001000,0.001000,0.001000,0.001000
1012.788462,0.029456,0.001000,0.001000,0.001000,0.001000,0.001000
1012.807692,0.028532,0.001000,0.001000,0.001000,0.001000,0.001000
1012.826923,0.027594,0.001000,0.001000,0.001000,0.001000,0.001000
1012.846154,0.026642,0.001000,0.001000,0.001000,0.001000,0.001000
1012.865385,0.025675,0.001000,0.001000,0.001000,0.001000,0.001000
1012.884615,0.024696,0.001000,0.001000,0.001000,0.001000,0.001000
1012.903846,0.023704,0.001000,0.001000,0.001000,0.001000,0.001000
1012.923077,0.022700,0.001000,0.001000,0.001000,0.001000,0.001000
1012.942308,0.021684,0.001000,0.001000,0.001000,0.001000,0.001000
1012.961538,0.020657,0.001000,0.001000,0.001000,0.001000,0.001000
1012.980769,0.019619,0.001000,0.001000,0.001000,0.001000,0.001000
1013.000000,0.018572,0.001000,0.001000,0.001000,0.001000,0.001000
1013.019231,0.017514,0.001000,0.001000,0.001000,0.001000,0.001000
1013.038462,0.016448,0.001000,0.001000,0.001000,0.001000,0.001000
1013.057692,0.015373,0.001000,0.001000,0.001000,0.001000,0.001000
1013.076923,0.014291,0.001000,0.001000,0.001000,0.001000,0.001000
1013.096154,0.013201,0.001000,0.001000,0.001000,0.001000,0.001000
1013.115385,0.012104,0.001000,0.001000,0.001000,0.001000,0.001000
1013.134615,0.011001,0.001000,0.001000,0.001000,0.001000,0.001000
1013.153846,0.009893,0.001000,0.001000,0.001000,0.001000,0.001000
1013.173077,0.008779,0.001000,0.001000,0.001000,0.001000,0.001000
1013.192308,0.007661,0.001000,0.001000,0.001000,0.001000,0.001000
1013.211538,0.006538,0.001000,0.001000,0.001000,0.001000,0.001000
1013.230769,0.005413,0.001000,0.001000,0.001000,0.001000,0.001000
1013.250000,0.004285,0.001000,0.001000,0.001000,0.001000,0.001000
1013.269231,0.003154,0.001000,0.001000,0.001000,0.001000,0.001000
1013.288462,0.002022,0.001000,0.001000,0.001000,0.001000,0.001000
1013.307692,0.000889,0.001000,0.001000,0.001000,0.001000,0.001000
1013.326923,-0.000245,0.001000,0.001000,0.001000,0.001000,0.001000
1013.346154,-0.001378,0.001000,0.001000,0.001000,0.001000,0.001000
1013.365385,-0.002511,0.001000,0.001000,0.001000,0.001000,0.001000
1013.384615,-0.003643,0.001000,0.001000,0.001000,0.001000,0.001000
1013.403846,-0.004772,0.001000,0.001000,0.001000,0.001000,0.001000
1013.423077,-0.005900,0.001000,0.001000,0.001000,0.001000,0.001000
1013.442308,-0.007024,0.001000,0.001000,0.001000,0.001000,0.001000
1013.461538,-0.008144,0.001000,0.001000,0.001000,0.001000,0.001000
1013.480769,-0.009261,0.001000,0.001000,0.001000,0.001000,0.001000
1013.500000,-0.010372,0.001000,0.001000,0.001000,0.001000,0.001000
1013.519231,-0.011478,0.001000,0.001000,0.001000,0.001000,0.001000
1013.538462,-0.012579,0.001000,0.001000,0.001000,0.001000,0.001000
1013.557692,-0.013673,0.001000,0.001000,0.001000,0.001000,0.001000
1013.576923,-0.014760,0.001000,0.001000,0.001000,0.001000,0.001000
1013.596154,-0.015839,0.001000,0.001000,0.001000,0.001000,0.001000
1013.615385,-0.016910,0.001000,0.001000,0.001000,0.001000,0.001000
1013.634615,-0.017972,0.001000,0.001000,0.001000,0.001000,0.001000
1013.653846,-0.019026,0.001000,0.001000,0.001000,0.001000,0.001000
1013.673077,-0.020069,0.001000,0.001000,0.001000,0.001000,0.001000
1013.692308,-0.021102,0.001000,0.001000,0.001000,0.001000,0.001000
1013.711538,-0.022124,0.001000,0.001000,0.001000,0.001000,0.001000
1013.730769,-0.023135,0.001000,0.001000,0.001000,0.001000,0.001000
1013.750000,-0.024134,0.001000,0.001000,0.001000,0.001000,0.001000
1013.769231,-0.025121,0.001000,0.001000,0.001000,0.001000,0.001000
1013.788462,-0.026095,0.001000,0.001000,0.001000,0.001000,0.001000
1013.807692,-0.027055,0.001000,0.001000,0.001000,0.001000,0.001000
1013.826923,-0.028001,0.001000,0.001000,0.001000,0.001000,0.001000
1013.846154,-0.028933,0.001000,0.001000,0.001000,0.001000,0.001000
1013.865385,-0.029850,0.001000,0.001000,0.001000,0.001000,0.001000
1013.884615,-0.030752,0.001000,0.001000,0.001000,0.001000,0.001000
1013.903846,-0.031638,0.001000,0.001000,0.001000,0.001000,0.001000
1013.923077,-0.032508,0.001000,0.001000,0.001000,0.001000,0.001000
1013.942308,-0.033360,0.001000,0.001000,0.001000,0.001000,0.001000
1013.961538,-0.034196,0.001000,0.001000,0.001000,0.001000,0.001000
1013.980769,-0.035015,0.001000,0.001000,0.001000,0.001000,0.001000
1014.000000,-0.035815,0.001000,0.001000,0.001000,0.001000,0.001000
1014.019231,-0.036597,0.001000,0.001000,0.001000,0.001000,0.001000
1014.038462,-0.037360,0.001000,0.001000,0.001000,0.001000,0.001000
1014.057692,-0.038103,0.001000,0.001000,0.001000,0.001000,0.001000
1014.076923,-0.038828,0.001000,0.001000,0.001000,0.001000,0.001000
1014.096154,-0.039532,0.001000,0.001000,0.001000,0.001000,0.001000
1014.115385,-0.040216,0.001000,0.001000,0.001000,0.001000,0.001000
1014.134615,-0.040879,0.001000,0.001000,0.001000,0.001000,0.001000
1014.153846,-0.041521,0.001000,0.001000,0.001000,0.001000,0.001000
1014.173077,-0.042142,0.001000,0.001000,0.001000,0.001000,0.001000
1014.192308,-0.042741,0.001000,0.001000,0.001000,0.001000,0.001000
1014.211538,-0.043319,0.001000,0.001000,0.001000,0.001000,0.001000
1014.230769,-0.043874,0.001000,0.001000,0.001000,0.001000,0.001000
1014.250000,-0.044406,0.001000,0.001000,0.001000,0.001000,0.001000
1014.269231,-0.044916,0.001000,0.001000,0.001000,0.001000,0.001000
1014.288462,-0.045402,0.001000,0.001000,0.001000,0.001000,0.001000
1014.307692,-0.045865,0.001000,0.001000,0.001000,0.001000,0.001000
1014.326923,-0.046305,0.001000,0.001000,0.001000,0.001000,0.001000
1014.346154,-0.046721,0.001000,0.001000,0.001000,0.001000,0.001000
1014.365385,-0.047112,0.001000,0.001000,0.001000,0.001000,0.001000
1014.384615,-0.047480,0.001000,0.001000,0.001000,0.001000,0.001000
1014.403846,-0.047823,0.001000,0.001000,0.001000,0.001000,0.001000
1014.423077,-0.048142,0.001000,0.001000,0.001000,0.001000,0.001000
1014.442308,-0.048435,0.001000,0.001000,0.001000,0.001000,0.001000
1014.461538,-0.048704,0.001000,0.001000,0.001000,0.001000,0.001000
1014.480769,-0.048948,0.001000,0.001000,0.001000,0.001000,0.001000
1014.500000,-0.049167,0.001000,0.001000,0.001000,0.001000,0.001000
1014.519231,-0.049360,0.001000,0.001000,0.001000,0.001000,0.001000
1014.538462,-0.049528,0.001000,0.001000,0.001000,0.001000,0.001000
1014.557692,-0.049671,0.001000,0.001000,0.001000,0.001000,0.001000
1014.576923,-0.049788,0.001000,0.001000,0.001000,0.001000,0.001000
1014.596154,-0.049880,0.001000,0.001000,0.001000,0.001000,0.001000
1014.615385,-0.049945,0.001000,0.001000,0.001000,0.001000,0.001000
1014.634615,-0.049985,0.001000,0.001000,0.001000,0.001000,0.001000
1014.653846,-0.050000,0.001000,0.001000,0.001000,0.001000,0.001000
1014.673077,-0.049989,0.001000,0.001000,0.001000,0.001000,0.001000
1014.692308,-0.049952,0.001000,0.001000,0.001000,0.001000,0.001000
1014.711538,-0.049889,0.001000,0.001000,0.001000,0.001000,0.001000
1014.730769,-0.049801,0.001000,0.001000,0.001000,0.001000,0.001000
1014.750000,-0.049687,0.001000,0.001000,0.001000,0.001000,0.001000
1014.769231,-0.049548,0.001000,0.001000,0.001000,0.001000,0.001000
1014.788462,-0.049383,0.001000,0.001000,0.001000,0.001000,0.001000
1014.807692,-0.049192,0.001000,0.001000,0.001000,0.001000,0.001000
1014.826923,-0.048977,0.001000,0.001000,0.001000,0.001000,0.001000
1014.846154,-0.048736,0.001000,0.001000,0.001000,0.001000,0.001000
1014.865385,-0.048470,0.001000,0.001000,0.001000,0.001000,0.001000
1014.884615,-0.048180,0.001000,0.001000,0.001000,0.001000,0.001000
1014.903846,-0.047864,0.001000,0.001000,0.001000,0.001000,0.001000
1014.923077,-0.047524,0.001000,0.001000,0.001000,0.001000,0.001000
1014.942308,-0.047160,0.001000,0.001000,0.001000,0.001000,0.001000
1014.961538,-0.046771,0.001000,0.001000,0.001000,0.001000,0.001000
1014.980769,-0.046358,0.001000,0.001000,0.001000,0.001000,0.001000
1015.000000,-0.045921,0.001000,0.001000,0.001000,0.001000,0.001000
1015.019231,-0.045461,0.001000,0.001000,0.001000,0.001000,0.001000
1015.038462,-0.044977,0.001000,0.001000,0.001000,0.001000,0.001000
1015.057692,-0.044471,0.001000,0.001000,0.001000,0.001000,0.001000
1015.076923,-0.043941,0.001000,0.001000,0.001000,0.001000,0.001000
1015.096154,-0.043389,0.001000,0.001000,0.001000,0.001000,0.001000
1015.115385,-0.042814,0.001000,0.001000,0.001000,0.001000,0.001000
1015.134615,-0.042218,0.001000,0.001000,0.001000,0.001000,0.001000
1015.153846,-0.041600,0.001000,0.001000,0.001000,0.001000,0.001000
1015.173077,-0.040960,0.001000,0.001000,0.001000,0.001000,0.001000
1015.192308,-0.040300,0.001000,0.001000,0.001000,0.001000,0.001000
1015.211538,-0.039618,0.001000,0.001000,0.001000,0.001000,0.001000
1015.230769,-0.038916,0.001000,0.001000,0.001000,0.001000,0.001000
1015.250000,-0.038195,0.001000,0.001000,0.001000,0.001000,0.001000
1015.269231,-0.037453,0.001000,0.001000,0.001000,0.001000,0.001000
1015.288462,-0.036693,0.001000,0.001000,0.001000,0.001000,0.001000
1015.307692,-0.035913,0.001000,0.001000,0.001000,0.001000,0.001000
1015.326923,-0.035115,0.001000,0.001000,0.001000,0.001000,0.001000
1015.346154,-0.034299,0.001000,0.001000,0.001000,0.001000,0.001000
1015.365385,-0.033466,0.001000,0.001000,0.001000,0.001000,0.001000
1015.384615,-0.032615,0.001000,0.001000,0.001000,0.001000,0.001000
1015.403846,-0.031747,0.001000,0.001000,0.001000,0.001000,0.001000
1015.423077,-0.030863,0.001000,0.001000,0.001000,0.001000,0.001000
1015.442308,-0.029963,0.001000,0.001000,0.001000,0.001000,0.001000
1015.461538,-0.029048,0.001000,0.001000,0.001000,0.001000,0.001000
1015.480769,-0.028118,0.001000,0.001000,0.001000,0.001000,0.001000
1015.500000,-0.027174,0.001000,0.001000,0.001000,0.001000,0.001000
1015.519231,-0.026215,0.001000,0.001000,0.001000,0.001000,0.001000
1015.538462,-0.025243,0.001000,0.001000,0.001000,0.001000,0.001000
1015.557692,-0.024258,0.001000,0.001000,0.001000,0.001000,0.001000
1015.576923,-0.023261,0.001000,0.001000,0.001000,0.001000,0.001000
1015.596154,-0.022251,0.001000,0.001000,0.001000,0.001000,0.001000
1015.615385,-0.021230,0.001000,0.001000,0.001000,0.001000,0.001000
1015.634615,-0.020198,0.001000,0.001000,0.001000,0.001000,0.001000
1015.653846,-0.019156,0.001000,0.001000,0.001000,0.001000,0.001000
1015.673077,-0.018104,0.001000,0.001000,0.001000,0.001000,0.001000
1015.692308,-0.017043,0.001000,0.001000,0.001000,0.001000,0.001000
1015.711538,-0.015973,0.001000,0.001000,0.001000,0.001000,0.001000
1015.730769,-0.014895,0.001000,0.001000,0.001000,0.001000,0.001000
1015.750000,-0.013809,0.001000,0.001000,0.001000,0.001000,0.001000
1015.769231,-0.012716,0.001000,0.001000,0.001000,0.001000,0.001000
1015.788462,-0.011616,0.001000,0.001000,0.001000,0.001000,0.001000
1015.807692,-0.010510,0.001000,0.001000,0.001000,0.001000,0.001000
1015.826923,-0.009399,0.001000,0.001000,0.001000,0.001000,0.001000
1015.846154,-0.008284,0.001000,0.001000,0.001000,0.001000,0.001000
1015.865385,-0.007164,0.001000,0.001000,0.001000,0.001000,0.001000
1015.884615,-0.006040,0.001000,0.001000,0.001000,0.001000,0.001000
1015.903846,-0.004913,0.001000,0.001000,0.001000,0.001000,0.001000
1015.923077,-0.003784,0.001000,0.001000,0.001000,0.001000,0.001000
1015.942308,-0.002652,0.001000,0.001000,0.001000,0.001000,0.001000
1015.961538,-0.001520,0.001000,0.001000,0.001000,0.001000,0.001000
1015.980769,-0.000386,0.001000,0.001000,0.001000,0.001000,0.001000
1016.000000,0.000747,0.001000,0.001000,0.001000,0.001000,0.001000
1016.019231,0.001881,0.001000,0.001000,0.001000,0.001000,0.001000
1016.038462,0.003013,0.001000,0.001000,0.001000,0.001000,0.001000
1016.057692,0.004144,0.001000,0.001000,0.001000,0.001000,0.001000
1016.076923,0.005272,0.001000,0.001000,0.001000,0.001000,0.001000
1016.096154,0.006398,0.001000,0.001000,0.001000,0.001000,0.001000
1016.115385,0.007521,0.001000,0.001000,0.001000,0.001000,0.001000
1016.134615,0.008640,0.001000,0.001000,0.001000,0.001000,0.001000
1016.153846,0.009754,0.001000,0.001000,0.001000,0.001000,0.001000
1016.173077,0.010863,0.001000,0.001000,0.001000,0.001000,0.001000
1016.192308,0.011967,0.001000,0.001000,0.001000,0.001000,0.001000
1016.211538,0.013065,0.001000,0.001000,0.001000,0.001000,0.001000
1016.230769,0.014155,0.001000,0.001000,0.001000,0.001000,0.001000
1016.250000,0.015239,0.001000,0.001000,0.001000,0.001000,0.001000
1016.269231,0.016315,0.001000,0.001000,0.001000,0.001000,0.001000
1016.288462,0.017382,0.001000,0.001000,0.001000,0.001000,0.001000
1016.307692,0.018440,0.001000,0.001000,0.001000,0.001000,0.001000
1016.326923,0.019489,0.001000,0.001000,0.001000,0.001000,0.001000
1016.346154,0.020528,0.001000,0.001000,0.001000,0.001000,0.001000
1016.365385,0.021557,0.001000,0.001000,0.001000,0.001000,0.001000
1016.384615,0.022574,0.001000,0.001000,0.001000,0.001000,0.001000
1016.403846,0.023580,0.001000,0.001000,0.001000,0.001000,0.001000
1016.423077,0.024573,0.001000,0.001000,0.001000,0.001000,0.001000
1016.442308,0.025554,0.001000,0.001000,0.001000,0.001000,0.001000
1016.461538,0.026522,0.001000,0.001000,0.001000,0.001000,0.001000
1016.480769,0.027476,0.001000,0.001000,0.001000,0.001000,0.001000
1016.500000,0.028416,0.001000,0.001000,0.001000,0.001000,0.001000
1016.519231,0.029341,0.001000,0.001000,0.001000,0.001000,0.001000
1016.538462,0.030252,0.001000,0.001000,0.001000,0.001000,0.001000
1016.557692,0.031147,0.001000,0.001000,0.001000,0.001000,0.001000
1016.576923,0.032025,0.001000,0.001000,0.001000,0.001000,0.001000
1016.596154,0.032888,0.001000,0.001000,0.001000,0.001000,0.001000
1016.615385,0.033733,0.001000,0.001000,0.001000,0.001000,0.001000
1016.634615,0.034561,0.001000,0.001000,0.001000,0.001000,0.001000
1016.653846,0.035371,0.001000,0.001000,0.001000,0.001000,0.001000
1016.673077,0.036164,0.001000,0.001000,0.001000,0.001000,0.001000
1016.692308,0.036937,0.001000,0.001000,0.001000,0.001000,0.001000
1016.711538,0.037692,0.001000,0.001000,0.001000,0.001000,0.001000
1016.730769,0.038427,0.001000,0.001000,0.001000,0.001000,0.001000
1016.750000,0.039142,0.001000,0.001000,0.001000,0.001000,0.001000
1016.769231,0.039837,0.001000,0.001000,0.001000,0.001000,0.001000
1016.788462,0.040512,0.001000,0.001000,0.001000,0.001000,0.001000
1016.807692,0.041166,0.001000,0.001000,0.001000,0.001000,0.001000
1016.826923,0.041799,0.001000,0.001000,0.001000,0.001000,0.001000
1016.846154,0.042410,0.001000,0.001000,0.001000,0.001000,0.001000
1016.865385,0.043000,0.001000,0.001000,0.001000,0.001000,0.001000
1016.884615,0.043567,0.001000,0.001000,0.001000,0.001000,0.001000
1016.903846,0.044112,0.001000,0.001000,0.001000,0.001000,0.001000
1016.923077,0.044635,0.001000,0.001000,0.001000,0.001000,0.001000
1016.942308,0.045134,0.001000,0.001000,0.001000,0.001000,0.001000
1016.961538,0.045610,0.001000,0.001000,0.001000,0.001000,0.001000
1016.980769,0.046063,0.001000,0.001000,0.001000,0.001000,0.001000
1017.000000,0.046492,0.001000,0.001000,0.001000,0.001000,0.001000
1017.019231,0.046897,0.001000,0.001000,0.001000,0.001000,0.001000
1017.038462,0.047278,0.001000,0.001000,0.001000,0.001000,0.001000
1017.057692,0.047635,0.001000,0.001000,0.001000,0.001000,0.001000
1017.076923,0.047967,0.001000,0.001000,0.001000,0.001000,0.001000
1017.096154,0.048275,0.001000,0.001000,0.001000,0.001000,0.001000
1017.115385,0.048558,0.001000,0.001000,0.001000,0.001000,0.001000
1017.134615,0.048816,0.001000,0.001000,0.001000,0.001000,0.001000
1017.153846,0.049048,0.001000,0.001000,0.001000,0.001000,0.001000
1017.173077,0.049256,0.001000,0.001000,0.001000,0.001000,0.001000
1017.192308,0.049438,0.001000,0.001000,0.001000,0.001000,0.001000
1017.211538,0.049595,0.001000,0.001000,0.001000,0.001000,0.001000
1017.230769,0.049726,0.001000,0.001000,0.001000,0.001000,0.001000
1017.250000,0.049832,0.001000,0.001000,0.001000,0.001000,0.001000
1017.269231,0.049912,0.001000,0.001000,0.001000,0.001000,0.001000
1017.288462,0.049966,0.001000,0.001000,0.001000,0.001000,0.001000
1017.307692,0.049995,0.001000,0.001000,0.001000,0.001000,0.001000
1017.326923,0.049998,0.001000,0.001000,0.001000,0.001000,0.001000
1017.346154,0.049975,0.001000,0.001000,0.001000,0.001000,0.001000
1017.365385,0.049927,0.001000,0.001000,0.001000,0.001000,0.001000
1017.384615,0.049853,0.001000,0.001000,0.001000,0.001000,0.001000
1017.403846,0.049754,0.001000,0.001000,0.001000,0.001000,0.001000
1017.423077,0.049628,0.001000,0.001000,0.001000,0.001000,0.001000
1017.442308,0.049478,0.001000,0.001000,0.001000,0.001000,0.001000
1017.461538,0.049301,0.001000,0.001000,0.001000,0.001000,0.001000
1017.480769,0.049100,0.001000,0.001000,0.001000,0.001000,0.001000
1017.500000,0.048873,0.001000,0.001000,0.001000,0.001000,0.001000
1017.519231,0.048621,0.001000,0.001000,0.001000,0.001000,0.001000
1017.538462,0.048345,0.001000,0.001000,0.001000,0.001000,0.001000
1017.557692,0.048043,0.001000,0.001000,0.001000,0.001000,0.001000
1017.576923,0.047716,0.001000,0.001000,0.001000,0.001000,0.001000
1017.596154,0.047365,0.001000,0.001000,0.001000,0.001000,0.001000
1017.615385,0.046990,0.001000,0.001000,0.001000,0.001000,0.001000
1017.634615,0.046591,0.001000,0.001000,0.001000,0.001000,0.001000
1017.653846,0.046167,0.001000,0.001000,0.001000,0.001000,0.001000
1017.673077,0.045720,0.001000,0.001000,0.001000,0.001000,0.001000
1017.692308,0.045250,0.001000,0.001000,0.001000,0.001000,0.001000
1017.711538,0.044756,0.001000,0.001000,0.001000,0.001000,0.001000
1017.730769,0.044239,0.001000,0.001000,0.001000,0.001000,0.001000
1017.750000,0.043699,0.001000,0.001000,0.001000,0.001000,0.001000
1017.769231,0.043137,0.001000,0.001000,0.001000,0.001000,0.001000
1017.788462,0.042553,0.001000,0.001000,0.001000,0.001000,0.001000
1017.807692,0.041947,0.001000,0.001000,0.001000,0.001000,0.001000
1017.826923,0.041319,0.001000,0.001000,0.001000,0.001000,0.001000
1017.846154,0.040670,0.001000,0.001000,0.001000,0.001000,0.001000
1017.865385,0.040000,0.001000,0.001000,0.001000,0.001000,0.001000
1017.884615,0.039310,0.001000,0.001000,0.001000,0.001000,0.001000
1017.903846,0.038599,0.001000,0.001000,0.001000,0.001000,0.001000
1017.923077,0.037869,0.001000,0.001000,0.001000,0.001000,0.001000
1017.942308,0.037119,0.001000,0.001000,0.001000,0.001000,0.001000
1017.961538,0.036350,0.001000,0.001000,0.001000,0.001000,0.001000
1017.980769,0.035562,0.001000,0.001000,0.001000,0.001000,0.001000
1018.000000,0.034756,0.001000,0.001000,0.001000,0.001000,0.001000
1018.019231,0.033932,0.001000,0.001000,0.001000,0.001000,0.001000
1018.038462,0.033091,0.001000,0.001000,0.001000,0.001000,0.001000
1018.057692,0.032232,0.001000,0.001000,0.001000,0.001000,0.001000
1018.076923,0.031357,0.001000,0.001000,0.001000,0.001000,0.001000
1018.096154,0.030466,0.001000,0.001000,0.001000,0.001000,0.001000
1018.115385,0.029560,0.001000,0.001000,0.001000,0.001000,0.001000
1018.134615,0.028638,0.001000,0.001000,0.001000,0.001000,0.001000
1018.153846,0.027701,0.001000,0.001000,0.001000,0.001000,0.001000
1018.173077,0.026750,0.001000,0.001000,0.001000,0.001000,0.001000
1018.192308,0.025786,0.001000,0.001000,0.001000,0.001000,0.001000
1018.211538,0.024808,0.001000,0.001000,0.001000,0.001000,0.001000
1018.230769,0.023817,0.001000,0.001000,0.001000,0.001000,0.001000
1018.250000,0.022815,0.001000,0.001000,0.001000,0.001000,0.001000
1018.269231,0.021800,0.001000,0.001000,0.001000,0.001000,0.001000
1018.288462,0.020774,0.001000,0.001000,0.001000,0.001000,0.001000
1018.307692,0.019738,0.001000,0.001000,0.001000,0.001000,0.001000
1018.326923,0.018691,0.001000,0.001000,0.001000,0.001000,0.001000
1018.346154,0.017635,0.001000,0.001000,0.001000,0.001000,0.001000
1018.365385,0.016570,0.001000,0.001000,0.001000,0.001000,0.001000
1018.384615,0.015496,0.001000,0.001000,0.001000,0.001000,0.001000
1018.403846,0.014414,0.001000,0.001000,0.001000,0.001000,0.001000
1018.423077,0.013325,0.001000,0.001000,0.001000,0.001000,0.001000
1018.442308,0.012229,0.001000,0.001000,0.001000,0.001000,0.001000
1018.461538,0.011127,0.001000,0.001000,0.001000,0.001000,0.001000
1018.480769,0.010019,0.001000,0.001000,0.001000,0.001000,0.001000
1018.500000,0.008906,0.001000,0.001000,0.001000,0.001000,0.001000
1018.519231,0.007788,0.001000,0.001000,0.001000,0.001000,0.001000
1018.538462,0.006666,0.001000,0.001000,0.001000,0.001000,0.001000
1018.557692,0.005541,0.001000,0.001000,0.001000,0.001000,0.001000
1018.576923,0.004413,0.001000,0.001000,0.001000,0.001000,0.001000
1018.596154,0.003283,0.001000,0.001000,0.001000,0.001000,0.001000
1018.615385,0.002151,0.001000,0.001000,0.001000,0.001000,0.001000
1018.634615,0.001017,0.001000,0.001000,0.001000,0.001000,0.001000
1018.653846,-0.000116,0.001000,0.001000,0.001000,0.001000,0.001000
1018.673077,-0.001250,0.001000,0.001000,0.001000,0.001000,0.001000
1018.692308,-0.002383,0.001000,0.001000,0.001000,0.001000,0.001000
1018.711538,-0.003514,0.001000,0.001000,0.001000,0.001000,0.001000
1018.730769,-0.004644,0.001000,0.001000,0.001000,0.001000,0.001000
1018.750000,-0.005772,0.001000,0.001000,0.001000,0.001000,0.001000
1018.769231,-0.006896,0.001000,0.001000,0.001000,0.001000,0.001000
1018.788462,-0.008017,0.001000,0.001000,0.001000,0.001000,0.001000
1018.807692,-0.009134,0.001000,0.001000,0.001000,0.001000,0.001000
1018.826923,-0.010246,0.001000,0.001000,0.001000,0.001000,0.001000
1018.846154,-0.011353,0.001000,0.001000,0.001000,0.001000,0.001000
1018.865385,-0.012454,0.001000,0.001000,0.001000,0.001000,0.001000
1018.884615,-0.013549,0.001000,0.001000,0.001000,0.001000,0.001000
1018.903846,-0.014637,0.001000,0.001000,0.001000,0.001000,0.001000
1018.923077,-0.015717,0.001000,0.001000,0.001000,0.001000,0.001000
1018.942308,-0.016789,0.001000,0.001000,0.001000,0.001000,0.001000
1018.961538,-0.017852,0.001000,0.001000,0.001000,0.001000,0.001000
1018.980769,-0.018907,0.001000,0.001000,0.001000,0.001000,0.001000
1019.000000,-0.019951,0.001000,0.001000,0.001000,0.001000,0.001000
1019.019231,-0.020985,0.001000,0.001000,0.001000,0.001000,0.001000
1019.038462,-0.022009,0.001000,0.001000,0.001000,0.001000,0.001000
1019.057692,-0.023021,0.001000,0.001000,0.001000,0.001000,0.001000
1019.076923,-0.024021,0.001000,0.001000,0.001000,0.001000,0.001000
1019.096154,-0.025010,0.001000,0.001000,0.001000,0.001000,0.001000
1019.115385,-0.025985,0.001000,0.001000,0.001000,0.001000,0.001000
1019.134615,-0.026946,0.001000,0.001000,0.001000,0.001000,0.001000
1019.153846,-0.027894,0.001000,0.001000,0.001000,0.001000,0.001000
1019.173077,-0.028828,0.001000,0.001000,0.001000,0.001000,0.001000
1019.192308,-0.029747,0.001000,0.001000,0.001000,0.001000,0.001000
1019.211538,-0.030650,0.001000,0.001000,0.001000,0.001000,0.001000
1019.230769,-0.031538,0.001000,0.001000,0.001000,0.001000,0.001000
1019.250000,-0.032410,0.001000,0.001000,0.001000,0.001000,0.001000
1019.269231,-0.033264,0.001000,0.001000,0.001000,0.001000,0.001000
1019.288462,-0.034102,0.001000,0.001000,0.001000,0.001000,0.001000
1019.307692,-0.034922,0.001000,0.001000,0.001000,0.001000,0.001000
1019.326923,-0.035725,0.001000,0.001000,0.001000,0.001000,0.001000
1019.346154,-0.036509,0.001000,0.001000,0.001000,0.001000,0.001000
1019.365385,-0.037274,0.001000,0.001000,0.001000,0.001000,0.001000
1019.384615,-0.038020,0.001000,0.001000,0.001000,0.001000,0.001000
1019.403846,-0.038746,0.001000,0.001000,0.001000,0.001000,0.001000
1019.423077,-0.039453,0.001000,0.001000,0.001000,0.001000,0.001000
1019.442308,-0.040139,0.001000,0.001000,0.001000,0.001000,0.001000
1019.461538,-0.040805,0.001000,0.001000,0.001000,0.001000,0.001000
1019.480769,-0.041449,0.001000,0.001000,0.001000,0.001000,0.001000
1019.500000,-0.042073,0.001000,0.001000,0.001000,0.001000,0.001000
1019.519231,-0.042674,0.001000,0.001000,0.001000,0.001000,0.001000
1019.538462,-0.043254,0.001000,0.001000,0.001000,0.001000,0.001000
1019.557692,-0.043812,0.001000,0.001000,0.001000,0.001000,0.001000
1019.576923,-0.044347,0.001000,0.001000,0.001000,0.001000,0.001000
1019.596154,-0.044859,0.001000,0.001000,0.001000,0.001000,0.001000
1019.615385,-0.045348,0.001000,0.001000,0.001000,0.001000,0.001000
1019.634615,-0.045814,0.001000,0.001000,0.001000,0.001000,0.001000
1019.653846,-0.046256,0.001000,0.001000,0.001000,0.001000,0.001000
1019.673077,-0.046675,0.001000,0.001000,0.001000,0.001000,0.001000
1019.692308,-0.047069,0.001000,0.001000,0.001000,0.001000,0.001000
1019.711538,-0.047439,0.001000,0.001000,0.001000,0.001000,0.001000
1019.730769,-0.047785,0.001000,0.001000,0.001000,0.001000,0.001000
1019.750000,-0.048107,0.001000,0.001000,0.001000,0.001000,0.001000
1019.769231,-0.048403,0.001000,0.001000,0.001000,0.001000,0.001000
1019.788462,-0.048675,0.001000,0.001000,0.001000,0.001000,0.001000
1019.807692,-0.048922,0.001000,0.001000,0.001000,0.001000,0.001000
1019.826923,-0.049143,0.001000,0.001000,0.001000,0.001000,0.001000
1019.846154,-0.049340,0.001000,0.001000,0.001000,0.001000,0.001000
1019.865385,-0.049511,0.001000,0.001000,0.001000,0.001000,0.001000
1019.884615,-0.049656,0.001000,0.001000,0.001000,0.001000,0.001000
1019.903846,-0.049776,0.001000,0.001000,0.001000,0.001000,0.001000
1019.923077,-0.049870,0.001000,0.001000,0.001000,0.001000,0.001000
1019.942308,-0.049939,0.001000,0.001000,0.001000,0.001000,0.001000
1019.961538,-0.049982,0.001000,0.001000,0.001000,0.001000,0.001000
1019.980769,-0.050000,0.001000,0.001000,0.001000,0.001000,0.001000
1020.000000,-0.049991,0.001000,0.001000,0.001000,0.001000,0.001000
1020.019231,-0.049957,0.001000,0.001000,0.001000,0.001000,0.001000
1020.038462,-0.049898,0.001000,0.001000,0.001000,0.001000,0.001000
1020.057692,-0.049812,0.001000,0.001000,0.001000,0.001000,0.001000
1020.076923,-0.049701,0.001000,0.001000,0.001000,0.001000,0.001000
1020.096154,-0.049565,0.001000,0.001000,0.001000,0.001000,0.001000
1020.115385,-0.049403,0.001000,0.001000,0.001000,0.001000,0.001000
1020.134615,-0.049215,0.001000,0.001000,0.001000,0.001000,0.001000
1020.153846,-0.049003,0.001000,0.001000,0.001000,0.001000,0.001000
1020.173077,-0.048765,0.001000,0.001000,0.001000,0.001000,0.001000
1020.192308,-0.048502,0.001000,0.001000,0.001000,0.001000,0.001000
1020.211538,-0.048214,0.001000,0.001000,0.001000,0.001000,0.001000
1020.230769,-0.047901,0.001000,0.001000,0.001000,0.001000,0.001000
1020.250000,-0.047564,0.001000,0.001000,0.001000,0.001000,0.001000
1020.269231,-0.047202,0.001000,0.001000,0.001000,0.001000,0.001000
1020.288462,-0.046816,0.001000,0.001000,0.001000,0.001000,0.001000
1020.307692,-0.046406,0.001000,0.001000,0.001000,0.001000,0.001000
1020.326923,-0.045972,0.001000,0.001000,0.001000,0.001000,0.001000
1020.346154,-0.045515,0.001000,0.001000,0.001000,0.001000,0.001000
1020.365385,-0.045034,0.001000,0.001000,0.001000,0.001000,0.001000
1020.384615,-0.044529,0.001000,0.001000,0.001000,0.001000,0.001000
1020.403846,-0.044002,0.001000,0.001000,0.001000,0.001000,0.001000
1020.423077,-0.043453,0.001000,0.001000,0.001000,0.001000,0.001000
1020.442308,-0.042881,0.001000,0.001000,0.001000,0.001000,0.001000
1020.461538,-0.042287,0.001000,0.001000,0.001000,0.001000,0.001000
1020.480769,-0.041671,0.001000,0.001000,0.001000,0.001000,0.001000
1020.500000,-0.041034,0.001000,0.001000,0.001000,0.001000,0.001000
1020.519231,-0.040376,0.001000,0.001000,0.001000,0.001000,0.001000
1020.538462,-0.039697,0.001000,0.001000,0.001000,0.001000,0.001000
1020.557692,-0.038997,0.001000,0.001000,0.001000,0.001000,0.001000
1020.576923,-0.038278,0.001000,0.001000,0.001000,0.001000,0.001000
1020.596154,-0.037539,0.001000,0.001000,0.001000,0.001000,0.001000
1020.615385,-0.036780,0.001000,0.001000,0.001000,0.001000,0.001000
1020.634615,-0.036003,0.001000,0.001000,0.001000,0.001000,0.001000
1020.653846,-0.035207,0.001000,0.001000,0.001000,0.001000,0.001000
1020.673077,-0.034393,0.001000,0.001000,0.001000,0.001000,0.001000
1020.692308,-0.033561,0.001000,0.001000,0.001000,0.001000,0.001000
1020.711538,-0.032712,0.001000,0.001000,0.001000,0.001000,0.001000
1020.730769,-0.031847,0.001000,0.001000,0.001000,0.001000,0.001000
1020.750000,-0.030964,0.001000,0.001000,0.001000,0.001000,0.001000
1020.769231,-0.030066,0.001000,0.001000,0.001000,0.001000,0.001000
1020.788462,-0.029153,0.001000,0.001000,0.001000,0.001000,0.001000
1020.807692,-0.028225,0.001000,0.001000,0.001000,0.001000,0.001000
1020.826923,-0.027282,0.001000,0.001000,0.001000,0.001000,0.001000
1020.846154,-0.026325,0.001000,0.001000,0.001000,0.001000,0.001000
1020.865385,-0.025354,0.001000,0.001000,0.001000,0.001000,0.001000
1020.884615,-0.024371,0.001000,0.001000,0.001000,0.001000,0.001000
1020.903846,-0.023374,0.001000,0.001000,0.001000,0.001000,0.001000
1020.923077,-0.022366,0.001000,0.001000,0.001000,0.001000,0.001000
1020.942308,-0.021347,0.001000,0.001000,0.001000,0.001000,0.001000
1020.961538,-0.020316,0.001000,0.001000,0.001000,0.001000,0.001000
1020.980769,-0.019275,0.001000,0.001000,0.001000,0.001000,0.001000
1021.000000,-0.018224,0.001000,0.001000,0.001000,0.001000,0.001000
1021.019231,-0.017164,0.001000,0.001000,0.001000,0.001000,0.001000
1021.038462,-0.016095,0.001000,0.001000,0.001000,0.001000,0.001000
1021.057692,-0.015017,0.001000,0.001000,0.001000,0.001000,0.001000
1021.076923,-0.013932,0.001000,0.001000,0.001000,0.001000,0.001000
1021.096154,-0.012840,0.001000,0.001000,0.001000,0.001000,0.001000
1021.115385,-0.011741,0.001000,0.001000,0.001000,0.001000,0.001000
1021.134615,-0.010636,0.001000,0.001000,0.001000,0.001000,0.001000
1021.153846,-0.009526,0.001000,0.001000,0.001000,0.001000,0.001000
1021.173077,-0.008411,0.001000,0.001000,0.001000,0.001000,0.001000
1021.192308,-0.007291,0.001000,0.001000,0.001000,0.001000,0.001000
1021.211538,-0.006168,0.001000,0.001000,0.001000,0.001000,0.001000
1021.230769,-0.005041,0.001000,0.001000,0.001000,0.001000,0.001000
1021.250000,-0.003912,0.001000,0.001000,0.001000,0.001000,0.001000
1021.269231,-0.002781,0.001000,0.001000,0.001000,0.001000,0.001000
1021.288462,-0.001648,0.001000,0.001000,0.001000,0.001000,0.001000
1021.307692,-0.000515,0.001000,0.001000,0.001000,0.001000,0.001000
1021.326923,0.000619,0.001000,0.001000,0.001000,0.001000,0.001000
1021.346154,0.001752,0.001000,0.001000,0.001000,0.001000,0.001000
1021.365385,0.002884,0.001000,0.001000,0.001000,0.001000,0.001000
1021.384615,0.004015,0.001000,0.001000,0.001000,0.001000,0.001000
1021.403846,0.005144,0.001000,0.001000,0.001000,0.001000,0.001000
1021.423077,0.006271,0.001000,0.001000,0.001000,0.001000,0.001000
1021.442308,0.007394,0.001000,0.001000,0.001000,0.001000,0.001000
1021.461538,0.008513,0.001000,0.001000,0.001000,0.001000,0.001000
1021.480769,0.009628,0.001000,0.001000,0.001000,0.001000,0.001000
1021.500000,0.010738,0.001000,0.001000,0.001000,0.001000,0.001000
1021.519231,0.011842,0.001000,0.001000,0.001000,0.001000,0.001000
1021.538462,0.012940,0.001000,0.001000,0.001000,0.001000,0.001000
1021.557692,0.014032,0.001000,0.001000,0.001000,0.001000,0.001000
1021.576923,0.015116,0.001000,0.001000,0.001000,0.001000,0.001000
1021.596154,0.016193,0.001000,0.001000,0.001000,0.001000,0.001000
1021.615385,0.017261,0.001000,0.001000,0.001000,0.001000,0.001000
1021.634615,0.018321,0.001000,0.001000,0.001000,0.001000,0.001000
1021.653846,0.019371,0.001000,0.001000,0.001000,0.001000,0.001000
1021.673077,0.020411,0.001000,0.001000,0.001000,0.001000,0.001000
1021.692308,0.021440,0.001000,0.001000,0.001000,0.001000,0.001000
1021.711538,0.022459,0.001000,0.001000,0.001000,0.001000,0.001000
1021.730769,0.023466,0.001000,0.001000,0.001000,0.001000,0.001000
1021.750000,0.024461,0.001000,0.001000,0.001000,0.001000,0.001000
1021.769231,0.025443,0.001000,0.001000,0.001000,0.001000,0.001000
1021.788462,0.026413,0.001000,0.001000,0.001000,0.001000,0.001000
1021.807692,0.027368,0.001000,0.001000,0.001000,0.001000,0.001000
1021.826923,0.028310,0.001000,0.001000,0.001000,0.001000,0.001000
1021.846154,0.029237,0.001000,0.001000,0.001000,0.001000,0.001000
1021.865385,0.030149,0.001000,0.001000,0.001000,0.001000,0.001000
1021.884615,0.031046,0.001000,0.001000,0.001000,0.001000,0.001000
1021.903846,0.031926,0.001000,0.001000,0.001000,0.001000,0.001000
1021.923077,0.032791,0.001000,0.001000,0.001000,0.001000,0.001000
1021.942308,0.033638,0.001000,0.001000,0.001000,0.001000,0.001000
1021.961538,0.034468,0.001000,0.001000,0.001000,0.001000,0.001000
1021.980769,0.035280,0.001000,0.001000,0.001000,0.001000,0.001000
1022.000000,0.036074,0.001000,0.001000,0.001000,0.001000,0.001000
1022.019231,0.036850,0.001000,0.001000,0.001000,0.001000,0.001000
1022.038462,0.037607,0.001000,0.001000,0.001000,0.001000,0.001000
1022.057692,0.038344,0.001000,0.001000,0.001000,0.001000,0.001000
1022.076923,0.039062,0.001000,0.001000,0.001000,0.001000,0.001000
1022.096154,0.039759,0.001000,0.001000,0.001000,0.001000,0.001000
1022.115385,0.040437,0.001000,0.001000,0.001000,0.001000,0.001000
1022.134615,0.041093,0.001000,0.001000,0.001000,0.001000,0.001000
1022.153846,0.041728,0.001000,0.001000,0.001000,0.001000,0.001000
1022.173077,0.042342,0.001000,0.001000,0.001000,0.001000,0.001000
1022.192308,0.042934,0.001000,0.001000,0.001000,0.001000,0.001000
1022.211538,0.043504,0.001000,0.001000,0.001000,0.001000,0.001000
1022.230769,0.044052,0.001000,0.001000,0.001000,0.001000,0.001000
1022.250000,0.044576,0.001000,0.001000,0.001000,0.001000,0.001000
1022.269231,0.045078,0.001000,0.001000,0.001000,0.001000,0.001000
1022.288462,0.045557,0.001000,0.001000,0.001000,0.001000,0.001000
1022.307692,0.046013,0.001000,0.001000,0.001000,0.001000,0.001000
1022.326923,0.046444,0.001000,0.001000,0.001000,0.001000,0.001000
1022.346154,0.046852,0.001000,0.001000,0.001000,0.001000,0.001000
1022.365385,0.047236,0.001000,0.001000,0.001000,0.001000,0.001000
1022.384615,0.047596,0.001000,0.001000,0.001000,0.001000,0.001000
1022.403846,0.047931,0.001000,0.001000,0.001000,0.001000,0.001000
1022.423077,0.048241,0.001000,0.001000,0.001000,0.001000,0.001000
1022.442308,0.048527,0.001000,0.001000,0.001000,0.001000,0.001000
1022.461538,0.048787,0.001000,0.001000,0.001000,0.001000,0.001000
1022.480769,0.049023,0.001000,0.001000,0.001000,0.001000,0.001000
1022.500000,0.049233,0.001000,0.001000,0.001000,0.001000,0.001000
1022.519231,0.049419,0.001000,0.001000,0.001000,0.001000,0.001000
1022.538462,0.049578,0.001000,0.001000,0.001000,0.001000,0.001000
1022.557692,0.049712,0.001000,0.001000,0.001000,0.001000,0.001000
1022.576923,0.049821,0.001000,0.001000,0.001000,0.001000,0.001000
1022.596154,0.049904,0.001000,0.001000,0.001000,0.001000,0.001000
1022.615385,0.049961,0.001000,0.001000,0.001000,0.001000,0.001000
1022.634615,0.049993,0.001000,0.001000,0.001000,0.001000,0.001000
1022.653846,0.049999,0.001000,0.001000,0.001000,0.001000,0.001000
1022.673077,0.049979,0.001000,0.001000,0.001000,0.001000,0.001000
1022.692308,0.049934,0.001000,0.001000,0.001000,0.001000,0.001000
1022.711538,0.049863,0.001000,0.001000,0.001000,0.001000,0.001000
1022.730769,0.049766,0.001000,0.001000,0.001000,0.001000,0.001000
1022.750000,0.049644,0.001000,0.001000,0.001000,0.001000,0.001000
1022.769231,0.049496,0.001000,0.001000,0.001000,0.001000,0.001000
1022.788462,0.049323,0.001000,0.001000,0.001000,0.001000,0.001000
1022.807692,0.049124,0.001000,0.001000,0.001000,0.001000,0.001000
1022.826923,0.048900,0.001000,0.001000,0.001000,0.001000,0.001000
1022.846154,0.048651,0.001000,0.001000,0.001000,0.001000,0.001000
1022.865385,0.048377,0.001000,0.001000,0.001000,0.001000,0.001000
1022.884615,0.048078,0.001000,0.001000,0.001000,0.001000,0.001000
1022.903846,0.047755,0.001000,0.001000,0.001000,0.001000,0.001000
1022.923077,0.047407,0.001000,0.001000,0.001000,0.001000,0.001000
1022.942308,0.047034,0.001000,0.001000,0.001000,0.001000,0.001000
1022.961538,0.046637,0.001000,0.001000,0.001000,0.001000,0.001000
1022.980769,0.046217,0.001000,0.001000,0.001000,0.001000,0.001000
1023.000000,0.045772,0.001000,0.001000,0.001000,0.001000,0.001000
1023.019231,0.045304,0.001000,0.001000,0.001000,0.001000,0.001000
1023.038462,0.044813,0.001000,0.001000,0.001000,0.001000,0.001000
1023.057692,0.044299,0.001000,0.001000,0.001000,0.001000,0.001000
1023.076923,0.043762,0.001000,0.001000,0.001000,0.001000,0.001000
1023.096154,0.043202,0.001000,0.001000,0.001000,0.001000,0.001000
1023.115385,0.042620,0.001000,0.001000,0.001000,0.001000,0.001000
1023.134615,0.042017,0.001000,0.001000,0.001000,0.001000,0.001000
1023.153846,0.041391,0.001000,0.001000,0.001000,0.001000,0.001000
1023.173077,0.040745,0.001000,0.001000,0.001000,0.001000,0.001000
1023.192308,0.040077,0.001000,0.001000,0.001000,0.001000,0.001000
1023.211538,0.039389,0.001000,0.001000,0.001000,0.001000,0.001000
1023.230769,0.038681,0.001000,0.001000,0.001000,0.001000,0.001000
1023.250000,0.037952,0.001000,0.001000,0.001000,0.001000,0.001000
1023.269231,0.037205,0.001000,0.001000,0.001000,0.001000,0.001000
1023.288462,0.036438,0.001000,0.001000,0.001000,0.001000,0.001000
1023.307692,0.035652,0.001000,0.001000,0.001000,0.001000,0.001000
1023.326923,0.034848,0.001000,0.001000,0.001000,0.001000,0.001000
1023.346154,0.034026,0.001000,0.001000,0.001000,0.001000,0.001000
1023.365385,0.033187,0.001000,0.001000,0.001000,0.001000,0.001000
1023.384615,0.032331,0.001000,0.001000,0.001000,0.001000,0.001000
1023.403846,0.031458,0.001000,0.001000,0.001000,0.001000,0.001000
1023.423077,0.030568,0.001000,0.001000,0.001000,0.001000,0.001000
1023.442308,0.029663,0.001000,0.001000,0.001000,0.001000,0.001000
1023.461538,0.028743,0.001000,0.001000,0.001000,0.001000,0.001000
1023.480769,0.027808,0.001000,0.001000,0.001000,0.001000,0.001000
1023.500000,0.026859,0.001000,0.001000,0.001000,0.001000,0.001000
1023.519231,0.025896,0.001000,0.001000,0.001000,0.001000,0.001000
1023.538462,0.024920,0.001000,0.001000,0.001000,0.001000,0.001000
1023.557692,0.023931,0.001000,0.001000,0.001000,0.001000,0.001000
1023.576923,0.022929,0.001000,0.001000,0.001000,0.001000,0.001000
1023.596154,0.021916,0.001000,0.001000,0.001000,0.001000,0.001000
1023.615385,0.020891,0.001000,0.001000,0.001000,0.001000,0.001000
1023.634615,0.019856,0.001000,0.001000,0.001000,0.001000,0.001000
1023.653846,0.018811,0.001000,0.001000,0.001000,0.001000,0.001000
1023.673077,0.017755,0.001000,0.001000,0.001000,0.001000,0.001000
1023.692308,0.016691,0.001000,0.001000,0.001000,0.001000,0.001000
1023.711538,0.015618,0.001000,0.001000,0.001000,0.001000,0.001000
1023.730769,0.014537,0.001000,0.001000,0.001000,0.001000,0.001000
1023.750000,0.013449,0.001000,0.001000,0.001000,0.001000,0.001000
1023.769231,0.012354,0.001000,0.001000,0.001000,0.001000,0.001000
1023.788462,0.011252,0.001000,0.001000,0.001000,0.001000,0.001000
1023.807692,0.010145,0.001000,0.001000,0.001000,0.001000,0.001000
1023.826923,0.009032,0.001000,0.001000,0.001000,0.001000,0.001000
1023.846154,0.007915,0.001000,0.001000,0.001000,0.001000,0.001000
1023.865385,0.006794,0.001000,0.001000,0.001000,0.001000,0.001000
1023.884615,0.005669,0.001000,0.001000,0.001000,0.001000,0.001000
1023.903846,0.004541,0.001000,0.001000,0.001000,0.001000,0.001000
1023.923077,0.003411,0.001000,0.001000,0.001000,0.001000,0.001000
1023.942308,0.002279,0.001000,0.001000,0.001000,0.001000,0.001000
1023.961538,0.001146,0.001000,0.001000,0.001000,0.001000,0.001000
1023.980769,0.000013,0.001000,0.001000,0.001000,0.001000,0.001000
1024.000000,-0.001121,0.001000,0.001000,0.001000,0.001000,0.001000
1024.019231,-0.002254,0.001000,0.001000,0.001000,0.001000,0.001000
1024.038462,-0.003386,0.001000,0.001000,0.001000,0.001000,0.001000
1024.057692,-0.004516,0.001000,0.001000,0.001000,0.001000,0.001000
1024.076923,-0.005644,0.001000,0.001000,0.001000,0.001000,0.001000
1024.096154,-0.006769,0.001000,0.001000,0.001000,0.001000,0.001000
1024.115385,-0.007890,0.001000,0.001000,0.001000,0.001000,0.001000
1024.134615,-0.009007,0.001000,0.001000,0.001000,0.001000,0.001000
1024.153846,-0.010120,0.001000,0.001000,0.001000,0.001000,0.001000
1024.173077,-0.011228,0.001000,0.001000,0.001000,0.001000,0.001000
1024.192308,-0.012329,0.001000,0.001000,0.001000,0.001000,0.001000
1024.211538,-0.013425,0.001000,0.001000,0.001000,0.001000,0.001000
1024.230769,-0.014513,0.001000,0.001000,0.001000,0.001000,0.001000
1024.250000,-0.015594,0.001000,0.001000,0.001000,0.001000,0.001000
1024.269231,-0.016667,0.001000,0.001000,0.001000,0.001000,0.001000
1024.288462,-0.017732,0.001000,0.001000,0.001000,0.001000,0.001000
1024.307692,-0.018787,0.001000,0.001000,0.001000,0.001000,0.001000
1024.326923,-0.019833,0.001000,0.001000,0.001000,0.001000,0.001000
1024.346154,-0.020868,0.001000,0.001000,0.001000,0.001000,0.001000
1024.365385,-0.021893,0.001000,0.001000,0.001000,0.001000,0.001000
1024.384615,-0.022907,0.001000,0.001000,0.001000,0.001000,0.001000
1024.403846,-0.023908,0.001000,0.001000,0.001000,0.001000,0.001000
1024.423077,-0.024898,0.001000,0.001000,0.001000,0.001000,0.001000
1024.442308,-0.025875,0.001000,0.001000,0.001000,0.001000,0.001000
1024.461538,-0.026838,0.001000,0.001000,0.001000,0.001000,0.001000
1024.480769,-0.027787,0.001000,0.001000,0.001000,0.001000,0.001000
1024.500000,-0.028723,0.001000,0.001000,0.001000,0.001000,0.001000
1024.519231,-0.029643,0.001000,0.001000,0.001000,0.001000,0.001000
1024.538462,-0.030548,0.001000,0.001000,0.001000,0.001000,0.001000
1024.557692,-0.031438,0.001000,0.001000,0.001000,0.001000,0.001000
1024.576923,-0.032311,0.001000,0.001000,0.001000,0.001000,0.001000
1024.596154,-0.033168,0.001000,0.001000,0.001000,0.001000,0.001000
1024.615385,-0.034008,0.001000,0.001000,0.001000,0.001000,0.001000
1024.634615,-0.034830,0.001000,0.001000,0.001000,0.001000,0.001000
1024.653846,-0.035635,0.001000,0.001000,0.001000,0.001000,0.001000
1024.673077,-0.036421,0.001000,0.001000,0.001000,0.001000,0.001000
1024.692308,-0.037188,0.001000,0.001000,0.001000,0.001000,0.001000
1024.711538,-0.037936,0.001000,0.001000,0.001000,0.001000,0.001000
1024.730769,-0.038665,0.001000,0.001000,0.001000,0.001000,0.001000
1024.750000,-0.039374,0.001000,0.001000,0.001000,0.001000,0.001000
1024.769231,-0.040062,0.001000,0.001000,0.001000,0.001000,0.001000
1024.788462,-0.040730,0.001000,0.001000,0.001000,0.001000,0.001000
1024.807692,-0.041377,0.001000,0.001000,0.001000,0.001000,0.001000
1024.826923,-0.042003,0.001000,0.001000,0.001000,0.001000,0.001000
1024.846154,-0.042607,0.001000,0.001000,0.001000,0.001000,0.001000
1024.865385,-0.043189,0.001000,0.001000,0.001000,0.001000,0.001000
1024.884615,-0.043749,0.001000,0.001000,0.001000,0.001000,0.001000
1024.903846,-0.044287,0.001000,0.001000,0.001000,0.001000,0.001000
1024.923077,-0.044802,0.001000,0.001000,0.001000,0.001000,0.001000
1024.942308,-0.045294,0.001000,0.001000,0.001000,0.001000,0.001000
1024.961538,-0.045762,0.001000,0.001000,0.001000,0.001000,0.001000
1024.980769,-0.046207,0.001000,0.001000,0.001000,0.001000,0.001000
1025.000000,-0.046628,0.001000,0.001000,0.001000,0.001000,0.001000
1025.019231,-0.047025,0.001000,0.001000,0.001000,0.001000,0.001000
1025.038462,-0.047399,0.001000,0.001000,0.001000,0.001000,0.001000
1025.057692,-0.047747,0.001000,0.001000,0.001000,0.001000,0.001000
1025.076923,-0.048071,0.001000,0.001000,0.001000,0.001000,0.001000
1025.096154,-0.048371,0.001000,0.001000,0.001000,0.001000,0.001000
1025.115385,-0.048645,0.001000,0.001000,0.001000,0.001000,0.001000
1025.134615,-0.048895,0.001000,0.001000,0.001000,0.001000,0.001000
1025.153846,-0.049119,0.001000,0.001000,0.001000,0.001000,0.001000
1025.173077,-0.049319,0.001000,0.001000,0.001000,0.001000,0.001000
1025.192308,-0.049492,0.001000,0.001000,0.001000,0.001000,0.001000
1025.211538,-0.049641,0.001000,0.001000,0.001000,0.001000,0.001000
1025.230769,-0.049764,0.001000,0.001000,0.001000,0.001000,0.001000
1025.250000,-0.049861,0.001000,0.001000,0.001000,0.001000,0.001000
1025.269231,-0.049933,0.001000,0.001000,0.001000,0.001000,0.001000
1025.288462,-0.049979,0.001000,0.001000,0.001000,0.001000,0.001000
1025.307692,-0.049999,0.001000,0.001000,0.001000,0.001000,0.001000
1025.326923,-0.049994,0.001000,0.001000,0.001000,0.001000,0.001000
1025.346154,-0.049962,0.001000,0.001000,0.001000,0.001000,0.001000
1025.365385,-0.049906,0.001000,0.001000,0.001000,0.001000,0.001000
1025.384615,-0.049823,0.001000,0.001000,0.001000,0.001000,0.001000
1025.403846,-0.049715,0.001000,0.001000,0.001000,0.001000,0.001000
1025.423077,-0.049581,0.001000,0.001000,0.001000,0.001000,0.001000
1025.442308,-0.049422,0.001000,0.001000,0.001000,0.001000,0.001000
1025.461538,-0.049238,0.001000,0.001000,0.001000,0.001000,0.001000
1025.480769,-0.049028,0.001000,0.001000,0.001000,0.001000,0.001000
1025.500000,-0.048793,0.001000,0.001000,0.001000,0.001000,0.001000
1025.519231,-0.048533,0.001000,0.001000,0.001000,0.001000,0.001000
1025.538462,-0.048248,0.001000,0.001000,0.001000,0.001000,0.001000
1025.557692,-0.047938,0.001000,0.001000,0.001000,0.001000,0.001000
1025.576923,-0.047603,0.001000,0.001000,0.001000,0.001000,0.001000
1025.596154,-0.047244,0.001000,0.001000,0.001000,0.001000,0.001000
1025.615385,-0.046861,0.001000,0.001000,0.001000,0.001000,0.001000
1025.634615,-0.046454,0.001000,0.001000,0.001000,0.001000,0.001000
1025.653846,-0.046023,0.001000,0.001000,0.001000,0.001000,0.001000
1025.673077,-0.045568,0.001000,0.001000,0.001000,0.001000,0.001000
1025.692308,-0.045089,0.001000,0.001000,0.001000,0.001000,0.001000
1025.711538,-0.044588,0.001000,0.001000,0.001000,0.001000,0.001000
1025.730769,-0.044063,0.001000,0.001000,0.001000,0.001000,0.001000
1025.750000,-0.043516,0.001000,0.001000,0.001000,0.001000,0.001000
1025.769231,-0.042947,0.001000,0.001000,0.001000,0.001000,0.001000
1025.788462,-0.042355,0.001000,0.001000,0.001000,0.001000,0.001000
1025.807692,-0.041742,0.001000,0.001000,0.001000,0.001000,0.001000
1025.826923,-0.041107,0.001000,0.001000,0.001000,0.001000,0.001000
1025.846154,-0.040451,0.001000,0.001000,0.001000,0.001000,0.001000
1025.865385,-0.039775,0.001000,0.001000,0.001000,0.001000,0.001000
1025.884615,-0.039078,0.001000,0.001000,0.001000,0.001000,0.001000
1025.903846,-0.038360,0.001000,0.001000,0.001000,0.001000,0.001000
1025.923077,-0.037623,0.001000,0.001000,0.001000,0.001000,0.001000
1025.942308,-0.036867,0.001000,0.001000,0.001000,0.001000,0.001000
1025.961538,-0.036092,0.001000,0.001000,0.001000,0.001000,0.001000
1025.980769,-0.035298,0.001000,0.001000,0.001000,0.001000,0.001000
1026.000000,-0.034486,0.001000,0.001000,0.001000,0.001000,0.001000
1026.019231,-0.033657,0.001000,0.001000,0.001000,0.001000,0.001000
1026.038462,-0.032810,0.001000,0.001000,0.001000,0.001000,0.001000
1026.057692,-0.031946,0.001000,0.001000,0.001000,0.001000,0.001000
1026.076923,-0.031065,0.001000,0.001000,0.001000,0.001000,0.001000
1026.096154,-0.030169,0.001000,0.001000,0.001000,0.001000,0.001000
1026.115385,-0.029258,0.001000,0.001000,0.001000,0.001000,0.001000
1026.134615,-0.028331,0.001000,0.001000,0.001000,0.001000,0.001000
1026.153846,-0.027389,0.001000,0.001000,0.001000,0.001000,0.001000
1026.173077,-0.026434,0.001000,0.001000,0.001000,0.001000,0.001000
1026.192308,-0.025465,0.001000,0.001000,0.001000,0.001000,0.001000
1026.211538,-0.024483,0.001000,0.001000,0.001000,0.001000,0.001000
1026.230769,-0.023488,0.001000,0.001000,0.001000,0.001000,0.001000
1026.250000,-0.022481,0.001000,0.001000,0.001000,0.001000,0.001000
1026.269231,-0.021463,0.001000,0.001000,0.001000,0.001000,0.001000
1026.288462,-0.020434,0.001000,0.001000,0.001000,0.001000,0.001000
1026.307692,-0.019394,0.001000,0.001000,0.001000,0.001000,0.001000
1026.326923,-0.018344,0.001000,0.001000,0.001000,0.001000,0.001000
1026.346154,-0.017285,0.001000,0.001000,0.001000,0.001000,0.001000
1026.365385,-0.016217,0.001000,0.001000,0.001000,0.001000,0.001000
1026.384615,-0.015140,0.001000,0.001000,0.001000,0.001000,0.001000
1026.403846,-0.014056,0.001000,0.001000,0.001000,0.001000,0.001000
1026.423077,-0.012964,0.001000,0.001000,0.001000,0.001000,0.001000
1026.442308,-0.011866,0.001000,0.001000,0.001000,0.001000,0.001000
1026.461538,-0.010762,0.001000,0.001000,0.001000,0.001000,0.001000
1026.480769,-0.009652,0.001000,0.001000,0.001000,0.001000,0.001000
1026.500000,-0.008538,0.001000,0.001000,0.001000,0.001000,0.001000
1026.519231,-0.007418,0.001000,0.001000,0.001000,0.001000,0.001000
1026.538462,-0.006295,0.001000,0.001000,0.001000,0.001000,0.001000
1026.557692,-0.005169,0.001000,0.001000,0.001000,0.001000,0.001000
1026.576923,-0.004040,0.001000,0.001000,0.001000,0.001000,0.001000
1026.596154,-0.002910,0.001000,0.001000,0.001000,0.001000,0.001000
1026.615385,-0.001777,0.001000,0.001000,0.001000,0.001000,0.001000
1026.634615,-0.000644,0.001000,0.001000,0.001000,0.001000,0.001000
1026.653846,0.000490,0.001000,0.001000,0.001000,0.001000,0.001000
1026.673077,0.001623,0.001000,0.001000,0.001000,0.001000,0.001000
1026.692308,0.002756,0.001000,0.001000,0.001000,0.001000,0.001000
1026.711538,0.003887,0.001000,0.001000,0.001000,0.001000,0.001000
1026.730769,0.005016,0.001000,0.001000,0.001000,0.001000,0.001000
1026.750000,0.006143,0.001000,0.001000,0.001000,0.001000,0.001000
1026.769231,0.007266,0.001000,0.001000,0.001000,0.001000,0.001000
1026.788462,0.008386,0.001000,0.001000,0.001000,0.001000,0.001000
1026.807692,0.009501,0.001000,0.001000,0.001000,0.001000,0.001000
1026.826923,0.010612,0.001000,0.001000,0.001000,0.001000,0.001000
1026.846154,0.011717,0.001000,0.001000,0.001000,0.001000,0.001000
1026.865385,0.012816,0.001000,0.001000,0.001000,0.001000,0.001000
1026.884615,0.013908,0.001000,0.001000,0.001000,0.001000,0.001000
1026.903846,0.014993,0.001000,0.001000,0.001000,0.001000,0.001000
1026.923077,0.016071,0.001000,0.001000,0.001000,0.001000,0.001000
1026.942308,0.017140,0.001000,0.001000,0.001000,0.001000,0.001000
1026.961538,0.018201,0.001000,0.001000,0.001000,0.001000,0.001000
1026.980769,0.019252,0.001000,0.001000,0.001000,0.001000,0.001000
1027.000000,0.020293,0.001000,0.001000,0.001000,0.001000,0.001000
1027.019231,0.021324,0.001000,0.001000,0.001000,0.001000,0.001000
1027.038462,0.022344,0.001000,0.001000,0.001000,0.001000,0.001000
1027.057692,0.023352,0.001000,0.001000,0.001000,0.001000,0.001000
1027.076923,0.024349,0.001000,0.001000,0.001000,0.001000,0.001000
1027.096154,0.025332,0.001000,0.001000,0.001000,0.001000,0.001000
1027.115385,0.026303,0.001000,0.001000,0.001000,0.001000,0.001000
1027.134615,0.027261,0.001000,0.001000,0.001000,0.001000,0.001000
1027.153846,0.028204,0.001000,0.001000,0.001000,0.001000,0.001000
1027.173077,0.029133,0.001000,0.001000,0.001000,0.001000,0.001000
1027.192308,0.030046,0.001000,0.001000,0.001000,0.001000,0.001000
1027.211538,0.030945,0.001000,0.001000,0.001000,0.001000,0.001000
1027.230769,0.031827,0.001000,0.001000,0.001000,0.001000,0.001000
1027.250000,0.032693,0.001000,0.001000,0.001000,0.001000,0.001000
1027.269231,0.033543,0.001000,0.001000,0.001000,0.001000,0.001000
1027.288462,0.034375,0.001000,0.001000,0.001000,0.001000,0.001000
1027.307692,0.035189,0.001000,0.001000,0.001000,0.001000,0.001000
1027.326923,0.035985,0.001000,0.001000,0.001000,0.001000,0.001000
1027.346154,0.036763,0.001000,0.001000,0.001000,0.001000,0.001000
1027.365385,0.037522,0.001000,0.001000,0.001000,0.001000,0.001000
1027.384615,0.038261,0.001000,0.001000,0.001000,0.001000,0.001000
1027.403846,0.038981,0.001000,0.001000,0.001000,0.001000,0.001000
1027.423077,0.039681,0.001000,0.001000,0.001000,0.001000,0.001000
1027.442308,0.040361,0.001000,0.001000,0.001000,0.001000,0.001000
1027.461538,0.041019,0.001000,0.001000,0.001000,0.001000,0.001000
1027.480769,0.041657,0.001000,0.001000,0.001000,0.001000,0.001000
1027.500000,0.042273,0.001000,0.001000,0.001000,0.001000,0.001000
1027.519231,0.042868,0.001000,0.001000,0.001000,0.001000,0.001000
1027.538462,0.043440,0.001000,0.001000,0.001000,0.001000,0.001000
1027.557692,0.043990,0.001000,0.001000,0.001000,0.001000,0.001000
1027.576923,0.044518,0.001000,0.001000,0.001000,0.001000,0.001000
1027.596154,0.045023,0.001000,0.001000,0.001000,0.001000,0.001000
1027.615385,0.045504,0.001000,0.001000,0.001000,0.001000,0.001000
1027.634615,0.045962,0.001000,0.001000,0.001000,0.001000,0.001000
1027.653846,0.046397,0.001000,0.001000,0.001000,0.001000,0.001000
1027.673077,0.046807,0.001000,0.001000,0.001000,0.001000,0.001000
1027.692308,0.047194,0.001000,0.001000,0.001000,0.001000,0.001000
1027.711538,0.047556,0.001000,0.001000,0.001000,0.001000,0.001000
1027.730769,0.047894,0.001000,0.001000,0.001000,0.001000,0.001000
1027.750000,0.048207,0.001000,0.001000,0.001000,0.001000,0.001000
1027.769231,0.048496,0.001000,0.001000,0.001000,0.001000,0.001000
1027.788462,0.048759,0.001000,0.001000,0.001000,0.001000,0.001000
1027.807692,0.048998,0.001000,0.001000,0.001000,0.001000,0.001000
1027.826923,0.049211,0.001000,0.001000,0.001000,0.001000,0.001000
1027.846154,0.049399,0.001000,0.001000,0.001000,0.001000,0.001000
1027.865385,0.049561,0.001000,0.001000,0.001000,0.001000,0.001000
1027.884615,0.049698,0.001000,0.001000,0.001000,0.001000,0.001000
1027.903846,0.049810,0.001000,0.001000,0.001000,0.001000,0.001000
1027.923077,0.049896,0.001000,0.001000,0.001000,0.001000,0.001000
1027.942308,0.049956,0.001000,0.001000,0.001000,0.001000,0.001000
1027.961538,0.049991,0.001000,0.001000,0.001000,0.001000,0.001000
1027.980769,0.050000,0.001000,0.001000,0.001000,0.001000,0.001000
1028.000000,0.049983,0.001000,0.001000,0.001000,0.001000,0.001000
1028.019231,0.049940,0.001000,0.001000,0.001000,0.001000,0.001000
1028.038462,0.049872,0.001000,0.001000,0.001000,0.001000,0.001000
1028.057692,0.049778,0.001000,0.001000,0.001000,0.001000,0.001000
1028.076923,0.049659,0.001000,0.001000,0.001000,0.001000,0.001000
1028.096154,0.049514,0.001000,0.001000,0.001000,0.001000,0.001000
1028.115385,0.049344,0.001000,0.001000,0.001000,0.001000,0.001000
1028.134615,0.049148,0.001000,0.001000,0.001000,0.001000,0.001000
1028.153846,0.048927,0.001000,0.001000,0.001000,0.001000,0.001000
1028.173077,0.048681,0.001000,0.001000,0.001000,0.001000,0.001000
1028.192308,0.048410,0.001000,0.001000,0.001000,0.001000,0.001000
1028.211538,0.048114,0.001000,0.001000,0.001000,0.001000,0.001000
1028.230769,0.047793,0.001000,0.001000,0.001000,0.001000,0.001000
1028.250000,0.047447,0.001000,0.001000,0.001000,0.001000,0.001000
1028.269231,0.047078,0.001000,0.001000,0.001000,0.001000,0.001000
1028.288462,0.046684,0.001000,0.001000,0.001000,0.001000,0.001000
1028.307692,0.046266,0.001000,0.001000,0.001000,0.001000,0.001000
1028.326923,0.045824,0.001000,0.001000,0.001000,0.001000,0.001000
1028.346154,0.045359,0.001000,0.001000,0.001000,0.001000,0.001000
1028.365385,0.044870,0.001000,0.001000,0.001000,0.001000,0.001000
1028.384615,0.044358,0.001000,0.001000,0.001000,0.001000,0.001000
1028.403846,0.043824,0.001000,0.001000,0.001000,0.001000,0.001000
1028.423077,0.043267,0.001000,0.001000,0.001000,0.001000,0.001000
1028.442308,0.042687,0.001000,0.001000,0.001000,0.001000,0.001000
1028.461538,0.042086,0.001000,0.001000,0.001000,0.001000,0.001000
1028.480769,0.041463,0.001000,0.001000,0.001000,0.001000,0.001000
1028.500000,0.040819,0.001000,0.001000,0.001000,0.001000,0.001000
1028.519231,0.040154,0.001000,0.001000,0.001000,0.001000,0.001000
1028.538462,0.039468,0.001000,0.001000,0.001000,0.001000,0.001000
1028.557692,0.038762,0.001000,0.001000,0.001000,0.001000,0.001000
1028.576923,0.038036,0.001000,0.001000,0.001000,0.001000,0.001000
1028.596154,0.037291,0.001000,0.001000,0.001000,0.001000,0.001000
1028.615385,0.036526,0.001000,0.001000,0.001000,0.001000,0.001000
1028.634615,0.035742,0.001000,0.001000,0.001000,0.001000,0.001000
1028.653846,0.034940,0.001000,0.001000,0.001000,0.001000,0.001000
1028.673077,0.034121,0.001000,0.001000,0.001000,0.001000,0.001000
1028.692308,0.033283,0.001000,0.001000,0.001000,0.001000,0.001000
1028.711538,0.032429,0.001000,0.001000,0.001000,0.001000,0.001000
1028.730769,0.031558,0.001000,0.001000,0.001000,0.001000,0.001000
1028.750000,0.030670,0.001000,0.001000,0.001000,0.001000,0.001000
1028.769231,0.029767,0.001000,0.001000,0.001000,0.001000,0.001000
1028.788462,0.028849,0.001000,0.001000,0.001000,0.001000,0.001000
1028.807692,0.027915,0.001000,0.001000,0.001000,0.001000,0.001000
1028.826923,0.026968,0.001000,0.001000,0.001000,0.001000,0.001000
1028.846154,0.026006,0.001000,0.001000,0.001000,0.001000,0.001000
1028.865385,0.025031,0.001000,0.001000,0.001000,0.001000,0.001000
1028.884615,0.024044,0.001000,0.001000,0.001000,0.001000,0.001000
1028.903846,0.023043,0.001000,0.001000,0.001000,0.001000,0.001000
1028.923077,0.022032,0.001000,0.001000,0.001000,0.001000,0.001000
1028.942308,0.021008,0.001000,0.001000,0.001000,0.001000,0.001000
1028.961538,0.019974,0.001000,0.001000,0.001000,0.001000,0.001000
1028.980769,0.018930,0.001000,0.001000,0.001000,0.001000,0.001000
1029.000000,0.017876,0.001000,0.001000,0.001000,0.001000,0.001000
1029.019231,0.016812,0.001000,0.001000,0.001000,0.001000,0.001000
1029.038462,0.015741,0.001000,0.001000,0.001000,0.001000,0.001000
1029.057692,0.014661,0.001000,0.001000,0.001000,0.001000,0.001000
1029.076923,0.013573,0.001000,0.001000,0.001000,0.001000,0.001000
1029.096154,0.012479,0.001000,0.001000,0.001000,0.001000,0.001000
1029.115385,0.011378,0.001000,0.001000,0.001000,0.001000,0.001000
1029.134615,0.010271,0.001000,0.001000,0.001000,0.001000,0.001000
1029.153846,0.009159,0.001000,0.001000,0.001000,0.001000,0.001000
1029.173077,0.008042,0.001000,0.001000,0.001000,0.001000,0.001000
1029.192308,0.006921,0.001000,0.001000,0.001000,0.001000,0.001000
1029.211538,0.005797,0.001000,0.001000,0.001000,0.001000,0.001000
1029.230769,0.004669,0.001000,0.001000,0.001000,0.001000,0.001000
1029.250000,0.003539,0.001000,0.001000,0.001000,0.001000,0.001000
1029.269231,0.002408,0.001000,0.001000,0.001000,0.001000,0.001000
1029.288462,0.001275,0.001000,0.001000,0.001000,0.001000,0.001000
1029.307692,0.000141,0.001000,0.001000,0.001000,0.001000,0.001000
1029.326923,-0.000992,0.001000,0.001000,0.001000,0.001000,0.001000
1029.346154,-0.002125,0.001000,0.001000,0.001000,0.001000,0.001000
1029.365385,-0.003257,0.001000,0.001000,0.001000,0.001000,0.001000
1029.384615,-0.004388,0.001000,0.001000,0.001000,0.001000,0.001000
1029.403846,-0.005516,0.001000,0.001000,0.001000,0.001000,0.001000
1029.423077,-0.006641,0.001000,0.001000,0.001000,0.001000,0.001000
1029.442308,-0.007763,0.001000,0.001000,0.001000,0.001000,0.001000
1029.461538,-0.008881,0.001000,0.001000,0.001000,0.001000,0.001000
1029.480769,-0.009994,0.001000,0.001000,0.001000,0.001000,0.001000
1029.500000,-0.011102,0.001000,0.001000,0.001000,0.001000,0.001000
1029.519231,-0.012205,0.001000,0.001000,0.001000,0.001000,0.001000
1029.538462,-0.013301,0.001000,0.001000,0.001000,0.001000,0.001000
1029.557692,-0.014390,0.001000,0.001000,0.001000,0.001000,0.001000
1029.576923,-0.015472,0.001000,0.001000,0.001000,0.001000,0.001000
1029.596154,-0.016546,0.001000,0.001000,0.001000,0.001000,0.001000
1029.615385,-0.017611,0.001000,0.001000,0.001000,0.001000,0.001000
1029.634615,-0.018668,0.001000,0.001000,0.001000,0.001000,0.001000
1029.653846,-0.019715,0.001000,0.001000,0.001000,0.001000,0.001000
1029.673077,-0.020751,0.001000,0.001000,0.001000,0.001000,0.001000
1029.692308,-0.021777,0.001000,0.001000,0.001000,0.001000,0.001000
1029.711538,-0.022792,0.001000,0.001000,0.001000,0.001000,0.001000
1029.730769,-0.023795,0.001000,0.001000,0.001000,0.001000,0.001000
1029.750000,-0.024786,0.001000,0.001000,0.001000,0.001000,0.001000
1029.769231,-0.025764,0.001000,0.001000,0.001000,0.001000,0.001000
1029.788462,-0.026729,0.001000,0.001000,0.001000,0.001000,0.001000
1029.807692,-0.027680,0.001000,0.001000,0.001000,0.001000,0.001000
1029.826923,-0.028617,0.001000,0.001000,0.001000,0.001000,0.001000
1029.846154,-0.029539,0.001000,0.001000,0.001000,0.001000,0.001000
1029.865385,-0.030446,0.001000,0.001000,0.001000,0.001000,0.001000
1029.884615,-0.031338,0.001000,0.001000,0.001000,0.001000,0.001000
1029.903846,-0.032213,0.001000,0.001000,0.001000,0.001000,0.001000
1029.923077,-0.033072,0.001000,0.001000,0.001000,0.001000,0.001000
1029.942308,-0.033913,0.001000,0.001000,0.001000,0.001000,0.001000
1029.961538,-0.034738,0.001000,0.001000,0.001000,0.001000,0.001000
1029.980769,-0.035544,0.001000,0.001000,0.001000,0.001000,0.001000
1030.000000,0.000000,0.001000,0.001000,0.001000,0.001000,0.001000
1030.019231,0.001112,0.001000,0.001000,0.001000,0.001000,0.001000
1030.038462,0.002223,0.001000,0.001000,0.001000,0.001000,0.001000
1030.057692,0.003334,0.001000,0.001000,0.001000,0.001000,0.001000
1030.076923,0.004442,0.001000,0.001000,0.001000,0.001000,0.001000
1030.096154,0.005549,0.001000,0.001000,0.001000,0.001000,0.001000
1030.115385,0.006652,0.001000,0.001000,0.001000,0.001000,0.001000
1030.134615,0.007753,0.001000,0.001000,0.001000,0.001000,0.001000
1030.153846,0.008849,0.001000,0.001000,0.001000,0.001000,0.001000
1030.173077,0.009941,0.001000,0.001000,0.001000,0.001000,0.001000
1030.192308,0.011029,0.001000,0.001000,0.001000,0.001000,0.001000
1030.211538,0.012111,0.001000,0.001000,0.001000,0.001000,0.001000
1030.230769,0.013186,0.001000,0.001000,0.001000,0.001000,0.001000
1030.250000,0.014256,0.001000,0.001000,0.001000,0.001000,0.001000
1030.269231,0.015318,0.001000,0.001000,0.001000,0.001000,0.001000
1030.288462,0.016373,0.001000,0.001000,0.001000,0.001000,0.001000
1030.307692,0.017419,0.001000,0.001000,0.001000,0.001000,0.001000
1030.326923,0.018457,0.001000,0.001000,0.001000,0.001000,0.001000
1030.346154,0.019486,0.001000,0.001000,0.001000,0.001000,0.001000
1030.365385,0.020505,0.001000,0.001000,0.001000,0.001000,0.001000
1030.384615,0.021514,0.001000,0.001000,0.001000,0.001000,0.001000
1030.403846,0.022513,0.001000,0.001000,0.001000,0.001000,0.001000
1030.423077,0.023500,0.001000,0.001000,0.001000,0.001000,0.001000
1030.442308,0.024476,0.001000,0.001000,0.001000,0.001000,0.001000
1030.461538,0.025439,0.001000,0.001000,0.001000,0.001000,0.001000
1030.480769,0.026390,0.001000,0.001000,0.001000,0.001000,0.001000
1030.500000,0.027328,0.001000,0.001000,0.001000,0.001000,0.001000
1030.519231,0.028252,0.001000,0.001000,0.001000,0.001000,0.001000
1030.538462,0.029163,0.001000,0.001000,0.001000,0.001000,0.001000
1030.557692,0.030059,0.001000,0.001000,0.001000,0.001000,0.001000
1030.576923,0.030940,0.001000,0.001000,0.001000,0.001000,0.001000
1030.596154,0.031806,0.001000,0.001000,0.001000,0.001000,0.001000
1030.615385,0.032656,0.001000,0.001000,0.001000,0.001000,0.001000
1030.634615,0.033490,0.001000,0.001000,0.001000,0.001000,0.001000
1030.653846,0.034307,0.001000,0.001000,0.001000,0.001000,0.001000
1030.673077,0.035108,0.001000,0.001000,0.001000,0.001000,0.001000
1030.692308,0.035891,0.001000,0.001000,0.001000,0.001000,0.001000
1030.711538,0.036656,0.001000,0.001000,0.001000,0.001000,0.001000
1030.730769,0.037403,0.001000,0.001000,0.001000,0.001000,0.001000
1030.750000,0.038132,0.001000,0.001000,0.001000,0.001000,0.001000
1030.769231,0.038842,0.001000,0.001000,0.001000,0.001000,0.001000
1030.788462,0.039532,0.001000,0.001000,0.001000,0.001000,0.001000
1030.807692,0.040203,0.001000,0.001000,0.001000,0.001000,0.001000
1030.826923,0.040854,0.001000,0.001000,0.001000,0.001000,0.001000
1030.846154,0.041485,0.001000,0.001000,0.001000,0.001000,0.001000
1030.865385,0.042096,0.001000,0.001000,0.001000,0.001000,0.001000
1030.884615,0.042685,0.001000,0.001000,0.001000,0.001000,0.001000
1030.903846,0.043254,0.001000,0.001000,0.001000,0.001000,0.001000
1030.923077,0.043801,0.001000,0.001000,0.001000,0.001000,0.001000
1030.942308,0.044326,0.001000,0.001000,0.001000,0.001000,0.001000
1030.961538,0.044830,0.001000,0.001000,0.001000,0.001000,0.001000
1030.980769,0.045311,0.001000,0.001000,0.001000,0.001000,0.001000
1031.000000,0.045770,0.001000,0.001000,0.001000,0.001000,0.001000
1031.019231,0.046206,0.001000,0.001000,0.001000,0.001000,0.001000
1031.038462,0.046620,0.001000,0.001000,0.001000,0.001000,0.001000
1031.057692,0.047010,0.001000,0.001000,0.001000,0.001000,0.001000
1031.076923,0.047377,0.001000,0.001000,0.001000,0.001000,0.001000
1031.096154,0.047721,0.001000,0.001000,0.001000,0.001000,0.001000
1031.115385,0.048041,0.001000,0.001000,0.001000,0.001000,0.001000
1031.134615,0.048337,0.001000,0.001000,0.001000,0.001000,0.001000
1031.153846,0.048610,0.001000,0.001000,0.001000,0.001000,0.001000
1031.173077,0.048858,0.001000,0.001000,0.001000,0.001000,0.001000
1031.192308,0.049082,0.001000,0.001000,0.001000,0.001000,0.001000
1031.211538,0.049282,0.001000,0.001000,0.001000,0.001000,0.001000
1031.230769,0.049458,0.001000,0.001000,0.001000,0.001000,0.001000
1031.250000,0.049609,0.001000,0.001000,0.001000,0.001000,0.001000
1031.269231,0.049735,0.001000,0.001000,0.001000,0.001000,0.001000
1031.288462,0.049837,0.001000,0.001000,0.001000,0.001000,0.001000
1031.307692,0.049915,0.001000,0.001000,0.001000,0.001000,0.001000
1031.326923,0.049967,0.001000,0.001000,0.001000,0.001000,0.001000
1031.346154,0.049995,0.001000,0.001000,0.001000,0.001000,0.001000
1031.365385,0.049998,0.001000,0.001000,0.001000,0.001000,0.001000
1031.384615,0.049977,0.001000,0.001000,0.001000,0.001000,0.001000
1031.403846,0.049930,0.001000,0.001000,0.001000,0.001000,0.001000
1031.423077,0.049859,0.001000,0.001000,0.001000,0.001000,0.001000
1031.442308,0.049764,0.001000,0.001000,0.001000,0.001000,0.001000
1031.461538,0.049644,0.001000,0.001000,0.001000,0.001000,0.001000
1031.480769,0.049499,0.001000,0.001000,0.001000,0.001000,0.001000
1031.500000,0.049329,0.001000,0.001000,0.001000,0.001000,0.001000
1031.519231,0.049136,0.001000,0.001000,0.001000,0.001000,0.001000
1031.538462,0.048918,0.001000,0.001000,0.001000,0.001000,0.001000
1031.557692,0.048676,0.001000,0.001000,0.001000,0.001000,0.001000
1031.576923,0.048409,0.001000,0.001000,0.001000,0.001000,0.001000
1031.596154,0.048119,0.001000,0.001000,0.001000,0.001000,0.001000
1031.615385,0.047805,0.001000,0.001000,0.001000,0.001000,0.001000
1031.634615,0.047467,0.001000,0.001000,0.001000,0.001000,0.001000
1031.653846,0.047106,0.001000,0.001000,0.001000,0.001000,0.001000
1031.673077,0.046722,0.001000,0.001000,0.001000,0.001000,0.001000
1031.692308,0.046314,0.001000,0.001000,0.001000,0.001000,0.001000
1031.711538,0.045884,0.001000,0.001000,0.001000,0.001000,0.001000
1031.730769,0.045431,0.001000,0.001000,0.001000,0.001000,0.001000
1031.750000,0.044955,0.001000,0.001000,0.001000,0.001000,0.001000
1031.769231,0.044457,0.001000,0.001000,0.001000,0.001000,0.001000
1031.788462,0.043937,0.001000,0.001000,0.001000,0.001000,0.001000
1031.807692,0.043396,0.001000,0.001000,0.001000,0.001000,0.001000
1031.826923,0.042833,0.001000,0.001000,0.001000,0.001000,0.001000
1031.846154,0.042249,0.001000,0.001000,0.001000,0.001000,0.001000
1031.865385,0.041643,0.001000,0.001000,0.001000,0.001000,0.001000
1031.884615,0.041018,0.001000,0.001000,0.001000,0.001000,0.001000
1031.903846,0.040372,0.001000,0.001000,0.001000,0.001000,0.001000
1031.923077,0.039706,0.001000,0.001000,0.001000,0.001000,0.001000
1031.942308,0.039020,0.001000,0.001000,0.001000,0.001000,0.001000
1031.961538,0.038315,0.001000,0.001000,0.001000,0.001000,0.001000
1031.980769,0.037591,0.001000,0.001000,0.001000,0.001000,0.001000
1032.000000,0.036849,0.001000,0.001000,0.001000,0.001000,0.001000
1032.019231,0.036088,0.001000,0.001000,0.001000,0.001000,0.001000
1032.038462,0.035310,0.001000,0.001000,0.001000,0.001000,0.001000
1032.057692,0.034514,0.001000,0.001000,0.001000,0.001000,0.001000
1032.076923,0.033701,0.001000,0.001000,0.001000,0.001000,0.001000
1032.096154,0.032871,0.001000,0.001000,0.001000,0.001000,0.001000
1032.115385,0.032025,0.001000,0.001000,0.001000,0.001000,0.001000
1032.134615,0.031163,0.001000,0.001000,0.001000,0.001000,0.001000
1032.153846,0.030286,0.001000,0.001000,0.001000,0.001000,0.001000
1032.173077,0.029394,0.001000,0.001000,0.001000,0.001000,0.001000
1032.192308,0.028487,0.001000,0.001000,0.001000,0.001000,0.001000
1032.211538,0.027566,0.001000,0.001000,0.001000,0.001000,0.001000
1032.230769,0.026631,0.001000,0.001000,0.001000,0.001000,0.001000
1032.250000,0.025684,0.001000,0.001000,0.001000,0.001000,0.001000
1032.269231,0.024723,0.001000,0.001000,0.001000,0.001000,0.001000
1032.288462,0.023751,0.001000,0.001000,0.001000,0.001000,0.001000
1032.307692,0.022766,0.001000,0.001000,0.001000,0.001000,0.001000
1032.326923,0.021771,0.001000,0.001000,0.001000,0.001000,0.001000
1032.346154,0.020764,0.001000,0.001000,0.001000,0.001000,0.001000
1032.365385,0.019748,0.001000,0.001000,0.001000,0.001000,0.001000
1032.384615,0.018721,0.001000,0.001000,0.001000,0.001000,0.001000
1032.403846,0.017686,0.001000,0.001000,0.001000,0.001000,0.001000
1032.423077,0.016641,0.001000,0.001000,0.001000,0.001000,0.001000
1032.442308,0.015589,0.001000,0.001000,0.001000,0.001000,0.001000
1032.461538,0.014528,0.001000,0.001000,0.001000,0.001000,0.001000
1032.480769,0.013461,0.001000,0.001000,0.001000,0.001000,0.001000
1032.500000,0.012386,0.001000,0.001000,0.001000,0.001000,0.001000
1032.519231,0.011306,0.001000,0.001000,0.001000,0.001000,0.001000
1032.538462,0.010220,0.001000,0.001000,0.001000,0.001000,0.001000
1032.557692,0.009129,0.001000,0.001000,0.001000,0.001000,0.001000
1032.576923,0.008034,0.001000,0.001000,0.001000,0.001000,0.001000
1032.596154,0.006934,0.001000,0.001000,0.001000,0.001000,0.001000
1032.615385,0.005831,0.001000,0.001000,0.001000,0.001000,0.001000
1032.634615,0.004726,0.001000,0.001000,0.001000,0.001000,0.001000
1032.653846,0.003617,0.001000,0.001000,0.001000,0.001000,0.001000
1032.673077,0.002508,0.001000,0.001000,0.001000,0.001000,0.001000
1032.692308,0.001396,0.001000,0.001000,0.001000,0.001000,0.001000
1032.711538,0.000285,0.001000,0.001000,0.001000,0.001000,0.001000
1032.730769,-0.000827,0.001000,0.001000,0.001000,0.001000,0.001000
1032.750000,-0.001939,0.001000,0.001000,0.001000,0.001000,0.001000
1032.769231,-0.003050,0.001000,0.001000,0.001000,0.001000,0.001000
1032.788462,-0.004159,0.001000,0.001000,0.001000,0.001000,0.001000
1032.807692,-0.005266,0.001000,0.001000,0.001000,0.001000,0.001000
1032.826923,-0.006370,0.001000,0.001000,0.001000,0.001000,0.001000
1032.846154,-0.007471,0.001000,0.001000,0.001000,0.001000,0.001000
1032.865385,-0.008569,0.001000,0.001000,0.001000,0.001000,0.001000
1032.884615,-0.009662,0.001000,0.001000,0.001000,0.001000,0.001000
1032.903846,-0.010751,0.001000,0.001000,0.001000,0.001000,0.001000
1032.923077,-0.011834,0.001000,0.001000,0.001000,0.001000,0.001000
1032.942308,-0.012912,0.001000,0.001000,0.001000,0.001000,0.001000
1032.961538,-0.013983,0.001000,0.001000,0.001000,0.001000,0.001000
1032.980769,-0.015047,0.001000,0.001000,0.001000,0.001000,0.001000
1033.000000,-0.016103,0.001000,0.001000,0.001000,0.001000,0.001000
1033.019231,-0.017152,0.001000,0.001000,0.001000,0.001000,0.001000
1033.038462,-0.018192,0.001000,0.001000,0.001000,0.001000,0.001000
1033.057692,-0.019224,0.001000,0.001000,0.001000,0.001000,0.001000
1033.076923,-0.020245,0.001000,0.001000,0.001000,0.001000,0.001000
1033.096154,-0.021257,0.001000,0.001000,0.001000,0.001000,0.001000
1033.115385,-0.022258,0.001000,0.001000,0.001000,0.001000,0.001000
1033.134615,-0.023248,0.001000,0.001000,0.001000,0.001000,0.001000
1033.153846,-0.024227,0.001000,0.001000,0.001000,0.001000,0.001000
1033.173077,-0.025194,0.001000,0.001000,0.001000,0.001000,0.001000
1033.192308,-0.026148,0.001000,0.001000,0.001000,0.001000,0.001000
1033.211538,-0.027089,0.001000,0.001000,0.001000,0.001000,0.001000
1033.230769,-0.028017,0.001000,0.001000,0.001000,0.001000,0.001000
1033.250000,-0.028931,0.001000,0.001000,0.001000,0.001000,0.001000
1033.269231,-0.029831,0.001000,0.001000,0.001000,0.001000,0.001000
1033.288462,-0.030716,0.001000,0.001000,0.001000,0.001000,0.001000
1033.307692,-0.031586,0.001000,0.001000,0.001000,0.001000,0.001000
1033.326923,-0.032440,0.001000,0.001000,0.001000,0.001000,0.001000
1033.346154,-0.033278,0.001000,0.001000,0.001000,0.001000,0.001000
1033.365385,-0.034100,0.001000,0.001000,0.001000,0.001000,0.001000
1033.384615,-0.034904,0.001000,0.001000,0.001000,0.001000,0.001000
1033.403846,-0.035692,0.001000,0.001000,0.001000,0.001000,0.001000
1033.423077,-0.036462,0.001000,0.001000,0.001000,0.001000,0.001000
1033.442308,-0.037214,0.001000,0.001000,0.001000,0.001000,0.001000
1033.461538,-0.037947,0.001000,0.001000,0.001000,0.001000,0.001000
1033.480769,-0.038662,0.001000,0.001000,0.001000,0.001000,0.001000
1033.500000,-0.039357,0.001000,0.001000,0.001000,0.001000,0.001000
1033.519231,-0.040033,0.001000,0.001000,0.001000,0.001000,0.001000
1033.538462,-0.040690,0.001000,0.001000,0.001000,0.001000,0.001000
1033.557692,-0.041326,0.001000,0.001000,0.001000,0.001000,0.001000
1033.576923,-0.041941,0.001000,0.001000,0.001000,0.001000,0.001000
1033.596154,-0.042536,0.001000,0.001000,0.001000,0.001000,0.001000
1033.615385,-0.043110,0.001000,0.001000,0.001000,0.001000,0.001000
1033.634615,-0.043663,0.001000,0.001000,0.001000,0.001000,0.001000
1033.653846,-0.044194,0.001000,0.001000,0.001000,0.001000,0.001000
1033.673077,-0.044703,0.001000,0.001000,0.001000,0.001000,0.001000
1033.692308,-0.045190,0.001000,0.001000,0.001000,0.001000,0.001000
1033.711538,-0.045655,0.001000,0.001000,0.001000,0.001000,0.001000
1033.730769,-0.046097,0.001000,0.001000,0.001000,0.001000,0.001000
1033.750000,-0.046516,0.001000,0.001000,0.001000,0.001000,0.001000
1033.769231,-0.046912,0.001000,0.001000,0.001000,0.001000,0.001000
1033.788462,-0.047286,0.001000,0.001000,0.001000,0.001000,0.001000
1033.807692,-0.047635,0.001000,0.001000,0.001000,0.001000,0.001000
1033.826923,-0.047961,0.001000,0.001000,0.001000,0.001000,0.001000
1033.846154,-0.048264,0.001000,0.001000,0.001000,0.001000,0.001000
1033.865385,-0.048542,0.001000,0.001000,0.001000,0.001000,0.001000
1033.884615,-0.048797,0.001000,0.001000,0.001000,0.001000,0.001000
1033.903846,-0.049027,0.001000,0.001000,0.001000,0.001000,0.001000
1033.923077,-0.049233,0.001000,0.001000,0.001000,0.001000,0.001000
1033.942308,-0.049415,0.001000,0.001000,0.001000,0.001000,0.001000
1033.961538,-0.049573,0.001000,0.001000,0.001000,0.001000,0.001000
1033.980769,-0.049705,0.001000,0.001000,0.001000,0.001000,0.001000
1034.000000,-0.049814,0.001000,0.001000,0.001000,0.001000,0.001000
1034.019231,-0.049897,0.001000,0.001000,0.001000,0.001000,0.001000
1034.038462,-0.049956,0.001000,0.001000,0.001000,0.001000,0.001000
1034.057692,-0.049990,0.001000,0.001000,0.001000,0.001000,0.001000
1034.076923,-0.050000,0.001000,0.001000,0.001000,0.001000,0.001000
1034.096154,-0.049985,0.001000,0.001000,0.001000,0.001000,0.001000
1034.115385,-0.049945,0.001000,0.001000,0.001000,0.001000,0.001000
1034.134615,-0.049880,0.001000,0.001000,0.001000,0.001000,0.001000
1034.153846,-0.049791,0.001000,0.001000,0.001000,0.001000,0.001000
1034.173077,-0.049677,0.001000,0.001000,0.001000,0.001000,0.001000
1034.192308,-0.049538,0.001000,0.001000,0.001000,0.001000,0.001000
1034.211538,-0.049375,0.001000,0.001000,0.001000,0.001000,0.001000
1034.230769,-0.049188,0.001000,0.001000,0.001000,0.001000,0.001000
1034.250000,-0.048976,0.001000,0.001000,0.001000,0.001000,0.001000
1034.269231,-0.048740,0.001000,0.001000,0.001000,0.001000,0.001000
1034.288462,-0.048480,0.001000,0.001000,0.001000,0.001000,0.001000
1034.307692,-0.048196,0.001000,0.001000,0.001000,0.001000,0.001000
1034.326923,-0.047888,0.001000,0.001000,0.001000,0.001000,0.001000
1034.346154,-0.047556,0.001000,0.001000,0.001000,0.001000,0.001000
1034.365385,-0.047201,0.001000,0.001000,0.001000,0.001000,0.001000
1034.384615,-0.046822,0.001000,0.001000,0.001000,0.001000,0.001000
1034.403846,-0.046421,0.001000,0.001000,0.001000,0.001000,0.001000
1034.423077,-0.045996,0.001000,0.001000,0.001000,0.001000,0.001000
1034.442308,-0.045549,0.001000,0.001000,0.001000,0.001000,0.001000
1034.461538,-0.045079,0.001000,0.001000,0.001000,0.001000,0.001000
1034.480769,-0.044587,0.001000,0.001000,0.001000,0.001000,0.001000
1034.500000,-0.044073,0.001000,0.001000,0.001000,0.001000,0.001000
1034.519231,-0.043536,0.001000,0.001000,0.001000,0.001000,0.001000
1034.538462,-0.042979,0.001000,0.001000,0.001000,0.001000,0.001000
1034.557692,-0.042400,0.001000,0.001000,0.001000,0.001000,0.001000
1034.576923,-0.041800,0.001000,0.001000,0.001000,0.001000,0.001000
1034.596154,-0.041180,0.001000,0.001000,0.001000,0.001000,0.001000
1034.615385,-0.040539,0.001000,0.001000,0.001000,0.001000,0.001000
1034.634615,-0.039878,0.001000,0.001000,0.001000,0.001000,0.001000
1034.653846,-0.039197,0.001000,0.001000,0.001000,0.001000,0.001000
1034.673077,-0.038497,0.001000,0.001000,0.001000,0.001000,0.001000
1034.692308,-0.037778,0.001000,0.001000,0.001000,0.001000,0.001000
