timestamp,ax,ay,az,gx,gy,gz
1000.000000,0.000000,0.001000,0.001000,0.001000,0.001000,0.001000
1000.019231,0.001188,0.001000,0.001000,0.001000,0.001000,0.001000
1000.038462,0.002375,0.001000,0.001000,0.001000,0.001000,0.001000
1000.057692,0.003561,0.001000,0.001000,0.001000,0.001000,0.001000
1000.076923,0.004745,0.001000,0.001000,0.001000,0.001000,0.001000
1000.096154,0.005926,0.001000,0.001000,0.001000,0.001000,0.001000
1000.115385,0.007104,0.001000,0.001000,0.001000,0.001000,0.001000
1000.134615,0.008277,0.001000,0.001000,0.001000,0.001000,0.001000
1000.153846,0.009447,0.001000,0.001000,0.001000,0.001000,0.001000
1000.173077,0.010610,0.001000,0.001000,0.001000,0.001000,0.001000
1000.192308,0.011768,0.001000,0.001000,0.001000,0.001000,0.001000
1000.211538,0.012919,0.001000,0.001000,0.001000,0.001000,0.001000
1000.230769,0.014063,0.001000,0.001000,0.001000,0.001000,0.001000
1000.250000,0.015199,0.001000,0.001000,0.001000,0.001000,0.001000
1000.269231,0.016327,0.001000,0.001000,0.001000,0.001000,0.001000
1000.288462,0.017445,0.001000,0.001000,0.001000,0.001000,0.001000
1000.307692,0.018553,0.001000,0.001000,0.001000,0.001000,0.001000
1000.326923,0.019651,0.001000,0.001000,0.001000,0.001000,0.001000
1000.346154,0.020738,0.001000,0.001000,0.001000,0.001000,0.001000
1000.365385,0.021813,0.001000,0.001000,0.001000,0.001000,0.001000
1000.384615,0.022875,0.001000,0.001000,0.001000,0.001000,0.001000
1000.403846,0.023925,0.001000,0.001000,0.001000,0.001000,0.001000
1000.423077,0.024961,0.001000,0.001000,0.001000,0.001000,0.001000
1000.442308,0.025984,0.001000,0.001000,0.001000,0.001000,0.001000
1000.461538,0.026991,0.001000,0.001000,0.001000,0.001000,0.001000
1000.480769,0.027983,0.001000,0.001000,0.001000,0.001000,0.001000
1000.500000,0.028960,0.001000,0.001000,0.001000,0.001000,0.001000
1000.519231,0.029920,0.001000,0.001000,0.001000,0.001000,0.001000
1000.538462,0.030863,0.001000,0.001000,0.001000,0.001000,0.001000
1000.557692,0.031789,0.001000,0.001000,0.001000,0.001000,0.001000
1000.576923,0.032697,0.001000,0.001000,0.001000,0.001000,0.001000
1000.596154,0.033586,0.001000,0.001000,0.001000,0.001000,0.001000
1000.615385,0.034457,0.001000,0.001000,0.001000,0.001000,0.001000
1000.634615,0.035308,0.001000,0.001000,0.001000,0.001000,0.001000
1000.653846,0.036139,0.001000,0.001000,0.001000,0.001000,0.001000
1000.673077,0.036950,0.001000,0.001000,0.001000,0.001000,0.001000
1000.692308,0.037740,0.001000,0.001000,0.001000,0.001000,0.001000
1000.711538,0.038508,0.001000,0.001000,0.001000,0.001000,0.001000
1000.730769,0.039255,0.001000,0.001000,0.001000,0.001000,0.001000
1000.750000,0.039980,0.001000,0.001000,0.001000,0.001000,0.001000
1000.769231,0.040682,0.001000,0.001000,0.001000,0.001000,0.001000
1000.788462,0.041361,0.001000,0.001000,0.001000,0.001000,0.001000
1000.807692,0.042017,0.001000,0.001000,0.001000,0.001000,0.001000
1000.826923,0.042649,0.001000,0.001000,0.001000,0.001000,0.001000
1000.846154,0.043257,0.001000,0.001000,0.001000,0.001000,0.001000
1000.865385,0.043840,0.001000,0.001000,0.001000,0.001000,0.001000
1000.884615,0.044399,0.001000,0.001000,0.001000,0.001000,0.001000
1000.903846,0.044933,0.001000,0.001000,0.001000,0.001000,0.001000
1000.923077,0.045441,0.001000,0.001000,0.001000,0.001000,0.001000
1000.942308,0.045924,0.001000,0.001000,0.001000,0.001000,0.001000
1000.961538,0.046381,0.001000,0.001000,0.001000,0.001000,0.001000
1000.980769,0.046811,0.001000,0.001000,0.001000,0.001000,0.001000
1001.000000,0.047215,0.001000,0.001000,0.001000,0.001000,0.001000
1001.019231,0.047593,0.001000,0.001000,0.001000,0.001000,0.001000
1001.038462,0.047944,0.001000,0.001000,0.001000,0.001000,0.001000
1001.057692,0.048267,0.001000,0.001000,0.001000,0.001000,0.001000
1001.076923,0.048564,0.001000,0.001000,0.001000,0.001000,0.001000
1001.096154,0.048833,0.001000,0.001000,0.001000,0.001000,0.001000
1001.115385,0.049074,0.001000,0.001000,0.001000,0.001000,0.001000
1001.134615,0.049288,0.001000,0.001000,0.001000,0.001000,0.001000
1001.153846,0.049474,0.001000,0.001000,0.001000,0.001000,0.001000
1001.173077,0.049632,0.001000,0.001000,0.001000,0.001000,0.001000
1001.192308,0.049761,0.001000,0.001000,0.001000,0.001000,0.001000
1001.211538,0.049863,0.001000,0.001000,0.001000,0.001000,0.001000
1001.230769,0.049937,0.001000,0.001000,0.001000,0.001000,0.001000
1001.250000,0.049983,0.001000,0.001000,0.001000,0.001000,0.001000
1001.269231,0.050000,0.001000,0.001000,0.001000,0.001000,0.001000
1001.288462,0.049989,0.001000,0.001000,0.001000,0.001000,0.001000
1001.307692,0.049950,0.001000,0.001000,0.001000,0.001000,0.001000
1001.326923,0.049882,0.001000,0.001000,0.001000,0.001000,0.001000
1001.346154,0.049787,0.001000,0.001000,0.001000,0.001000,0.001000
1001.365385,0.049663,0.001000,0.001000,0.001000,0.001000,0.001000
1001.384615,0.049512,0.001000,0.001000,0.001000,0.001000,0.001000
1001.403846,0.049332,0.001000,0.001000,0.001000,0.001000,0.001000
1001.423077,0.049125,0.001000,0.001000,0.001000,0.001000,0.001000
1001.442308,0.048889,0.001000,0.001000,0.001000,0.001000,0.001000
1001.461538,0.048627,0.001000,0.001000,0.001000,0.001000,0.001000
1001.480769,0.048336,0.001000,0.001000,0.001000,0.001000,0.001000
1001.500000,0.048019,0.001000,0.001000,0.001000,0.001000,0.001000
1001.519231,0.047674,0.001000,0.001000,0.001000,0.001000,0.001000
1001.538462,0.047303,0.001000,0.001000,0.001000,0.001000,0.001000
1001.557692,0.046905,0.001000,0.001000,0.001000,0.001000,0.001000
1001.576923,0.046480,0.001000,0.001000,0.001000,0.001000,0.001000
1001.596154,0.046029,0.001000,0.001000,0.001000,0.001000,0.001000
1001.615385,0.045552,0.001000,0.001000,0.001000,0.001000,0.001000
1001.634615,0.045050,0.001000,0.001000,0.001000,0.001000,0.001000
1001.653846,0.044521,0.001000,0.001000,0.001000,0.001000,0.001000
1001.673077,0.043968,0.001000,0.001000,0.001000,0.001000,0.001000
1001.692308,0.043390,0.001000,0.001000,0.001000,0.001000,0.001000
1001.711538,0.042788,0.001000,0.001000,0.001000,0.001000,0.001000
1001.730769,0.042161,0.001000,0.001000,0.001000,0.001000,0.001000
1001.750000,0.041511,0.001000,0.001000,0.001000,0.001000,0.001000
1001.769231,0.040837,0.001000,0.001000,0.001000,0.001000,0.001000
1001.788462,0.040140,0.001000,0.001000,0.001000,0.001000,0.001000
1001.807692,0.039420,0.001000,0.001000,0.001000,0.001000,0.001000
1001.826923,0.038678,0.001000,0.001000,0.001000,0.001000,0.001000
1001.846154,0.037915,0.001000,0.001000,0.001000,0.001000,0.001000
1001.865385,0.037130,0.001000,0.001000,0.001000,0.001000,0.001000
1001.884615,0.036324,0.001000,0.001000,0.001000,0.001000,0.001000
1001.903846,0.035497,0.001000,0.001000,0.001000,0.001000,0.001000
1001.923077,0.034651,0.001000,0.001000,0.001000,0.001000,0.001000
1001.942308,0.033784,0.001000,0.001000,0.001000,0.001000,0.001000
1001.961538,0.032899,0.001000,0.001000,0.001000,0.001000,0.001000
1001.980769,0.031995,0.001000,0.001000,0.001000,0.001000,0.001000
1002.000000,0.031074,0.001000,0.001000,0.001000,0.001000,0.001000
1002.019231,0.030134,0.001000,0.001000,0.001000,0.001000,0.001000
1002.038462,0.029178,0.001000,0.001000,0.001000,0.001000,0.001000
1002.057692,0.028205,0.001000,0.001000,0.001000,0.001000,0.001000
1002.076923,0.027216,0.001000,0.001000,0.001000,0.001000,0.001000
1002.096154,0.026212,0.001000,0.001000,0.001000,0.001000,0.001000
1002.115385,0.025193,0.001000,0.001000,0.001000,0.001000,0.001000
1002.134615,0.024160,0.001000,0.001000,0.001000,0.001000,0.001000
1002.153846,0.023113,0.001000,0.001000,0.001000,0.001000,0.001000
1002.173077,0.022053,0.001000,0.001000,0.001000,0.001000,0.001000
1002.192308,0.020981,0.001000,0.001000,0.001000,0.001000,0.001000
1002.211538,0.019897,0.001000,0.001000,0.001000,0.001000,0.001000
1002.230769,0.018801,0.001000,0.001000,0.001000,0.001000,0.001000
1002.250000,0.017695,0.001000,0.001000,0.001000,0.001000,0.001000
1002.269231,0.016579,0.001000,0.001000,0.001000,0.001000,0.001000
1002.288462,0.015454,0.001000,0.001000,0.001000,0.001000,0.001000
1002.307692,0.014320,0.001000,0.001000,0.001000,0.001000,0.001000
1002.326923,0.013178,0.001000,0.001000,0.001000,0.001000,0.001000
1002.346154,0.012028,0.001000,0.001000,0.001000,0.001000,0.001000
1002.365385,0.010872,0.001000,0.001000,0.001000,0.001000,0.001000
1002.384615,0.009709,0.001000,0.001000,0.001000,0.001000,0.001000
1002.403846,0.008542,0.001000,0.001000,0.001000,0.001000,0.001000
1002.423077,0.007369,0.001000,0.001000,0.001000,0.001000,0.001000
1002.442308,0.006192,0.001000,0.001000,0.001000,0.001000,0.001000
1002.461538,0.005011,0.001000,0.001000,0.001000,0.001000,0.001000
1002.480769,0.003828,0.001000,0.001000,0.001000,0.001000,0.001000
1002.500000,0.002643,0.001000,0.001000,0.001000,0.001000,0.001000
1002.519231,0.001456,0.001000,0.001000,0.001000,0.001000,0.001000
1002.538462,0.000268,0.001000,0.001000,0.001000,0.001000,0.001000
1002.557692,-0.000920,0.001000,0.001000,0.001000,0.001000,0.001000
1002.576923,-0.002107,0.001000,0.001000,0.001000,0.001000,0.001000
1002.596154,-0.003294,0.001000,0.001000,0.001000,0.001000,0.001000
1002.615385,-0.004478,0.001000,0.001000,0.001000,0.001000,0.001000
1002.634615,-0.005660,0.001000,0.001000,0.001000,0.001000,0.001000
1002.653846,-0.006838,0.001000,0.001000,0.001000,0.001000,0.001000
1002.673077,-0.008013,0.001000,0.001000,0.001000,0.001000,0.001000
1002.692308,-0.009183,0.001000,0.001000,0.001000,0.001000,0.001000
1002.711538,-0.010349,0.001000,0.001000,0.001000,0.001000,0.001000
1002.730769,-0.011508,0.001000,0.001000,0.001000,0.001000,0.001000
1002.750000,-0.012660,0.001000,0.001000,0.001000,0.001000,0.001000
1002.769231,-0.013806,0.001000,0.001000,0.001000,0.001000,0.001000
1002.788462,-0.014944,0.001000,0.001000,0.001000,0.001000,0.001000
1002.807692,-0.016073,0.001000,0.001000,0.001000,0.001000,0.001000
1002.826923,-0.017193,0.001000,0.001000,0.001000,0.001000,0.001000
1002.846154,-0.018304,0.001000,0.001000,0.001000,0.001000,0.001000
1002.865385,-0.019404,0.001000,0.001000,0.001000,0.001000,0.001000
1002.884615,-0.020494,0.001000,0.001000,0.001000,0.001000,0.001000
1002.903846,-0.021571,0.001000,0.001000,0.001000,0.001000,0.001000
1002.923077,-0.022637,0.001000,0.001000,0.001000,0.001000,0.001000
1002.942308,-0.023690,0.001000,0.001000,0.001000,0.001000,0.001000
1002.961538,-0.024729,0.001000,0.001000,0.001000,0.001000,0.001000
1002.980769,-0.025754,0.001000,0.001000,0.001000,0.001000,0.001000
1003.000000,-0.026765,0.001000,0.001000,0.001000,0.001000,0.001000
1003.019231,-0.027761,0.001000,0.001000,0.001000,0.001000,0.001000
1003.038462,-0.028741,0.001000,0.001000,0.001000,0.001000,0.001000
1003.057692,-0.029705,0.001000,0.001000,0.001000,0.001000,0.001000
1003.076923,-0.030652,0.001000,0.001000,0.001000,0.001000,0.001000
1003.096154,-0.031582,0.001000,0.001000,0.001000,0.001000,0.001000
1003.115385,-0.032494,0.001000,0.001000,0.001000,0.001000,0.001000
1003.134615,-0.033388,0.001000,0.001000,0.001000,0.001000,0.001000
1003.153846,-0.034262,0.001000,0.001000,0.001000,0.001000,0.001000
1003.173077,-0.035118,0.001000,0.001000,0.001000,0.001000,0.001000
1003.192308,-0.035953,0.001000,0.001000,0.001000,0.001000,0.001000
1003.211538,-0.036769,0.001000,0.001000,0.001000,0.001000,0.001000
1003.230769,-0.037563,0.001000,0.001000,0.001000,0.001000,0.001000
1003.250000,-0.038337,0.001000,0.001000,0.001000,0.001000,0.001000
1003.269231,-0.039088,0.001000,0.001000,0.001000,0.001000,0.001000
1003.288462,-0.039818,0.001000,0.001000,0.001000,0.001000,0.001000
1003.307692,-0.040525,0.001000,0.001000,0.001000,0.001000,0.001000
1003.326923,-0.041210,0.001000,0.001000,0.001000,0.001000,0.001000
1003.346154,-0.041871,0.001000,0.001000,0.001000,0.001000,0.001000
1003.365385,-0.042508,0.001000,0.001000,0.001000,0.001000,0.001000
1003.384615,-0.043122,0.001000,0.001000,0.001000,0.001000,0.001000
1003.403846,-0.043711,0.001000,0.001000,0.001000,0.001000,0.001000
1003.423077,-0.044275,0.001000,0.001000,0.001000,0.001000,0.001000
1003.442308,-0.044815,0.001000,0.001000,0.001000,0.001000,0.001000
1003.461538,-0.045329,0.001000,0.001000,0.001000,0.001000,0.001000
1003.480769,-0.045817,0.001000,0.001000,0.001000,0.001000,0.001000
1003.500000,-0.046280,0.001000,0.001000,0.001000,0.001000,0.001000
1003.519231,-0.046716,0.001000,0.001000,0.001000,0.001000,0.001000
1003.538462,-0.047127,0.001000,0.001000,0.001000,0.001000,0.001000
1003.557692,-0.047510,0.001000,0.001000,0.001000,0.001000,0.001000
1003.576923,-0.047867,0.001000,0.001000,0.001000,0.001000,0.001000
1003.596154,-0.048197,0.001000,0.001000,0.001000,0.001000,0.001000
1003.615385,-0.048499,0.001000,0.001000,0.001000,0.001000,0.001000
1003.634615,-0.048774,0.001000,0.001000,0.001000,0.001000,0.001000
1003.653846,-0.049022,0.001000,0.001000,0.001000,0.001000,0.001000
1003.673077,-0.049242,0.001000,0.001000,0.001000,0.001000,0.001000
1003.692308,-0.049434,0.001000,0.001000,0.001000,0.001000,0.001000
1003.711538,-0.049598,0.001000,0.001000,0.001000,0.001000,0.001000
1003.730769,-0.049735,0.001000,0.001000,0.001000,0.001000,0.001000
1003.750000,-0.049843,0.001000,0.001000,0.001000,0.001000,0.001000
1003.769231,-0.049923,0.001000,0.001000,0.001000,0.001000,0.001000
1003.788462,-0.049975,0.001000,0.001000,0.001000,0.001000,0.001000
1003.807692,-0.049998,0.001000,0.001000,0.001000,0.001000,0.001000
1003.826923,-0.049994,0.001000,0.001000,0.001000,0.001000,0.001000
1003.846154,-0.049961,0.001000,0.001000,0.001000,0.001000,0.001000
1003.865385,-0.049900,0.001000,0.001000,0.001000,0.001000,0.001000
1003.884615,-0.049811,0.001000,0.001000,0.001000,0.001000,0.001000
1003.903846,-0.049694,0.001000,0.001000,0.001000,0.001000,0.001000
1003.923077,-0.049548,0.001000,0.001000,0.001000,0.001000,0.001000
1003.942308,-0.049375,0.001000,0.001000,0.001000,0.001000,0.001000
1003.961538,-0.049174,0.001000,0.001000,0.001000,0.001000,0.001000
1003.980769,-0.048945,0.001000,0.001000,0.001000,0.001000,0.001000
1004.000000,-0.048688,0.001000,0.001000,0.001000,0.001000,0.001000
1004.019231,-0.048404,0.001000,0.001000,0.001000,0.001000,0.001000
1004.038462,-0.048093,0.001000,0.001000,0.001000,0.001000,0.001000
1004.057692,-0.047754,0.001000,0.001000,0.001000,0.001000,0.001000
1004.076923,-0.047389,0.001000,0.001000,0.001000,0.001000,0.001000
1004.096154,-0.046997,0.001000,0.001000,0.001000,0.001000,0.001000
1004.115385,-0.046578,0.001000,0.001000,0.001000,0.001000,0.001000
1004.134615,-0.046133,0.001000,0.001000,0.001000,0.001000,0.001000
1004.153846,-0.045662,0.001000,0.001000,0.001000,0.001000,0.001000
1004.173077,-0.045165,0.001000,0.001000,0.001000,0.001000,0.001000
1004.192308,-0.044643,0.001000,0.001000,0.001000,0.001000,0.001000
1004.211538,-0.044095,0.001000,0.001000,0.001000,0.001000,0.001000
1004.230769,-0.043523,0.001000,0.001000,0.001000,0.001000,0.001000
1004.250000,-0.042926,0.001000,0.001000,0.001000,0.001000,0.001000
1004.269231,-0.042304,0.001000,0.001000,0.001000,0.001000,0.001000
1004.288462,-0.041659,0.001000,0.001000,0.001000,0.001000,0.001000
1004.307692,-0.040991,0.001000,0.001000,0.001000,0.001000,0.001000
1004.326923,-0.040299,0.001000,0.001000,0.001000,0.001000,0.001000
1004.346154,-0.039584,0.001000,0.001000,0.001000,0.001000,0.001000
1004.365385,-0.038848,0.001000,0.001000,0.001000,0.001000,0.001000
1004.384615,-0.038089,0.001000,0.001000,0.001000,0.001000,0.001000
1004.403846,-0.037309,0.001000,0.001000,0.001000,0.001000,0.001000
1004.423077,-0.036507,0.001000,0.001000,0.001000,0.001000,0.001000
1004.442308,-0.035685,0.001000,0.001000,0.001000,0.001000,0.001000
1004.461538,-0.034843,0.001000,0.001000,0.001000,0.001000,0.001000
1004.480769,-0.033981,0.001000,0.001000,0.001000,0.001000,0.001000
1004.500000,-0.033100,0.001000,0.001000,0.001000,0.001000,0.001000
1004.519231,-0.032201,0.001000,0.001000,0.001000,0.001000,0.001000
1004.538462,-0.031283,0.001000,0.001000,0.001000,0.001000,0.001000
1004.557692,-0.030347,0.001000,0.001000,0.001000,0.001000,0.001000
1004.576923,-0.029395,0.001000,0.001000,0.001000,0.001000,0.001000
1004.596154,-0.028426,0.001000,0.001000,0.001000,0.001000,0.001000
1004.615385,-0.027440,0.001000,0.001000,0.001000,0.001000,0.001000
1004.634615,-0.026440,0.001000,0.001000,0.001000,0.001000,0.001000
1004.653846,-0.025424,0.001000,0.001000,0.001000,0.001000,0.001000
1004.673077,-0.024394,0.001000,0.001000,0.001000,0.001000,0.001000
1004.692308,-0.023350,0.001000,0.001000,0.001000,0.001000,0.001000
1004.711538,-0.022293,0.001000,0.001000,0.001000,0.001000,0.001000
1004.730769,-0.021224,0.001000,0.001000,0.001000,0.001000,0.001000
1004.750000,-0.020142,0.001000,0.001000,0.001000,0.001000,0.001000
1004.769231,-0.019049,0.001000,0.001000,0.001000,0.001000,0.001000
1004.788462,-0.017946,0.001000,0.001000,0.001000,0.001000,0.001000
1004.807692,-0.016832,0.001000,0.001000,0.001000,0.001000,0.001000
1004.826923,-0.015709,0.001000,0.001000,0.001000,0.001000,0.001000
1004.846154,-0.014576,0.001000,0.001000,0.001000,0.001000,0.001000
1004.865385,-0.013436,0.001000,0.001000,0.001000,0.001000,0.001000
1004.884615,-0.012288,0.001000,0.001000,0.001000,0.001000,0.001000
1004.903846,-0.011133,0.001000,0.001000,0.001000,0.001000,0.001000
1004.923077,-0.009972,0.001000,0.001000,0.001000,0.001000,0.001000
1004.942308,-0.008805,0.001000,0.001000,0.001000,0.001000,0.001000
1004.961538,-0.007634,0.001000,0.001000,0.001000,0.001000,0.001000
1004.980769,-0.006457,0.001000,0.001000,0.001000,0.001000,0.001000
1005.000000,-0.005278,0.001000,0.001000,0.001000,0.001000,0.001000
1005.019231,-0.004095,0.001000,0.001000,0.001000,0.001000,0.001000
1005.038462,-0.002910,0.001000,0.001000,0.001000,0.001000,0.001000
1005.057692,-0.001723,0.001000,0.001000,0.001000,0.001000,0.001000
1005.076923,-0.000536,0.001000,0.001000,0.001000,0.001000,0.001000
1005.096154,0.000652,0.001000,0.001000,0.001000,0.001000,0.001000
1005.115385,0.001840,0.001000,0.001000,0.001000,0.001000,0.001000
1005.134615,0.003026,0.001000,0.001000,0.001000,0.001000,0.001000
1005.153846,0.004211,0.001000,0.001000,0.001000,0.001000,0.001000
1005.173077,0.005394,0.001000,0.001000,0.001000,0.001000,0.001000
1005.192308,0.006573,0.001000,0.001000,0.001000,0.001000,0.001000
1005.211538,0.007749,0.001000,0.001000,0.001000,0.001000,0.001000
1005.230769,0.008920,0.001000,0.001000,0.001000,0.001000,0.001000
1005.250000,0.010086,0.001000,0.001000,0.001000,0.001000,0.001000
1005.269231,0.011247,0.001000,0.001000,0.001000,0.001000,0.001000
1005.288462,0.012401,0.001000,0.001000,0.001000,0.001000,0.001000
1005.307692,0.013548,0.001000,0.001000,0.001000,0.001000,0.001000
1005.326923,0.014688,0.001000,0.001000,0.001000,0.001000,0.001000
1005.346154,0.015819,0.001000,0.001000,0.001000,0.001000,0.001000
1005.365385,0.016942,0.001000,0.001000,0.001000,0.001000,0.001000
1005.384615,0.018055,0.001000,0.001000,0.001000,0.001000,0.001000
1005.403846,0.019157,0.001000,0.001000,0.001000,0.001000,0.001000
1005.423077,0.020249,0.001000,0.001000,0.001000,0.001000,0.001000
1005.442308,0.021329,0.001000,0.001000,0.001000,0.001000,0.001000
1005.461538,0.022398,0.001000,0.001000,0.001000,0.001000,0.001000
1005.480769,0.023453,0.001000,0.001000,0.001000,0.001000,0.001000
1005.500000,0.024496,0.001000,0.001000,0.001000,0.001000,0.001000
1005.519231,0.025524,0.001000,0.001000,0.001000,0.001000,0.001000
1005.538462,0.026539,0.001000,0.001000,0.001000,0.001000,0.001000
1005.557692,0.027538,0.001000,0.001000,0.001000,0.001000,0.001000
1005.576923,0.028522,0.001000,0.001000,0.001000,0.001000,0.001000
1005.596154,0.029489,0.001000,0.001000,0.001000,0.001000,0.001000
1005.615385,0.030440,0.001000,0.001000,0.001000,0.001000,0.001000
1005.634615,0.031374,0.001000,0.001000,0.001000,0.001000,0.001000
1005.653846,0.032290,0.001000,0.001000,0.001000,0.001000,0.001000
1005.673077,0.033188,0.001000,0.001000,0.001000,0.001000,0.001000
1005.692308,0.034067,0.001000,0.001000,0.001000,0.001000,0.001000
1005.711538,0.034927,0.001000,0.001000,0.001000,0.001000,0.001000
1005.730769,0.035767,0.001000,0.001000,0.001000,0.001000,0.001000
1005.750000,0.036587,0.001000,0.001000,0.001000,0.001000,0.001000
1005.769231,0.037386,0.001000,0.001000,0.001000,0.001000,0.001000
1005.788462,0.038164,0.001000,0.001000,0.001000,0.001000,0.001000
1005.807692,0.038921,0.001000,0.001000,0.001000,0.001000,0.001000
1005.826923,0.039656,0.001000,0.001000,0.001000,0.001000,0.001000
1005.846154,0.040368,0.001000,0.001000,0.001000,0.001000,0.001000
1005.865385,0.041057,0.001000,0.001000,0.001000,0.001000,0.001000
1005.884615,0.041724,0.001000,0.001000,0.001000,0.001000,0.001000
1005.903846,0.042367,0.001000,0.001000,0.001000,0.001000,0.001000
1005.923077,0.042985,0.001000,0.001000,0.001000,0.001000,0.001000
1005.942308,0.043580,0.001000,0.001000,0.001000,0.001000,0.001000
1005.961538,0.044150,0.001000,0.001000,0.001000,0.001000,0.001000
1005.980769,0.044695,0.001000,0.001000,0.001000,0.001000,0.001000
1006.000000,0.045215,0.001000,0.001000,0.001000,0.001000,0.001000
1006.019231,0.045709,0.001000,0.001000,0.001000,0.001000,0.001000
1006.038462,0.046178,0.001000,0.001000,0.001000,0.001000,0.001000
1006.057692,0.046620,0.001000,0.001000,0.001000,0.001000,0.001000
1006.076923,0.047036,0.001000,0.001000,0.001000,0.001000,0.001000
1006.096154,0.047426,0.001000,0.001000,0.001000,0.001000,0.001000
1006.115385,0.047789,0.001000,0.001000,0.001000,0.001000,0.001000
1006.134615,0.048125,0.001000,0.001000,0.001000,0.001000,0.001000
1006.153846,0.048433,0.001000,0.001000,0.001000,0.001000,0.001000
1006.173077,0.048715,0.001000,0.001000,0.001000,0.001000,0.001000
1006.192308,0.048969,0.001000,0.001000,0.001000,0.001000,0.001000
1006.211538,0.049195,0.001000,0.001000,0.001000,0.001000,0.001000
1006.230769,0.049393,0.001000,0.001000,0.001000,0.001000,0.001000
1006.250000,0.049564,0.001000,0.001000,0.001000,0.001000,0.001000
1006.269231,0.049706,0.001000,0.001000,0.001000,0.001000,0.001000
1006.288462,0.049821,0.001000,0.001000,0.001000,0.001000,0.001000
1006.307692,0.049907,0.001000,0.001000,0.001000,0.001000,0.001000
1006.326923,0.049965,0.001000,0.001000,0.001000,0.001000,0.001000
1006.346154,0.049996,0.001000,0.001000,0.001000,0.001000,0.001000
1006.365385,0.049997,0.001000,0.001000,0.001000,0.001000,0.001000
1006.384615,0.049971,0.001000,0.001000,0.001000,0.001000,0.001000
1006.403846,0.049916,0.001000,0.001000,0.001000,0.001000,0.001000
1006.423077,0.049833,0.001000,0.001000,0.001000,0.001000,0.001000
1006.442308,0.049723,0.001000,0.001000,0.001000,0.001000,0.001000
1006.461538,0.049583,0.001000,0.001000,0.001000,0.001000,0.001000
1006.480769,0.049416,0.001000,0.001000,0.001000,0.001000,0.001000
1006.500000,0.049222,0.001000,0.001000,0.001000,0.001000,0.001000
1006.519231,0.048999,0.001000,0.001000,0.001000,0.001000,0.001000
1006.538462,0.048749,0.001000,0.001000,0.001000,0.001000,0.001000
1006.557692,0.048471,0.001000,0.001000,0.001000,0.001000,0.001000
1006.576923,0.048166,0.001000,0.001000,0.001000,0.001000,0.001000
1006.596154,0.047833,0.001000,0.001000,0.001000,0.001000,0.001000
1006.615385,0.047474,0.001000,0.001000,0.001000,0.001000,0.001000
1006.634615,0.047088,0.001000,0.001000,0.001000,0.001000,0.001000
1006.653846,0.046675,0.001000,0.001000,0.001000,0.001000,0.001000
1006.673077,0.046236,0.001000,0.001000,0.001000,0.001000,0.001000
1006.692308,0.045770,0.001000,0.001000,0.001000,0.001000,0.001000
1006.711538,0.045279,0.001000,0.001000,0.001000,0.001000,0.001000
1006.730769,0.044763,0.001000,0.001000,0.001000,0.001000,0.001000
1006.750000,0.044221,0.001000,0.001000,0.001000,0.001000,0.001000
1006.769231,0.043654,0.001000,0.001000,0.001000,0.001000,0.001000
1006.788462,0.043062,0.001000,0.001000,0.001000,0.001000,0.001000
1006.807692,0.042447,0.001000,0.001000,0.001000,0.001000,0.001000
1006.826923,0.041807,0.001000,0.001000,0.001000,0.001000,0.001000
1006.846154,0.041144,0.001000,0.001000,0.001000,0.001000,0.001000
1006.865385,0.040457,0.001000,0.001000,0.001000,0.001000,0.001000
1006.884615,0.039748,0.001000,0.001000,0.001000,0.001000,0.001000
1006.903846,0.039016,0.001000,0.001000,0.001000,0.001000,0.001000
1006.923077,0.038262,0.001000,0.001000,0.001000,0.001000,0.001000
1006.942308,0.037486,0.001000,0.001000,0.001000,0.001000,0.001000
1006.961538,0.036690,0.001000,0.001000,0.001000,0.001000,0.001000
1006.980769,0.035872,0.001000,0.001000,0.001000,0.001000,0.001000
1007.000000,0.035035,0.001000,0.001000,0.001000,0.001000,0.001000
1007.019231,0.034177,0.001000,0.001000,0.001000,0.001000,0.001000
1007.038462,0.033301,0.001000,0.001000,0.001000,0.001000,0.001000
1007.057692,0.032405,0.001000,0.001000,0.001000,0.001000,0.001000
1007.076923,0.031491,0.001000,0.001000,0.001000,0.001000,0.001000
1007.096154,0.030560,0.001000,0.001000,0.001000,0.001000,0.001000
1007.115385,0.029611,0.001000,0.001000,0.001000,0.001000,0.001000
1007.134615,0.028646,0.001000,0.001000,0.001000,0.001000,0.001000
1007.153846,0.027664,0.001000,0.001000,0.001000,0.001000,0.001000
1007.173077,0.026667,0.001000,0.001000,0.001000,0.001000,0.001000
1007.192308,0.025654,0.001000,0.001000,0.001000,0.001000,0.001000
1007.211538,0.024627,0.001000,0.001000,0.001000,0.001000,0.001000
1007.230769,0.023587,0.001000,0.001000,0.001000,0.001000,0.001000
1007.250000,0.022533,0.001000,0.001000,0.001000,0.001000,0.001000
1007.269231,0.021466,0.001000,0.001000,0.001000,0.001000,0.001000
1007.288462,0.020387,0.001000,0.001000,0.001000,0.001000,0.001000
1007.307692,0.019297,0.001000,0.001000,0.001000,0.001000,0.001000
1007.326923,0.018195,0.001000,0.001000,0.001000,0.001000,0.001000
1007.346154,0.017084,0.001000,0.001000,0.001000,0.001000,0.001000
1007.365385,0.015963,0.001000,0.001000,0.001000,0.001000,0.001000
1007.384615,0.014832,0.001000,0.001000,0.001000,0.001000,0.001000
1007.403846,0.013694,0.001000,0.001000,0.001000,0.001000,0.001000
1007.423077,0.012548,0.001000,0.001000,0.001000,0.001000,0.001000
1007.442308,0.011394,0.001000,0.001000,0.001000,0.001000,0.001000
1007.461538,0.010234,0.001000,0.001000,0.001000,0.001000,0.001000
1007.480769,0.009069,0.001000,0.001000,0.001000,0.001000,0.001000
1007.500000,0.007898,0.001000,0.001000,0.001000,0.001000,0.001000
1007.519231,0.006723,0.001000,0.001000,0.001000,0.001000,0.001000
1007.538462,0.005544,0.001000,0.001000,0.001000,0.001000,0.001000
1007.557692,0.004362,0.001000,0.001000,0.001000,0.001000,0.001000
1007.576923,0.003177,0.001000,0.001000,0.001000,0.001000,0.001000
1007.596154,0.001991,0.001000,0.001000,0.001000,0.001000,0.001000
1007.615385,0.000803,0.001000,0.001000,0.001000,0.001000,0.001000
1007.634615,-0.000384,0.001000,0.001000,0.001000,0.001000,0.001000
1007.653846,-0.001572,0.001000,0.001000,0.001000,0.001000,0.001000
1007.673077,-0.002759,0.001000,0.001000,0.001000,0.001000,0.001000
1007.692308,-0.003944,0.001000,0.001000,0.001000,0.001000,0.001000
1007.711538,-0.005127,0.001000,0.001000,0.001000,0.001000,0.001000
1007.730769,-0.006307,0.001000,0.001000,0.001000,0.001000,0.001000
1007.750000,-0.007484,0.001000,0.001000,0.001000,0.001000,0.001000
1007.769231,-0.008656,0.001000,0.001000,0.001000,0.001000,0.001000
1007.788462,-0.009824,0.001000,0.001000,0.001000,0.001000,0.001000
1007.807692,-0.010986,0.001000,0.001000,0.001000,0.001000,0.001000
1007.826923,-0.012142,0.001000,0.001000,0.001000,0.001000,0.001000
1007.846154,-0.013290,0.001000,0.001000,0.001000,0.001000,0.001000
1007.865385,-0.014432,0.001000,0.001000,0.001000,0.001000,0.001000
1007.884615,-0.015565,0.001000,0.001000,0.001000,0.001000,0.001000
1007.903846,-0.016689,0.001000,0.001000,0.001000,0.001000,0.001000
1007.923077,-0.017804,0.001000,0.001000,0.001000,0.001000,0.001000
1007.942308,-0.018909,0.001000,0.001000,0.001000,0.001000,0.001000
1007.961538,-0.020004,0.001000,0.001000,0.001000,0.001000,0.001000
1007.980769,-0.021087,0.001000,0.001000,0.001000,0.001000,0.001000
1008.000000,-0.022158,0.001000,0.001000,0.001000,0.001000,0.001000
1008.019231,-0.023216,0.001000,0.001000,0.001000,0.001000,0.001000
1008.038462,-0.024262,0.001000,0.001000,0.001000,0.001000,0.001000
1008.057692,-0.025294,0.001000,0.001000,0.001000,0.001000,0.001000
1008.076923,-0.026311,0.001000,0.001000,0.001000,0.001000,0.001000
1008.096154,-0.027314,0.001000,0.001000,0.001000,0.001000,0.001000
1008.115385,-0.028301,0.001000,0.001000,0.001000,0.001000,0.001000
1008.134615,-0.029272,0.001000,0.001000,0.001000,0.001000,0.001000
1008.153846,-0.030227,0.001000,0.001000,0.001000,0.001000,0.001000
1008.173077,-0.031165,0.001000,0.001000,0.001000,0.001000,0.001000
1008.192308,-0.032085,0.001000,0.001000,0.001000,0.001000,0.001000
1008.211538,-0.032987,0.001000,0.001000,0.001000,0.001000,0.001000
1008.230769,-0.033870,0.001000,0.001000,0.001000,0.001000,0.001000
1008.250000,-0.034735,0.001000,0.001000,0.001000,0.001000,0.001000
1008.269231,-0.035579,0.001000,0.001000,0.001000,0.001000,0.001000
1008.288462,-0.036404,0.001000,0.001000,0.001000,0.001000,0.001000
1008.307692,-0.037208,0.001000,0.001000,0.001000,0.001000,0.001000
1008.326923,-0.037991,0.001000,0.001000,0.001000,0.001000,0.001000
1008.346154,-0.038752,0.001000,0.001000,0.001000,0.001000,0.001000
1008.365385,-0.039492,0.001000,0.001000,0.001000,0.001000,0.001000
1008.384615,-0.040209,0.001000,0.001000,0.001000,0.001000,0.001000
1008.403846,-0.040904,0.001000,0.001000,0.001000,0.001000,0.001000
1008.423077,-0.041576,0.001000,0.001000,0.001000,0.001000,0.001000
1008.442308,-0.042224,0.001000,0.001000,0.001000,0.001000,0.001000
1008.461538,-0.042848,0.001000,0.001000,0.001000,0.001000,0.001000
1008.480769,-0.043448,0.001000,0.001000,0.001000,0.001000,0.001000
1008.500000,-0.044024,0.001000,0.001000,0.001000,0.001000,0.001000
1008.519231,-0.044574,0.001000,0.001000,0.001000,0.001000,0.001000
1008.538462,-0.045100,0.001000,0.001000,0.001000,0.001000,0.001000
1008.557692,-0.045600,0.001000,0.001000,0.001000,0.001000,0.001000
1008.576923,-0.046074,0.001000,0.001000,0.001000,0.001000,0.001000
1008.596154,-0.046523,0.001000,0.001000,0.001000,0.001000,0.001000
1008.615385,-0.046945,0.001000,0.001000,0.001000,0.001000,0.001000
1008.634615,-0.047341,0.001000,0.001000,0.001000,0.001000,0.001000
1008.653846,-0.047709,0.001000,0.001000,0.001000,0.001000,0.001000
1008.673077,-0.048051,0.001000,0.001000,0.001000,0.001000,0.001000
1008.692308,-0.048366,0.001000,0.001000,0.001000,0.001000,0.001000
1008.711538,-0.048654,0.001000,0.001000,0.001000,0.001000,0.001000
1008.730769,-0.048914,0.001000,0.001000,0.001000,0.001000,0.001000
1008.750000,-0.049146,0.001000,0.001000,0.001000,0.001000,0.001000
1008.769231,-0.049351,0.001000,0.001000,0.001000,0.001000,0.001000
1008.788462,-0.049528,0.001000,0.001000,0.001000,0.001000,0.001000
1008.807692,-0.049677,0.001000,0.001000,0.001000,0.001000,0.001000
1008.826923,-0.049798,0.001000,0.001000,0.001000,0.001000,0.001000
1008.846154,-0.049890,0.001000,0.001000,0.001000,0.001000,0.001000
1008.865385,-0.049955,0.001000,0.001000,0.001000,0.001000,0.001000
1008.884615,-0.049991,0.001000,0.001000,0.001000,0.001000,0.001000
1008.903846,-0.049999,0.001000,0.001000,0.001000,0.001000,0.001000
1008.923077,-0.049979,0.001000,0.001000,0.001000,0.001000,0.001000
1008.942308,-0.049931,0.001000,0.001000,0.001000,0.001000,0.001000
1008.961538,-0.049855,0.001000,0.001000,0.001000,0.001000,0.001000
1008.980769,-0.049750,0.001000,0.001000,0.001000,0.001000,0.001000
1009.000000,-0.049617,0.001000,0.001000,0.001000,0.001000,0.001000
1009.019231,-0.049457,0.001000,0.001000,0.001000,0.001000,0.001000
1009.038462,-0.049268,0.001000,0.001000,0.001000,0.001000,0.001000
1009.057692,-0.049052,0.001000,0.001000,0.001000,0.001000,0.001000
1009.076923,-0.048807,0.001000,0.001000,0.001000,0.001000,0.001000
1009.096154,-0.048536,0.001000,0.001000,0.001000,0.001000,0.001000
1009.115385,-0.048237,0.001000,0.001000,0.001000,0.001000,0.001000
1009.134615,-0.047910,0.001000,0.001000,0.001000,0.001000,0.001000
1009.153846,-0.047557,0.001000,0.001000,0.001000,0.001000,0.001000
1009.173077,-0.047177,0.001000,0.001000,0.001000,0.001000,0.001000
1009.192308,-0.046770,0.001000,0.001000,0.001000,0.001000,0.001000
1009.211538,-0.046337,0.001000,0.001000,0.001000,0.001000,0.001000
1009.230769,-0.045878,0.001000,0.001000,0.001000,0.001000,0.001000
1009.250000,-0.045392,0.001000,0.001000,0.001000,0.001000,0.001000
1009.269231,-0.044881,0.001000,0.001000,0.001000,0.001000,0.001000
1009.288462,-0.044345,0.001000,0.001000,0.001000,0.001000,0.001000
1009.307692,-0.043784,0.001000,0.001000,0.001000,0.001000,0.001000
1009.326923,-0.043198,0.001000,0.001000,0.001000,0.001000,0.001000
1009.346154,-0.042588,0.001000,0.001000,0.001000,0.001000,0.001000
1009.365385,-0.041953,0.001000,0.001000,0.001000,0.001000,0.001000
1009.384615,-0.041295,0.001000,0.001000,0.001000,0.001000,0.001000
1009.403846,-0.040614,0.001000,0.001000,0.001000,0.001000,0.001000
1009.423077,-0.039909,0.001000,0.001000,0.001000,0.001000,0.001000
1009.442308,-0.039183,0.001000,0.001000,0.001000,0.001000,0.001000
1009.461538,-0.038434,0.001000,0.001000,0.001000,0.001000,0.001000
1009.480769,-0.037663,0.001000,0.001000,0.001000,0.001000,0.001000
1009.500000,-0.036871,0.001000,0.001000,0.001000,0.001000,0.001000
1009.519231,-0.036058,0.001000,0.001000,0.001000,0.001000,0.001000
1009.538462,-0.035225,0.001000,0.001000,0.001000,0.001000,0.001000
1009.557692,-0.034372,0.001000,0.001000,0.001000,0.001000,0.001000
1009.576923,-0.033500,0.001000,0.001000,0.001000,0.001000,0.001000
1009.596154,-0.032609,0.001000,0.001000,0.001000,0.001000,0.001000
1009.615385,-0.031699,0.001000,0.001000,0.001000,0.001000,0.001000
1009.634615,-0.030771,0.001000,0.001000,0.001000,0.001000,0.001000
1009.653846,-0.029826,0.001000,0.001000,0.001000,0.001000,0.001000
1009.673077,-0.028865,0.001000,0.001000,0.001000,0.001000,0.001000
1009.692308,-0.027887,0.001000,0.001000,0.001000,0.001000,0.001000
1009.711538,-0.026893,0.001000,0.001000,0.001000,0.001000,0.001000
1009.730769,-0.025884,0.001000,0.001000,0.001000,0.001000,0.001000
1009.750000,-0.024860,0.001000,0.001000,0.001000,0.001000,0.001000
1009.769231,-0.023823,0.001000,0.001000,0.001000,0.001000,0.001000
1009.788462,-0.022771,0.001000,0.001000,0.001000,0.001000,0.001000
1009.807692,-0.021708,0.001000,0.001000,0.001000,0.001000,0.001000
1009.826923,-0.020631,0.001000,0.001000,0.001000,0.001000,0.001000
1009.846154,-0.019543,0.001000,0.001000,0.001000,0.001000,0.001000
1009.865385,-0.018445,0.001000,0.001000,0.001000,0.001000,0.001000
1009.884615,-0.017335,0.001000,0.001000,0.001000,0.001000,0.001000
1009.903846,-0.016216,0.001000,0.001000,0.001000,0.001000,0.001000
1009.923077,-0.015088,0.001000,0.001000,0.001000,0.001000,0.001000
1009.942308,-0.013951,0.001000,0.001000,0.001000,0.001000,0.001000
1009.961538,-0.012807,0.001000,0.001000,0.001000,0.001000,0.001000
1009.980769,-0.011655,0.001000,0.001000,0.001000,0.001000,0.001000
1010.000000,-0.010496,0.001000,0.001000,0.001000,0.001000,0.001000
1010.019231,-0.009332,0.001000,0.001000,0.001000,0.001000,0.001000
1010.038462,-0.008162,0.001000,0.001000,0.001000,0.001000,0.001000
1010.057692,-0.006988,0.001000,0.001000,0.001000,0.001000,0.001000
1010.076923,-0.005810,0.001000,0.001000,0.001000,0.001000,0.001000
1010.096154,-0.004629,0.001000,0.001000,0.001000,0.001000,0.001000
1010.115385,-0.003445,0.001000,0.001000,0.001000,0.001000,0.001000
1010.134615,-0.002259,0.001000,0.001000,0.001000,0.001000,0.001000
1010.153846,-0.001071,0.001000,0.001000,0.001000,0.001000,0.001000
1010.173077,0.000117,0.001000,0.001000,0.001000,0.001000,0.001000
1010.192308,0.001304,0.001000,0.001000,0.001000,0.001000,0.001000
1010.211538,0.002492,0.001000,0.001000,0.001000,0.001000,0.001000
1010.230769,0.003677,0.001000,0.001000,0.001000,0.001000,0.001000
1010.250000,0.004861,0.001000,0.001000,0.001000,0.001000,0.001000
1010.269231,0.006042,0.001000,0.001000,0.001000,0.001000,0.001000
1010.288462,0.007219,0.001000,0.001000,0.001000,0.001000,0.001000
1010.307692,0.008393,0.001000,0.001000,0.001000,0.001000,0.001000
1010.326923,0.009561,0.001000,0.001000,0.001000,0.001000,0.001000
1010.346154,0.010724,0.001000,0.001000,0.001000,0.001000,0.001000
1010.365385,0.011882,0.001000,0.001000,0.001000,0.001000,0.001000
1010.384615,0.013032,0.001000,0.001000,0.001000,0.001000,0.001000
1010.403846,0.014175,0.001000,0.001000,0.001000,0.001000,0.001000
1010.423077,0.015310,0.001000,0.001000,0.001000,0.001000,0.001000
1010.442308,0.016437,0.001000,0.001000,0.001000,0.001000,0.001000
1010.461538,0.017554,0.001000,0.001000,0.001000,0.001000,0.001000
1010.480769,0.018661,0.001000,0.001000,0.001000,0.001000,0.001000
1010.500000,0.019758,0.001000,0.001000,0.001000,0.001000,0.001000
1010.519231,0.020844,0.001000,0.001000,0.001000,0.001000,0.001000
1010.538462,0.021917,0.001000,0.001000,0.001000,0.001000,0.001000
1010.557692,0.022979,0.001000,0.001000,0.001000,0.001000,0.001000
1010.576923,0.024027,0.001000,0.001000,0.001000,0.001000,0.001000
1010.596154,0.025062,0.001000,0.001000,0.001000,0.001000,0.001000
1010.615385,0.026083,0.001000,0.001000,0.001000,0.001000,0.001000
1010.634615,0.027089,0.001000,0.001000,0.001000,0.001000,0.001000
1010.653846,0.028080,0.001000,0.001000,0.001000,0.001000,0.001000
1010.673077,0.029055,0.001000,0.001000,0.001000,0.001000,0.001000
1010.692308,0.030013,0.001000,0.001000,0.001000,0.001000,0.001000
1010.711538,0.030955,0.001000,0.001000,0.001000,0.001000,0.001000
1010.730769,0.031879,0.001000,0.001000,0.001000,0.001000,0.001000
1010.750000,0.032785,0.001000,0.001000,0.001000,0.001000,0.001000
1010.769231,0.033673,0.001000,0.001000,0.001000,0.001000,0.001000
1010.788462,0.034541,0.001000,0.001000,0.001000,0.001000,0.001000
1010.807692,0.035390,0.001000,0.001000,0.001000,0.001000,0.001000
1010.826923,0.036220,0.001000,0.001000,0.001000,0.001000,0.001000
1010.846154,0.037028,0.001000,0.001000,0.001000,0.001000,0.001000
1010.865385,0.037816,0.001000,0.001000,0.001000,0.001000,0.001000
1010.884615,0.038582,0.001000,0.001000,0.001000,0.001000,0.001000
1010.903846,0.039327,0.001000,0.001000,0.001000,0.001000,0.001000
1010.923077,0.040050,0.001000,0.001000,0.001000,0.001000,0.001000
1010.942308,0.040749,0.001000,0.001000,0.001000,0.001000,0.001000
1010.961538,0.041426,0.001000,0.001000,0.001000,0.001000,0.001000
1010.980769,0.042080,0.001000,0.001000,0.001000,0.001000,0.001000
1011.000000,0.042709,0.001000,0.001000,0.001000,0.001000,0.001000
1011.019231,0.043315,0.001000,0.001000,0.001000,0.001000,0.001000
1011.038462,0.043896,0.001000,0.001000,0.001000,0.001000,0.001000
1011.057692,0.044452,0.001000,0.001000,0.001000,0.001000,0.001000
1011.076923,0.044984,0.001000,0.001000,0.001000,0.001000,0.001000
1011.096154,0.045490,0.001000,0.001000,0.001000,0.001000,0.001000
1011.115385,0.045970,0.001000,0.001000,0.001000,0.001000,0.001000
1011.134615,0.046424,0.001000,0.001000,0.001000,0.001000,0.001000
1011.153846,0.046852,0.001000,0.001000,0.001000,0.001000,0.001000
1011.173077,0.047254,0.001000,0.001000,0.001000,0.001000,0.001000
1011.192308,0.047629,0.001000,0.001000,0.001000,0.001000,0.001000
1011.211538,0.047977,0.001000,0.001000,0.001000,0.001000,0.001000
1011.230769,0.048298,0.001000,0.001000,0.001000,0.001000,0.001000
1011.250000,0.048591,0.001000,0.001000,0.001000,0.001000,0.001000
1011.269231,0.048858,0.001000,0.001000,0.001000,0.001000,0.001000
1011.288462,0.049096,0.001000,0.001000,0.001000,0.001000,0.001000
1011.307692,0.049307,0.001000,0.001000,0.001000,0.001000,0.001000
1011.326923,0.049490,0.001000,0.001000,0.001000,0.001000,0.001000
1011.346154,0.049646,0.001000,0.001000,0.001000,0.001000,0.001000
1011.365385,0.049773,0.001000,0.001000,0.001000,0.001000,0.001000
1011.384615,0.049872,0.001000,0.001000,0.001000,0.001000,0.001000
1011.403846,0.049943,0.001000,0.001000,0.001000,0.001000,0.001000
1011.423077,0.049985,0.001000,0.001000,0.001000,0.001000,0.001000
1011.442308,0.050000,0.001000,0.001000,0.001000,0.001000,0.001000
1011.461538,0.049986,0.001000,0.001000,0.001000,0.001000,0.001000
1011.480769,0.049944,0.001000,0.001000,0.001000,0.001000,0.001000
1011.500000,0.049874,0.001000,0.001000,0.001000,0.001000,0.001000
1011.519231,0.049776,0.001000,0.001000,0.001000,0.001000,0.001000
1011.538462,0.049650,0.001000,0.001000,0.001000,0.001000,0.001000
1011.557692,0.049495,0.001000,0.001000,0.001000,0.001000,0.001000
1011.576923,0.049313,0.001000,0.001000,0.001000,0.001000,0.001000
1011.596154,0.049103,0.001000,0.001000,0.001000,0.001000,0.001000
1011.615385,0.048865,0.001000,0.001000,0.001000,0.001000,0.001000
1011.634615,0.048599,0.001000,0.001000,0.001000,0.001000,0.001000
1011.653846,0.048307,0.001000,0.001000,0.001000,0.001000,0.001000
1011.673077,0.047986,0.001000,0.001000,0.001000,0.001000,0.001000
1011.692308,0.047639,0.001000,0.001000,0.001000,0.001000,0.001000
1011.711538,0.047265,0.001000,0.001000,0.001000,0.001000,0.001000
1011.730769,0.046864,0.001000,0.001000,0.001000,0.001000,0.001000
1011.750000,0.046437,0.001000,0.001000,0.001000,0.001000,0.001000
1011.769231,0.045983,0.001000,0.001000,0.001000,0.001000,0.001000
1011.788462,0.045504,0.001000,0.001000,0.001000,0.001000,0.001000
1011.807692,0.044999,0.001000,0.001000,0.001000,0.001000,0.001000
1011.826923,0.044468,0.001000,0.001000,0.001000,0.001000,0.001000
1011.846154,0.043913,0.001000,0.001000,0.001000,0.001000,0.001000
1011.865385,0.043332,0.001000,0.001000,0.001000,0.001000,0.001000
1011.884615,0.042727,0.001000,0.001000,0.001000,0.001000,0.001000
1011.903846,0.042098,0.001000,0.001000,0.001000,0.001000,0.001000
1011.923077,0.041446,0.001000,0.001000,0.001000,0.001000,0.001000
1011.942308,0.040769,0.001000,0.001000,0.001000,0.001000,0.001000
1011.961538,0.040070,0.001000,0.001000,0.001000,0.001000,0.001000
1011.980769,0.039348,0.001000,0.001000,0.001000,0.001000,0.001000
1012.000000,0.038604,0.001000,0.001000,0.001000,0.001000,0.001000
1012.019231,0.037839,0.001000,0.001000,0.001000,0.001000,0.001000
1012.038462,0.037051,0.001000,0.001000,0.001000,0.001000,0.001000
1012.057692,0.036243,0.001000,0.001000,0.001000,0.001000,0.001000
1012.076923,0.035415,0.001000,0.001000,0.001000,0.001000,0.001000
1012.096154,0.034566,0.001000,0.001000,0.001000,0.001000,0.001000
1012.115385,0.033698,0.001000,0.001000,0.001000,0.001000,0.001000
1012.134615,0.032811,0.001000,0.001000,0.001000,0.001000,0.001000
1012.153846,0.031906,0.001000,0.001000,0.001000,0.001000,0.001000
1012.173077,0.030982,0.001000,0.001000,0.001000,0.001000,0.001000
1012.192308,0.030041,0.001000,0.001000,0.001000,0.001000,0.001000
1012.211538,0.029083,0.001000,0.001000,0.001000,0.001000,0.001000
1012.230769,0.028109,0.001000,0.001000,0.001000,0.001000,0.001000
1012.250000,0.027118,0.001000,0.001000,0.001000,0.001000,0.001000
1012.269231,0.026113,0.001000,0.001000,0.001000,0.001000,0.001000
1012.288462,0.025092,0.001000,0.001000,0.001000,0.001000,0.001000
1012.307692,0.024058,0.001000,0.001000,0.001000,0.001000,0.001000
1012.326923,0.023010,0.001000,0.001000,0.001000,0.001000,0.001000
1012.346154,0.021948,0.001000,0.001000,0.001000,0.001000,0.001000
1012.365385,0.020875,0.001000,0.001000,0.001000,0.001000,0.001000
1012.384615,0.019790,0.001000,0.001000,0.001000,0.001000,0.001000
1012.403846,0.018693,0.001000,0.001000,0.001000,0.001000,0.001000
1012.423077,0.017586,0.001000,0.001000,0.001000,0.001000,0.001000
1012.442308,0.016469,0.001000,0.001000,0.001000,0.001000,0.001000
1012.461538,0.015343,0.001000,0.001000,0.001000,0.001000,0.001000
1012.480769,0.014208,0.001000,0.001000,0.001000,0.001000,0.001000
1012.500000,0.013065,0.001000,0.001000,0.001000,0.001000,0.001000
1012.519231,0.011915,0.001000,0.001000,0.001000,0.001000,0.001000
1012.538462,0.010758,0.001000,0.001000,0.001000,0.001000,0.001000
1012.557692,0.009595,0.001000,0.001000,0.001000,0.001000,0.001000
1012.576923,0.008427,0.001000,0.001000,0.001000,0.001000,0.001000
1012.596154,0.007253,0.001000,0.001000,0.001000,0.001000,0.001000
1012.615385,0.006076,0.001000,0.001000,0.001000,0.001000,0.001000
1012.634615,0.004895,0.001000,0.001000,0.001000,0.001000,0.001000
1012.653846,0.003712,0.001000,0.001000,0.001000,0.001000,0.001000
1012.673077,0.002526,0.001000,0.001000,0.001000,0.001000,0.001000
1012.692308,0.001339,0.001000,0.001000,0.001000,0.001000,0.001000
1012.711538,0.000151,0.001000,0.001000,0.001000,0.001000,0.001000
1012.730769,-0.001037,0.001000,0.001000,0.001000,0.001000,0.001000
1012.750000,-0.002224,0.001000,0.001000,0.001000,0.001000,0.001000
1012.769231,-0.003410,0.001000,0.001000,0.001000,0.001000,0.001000
1012.788462,-0.004594,0.001000,0.001000,0.001000,0.001000,0.001000
1012.807692,-0.005776,0.001000,0.001000,0.001000,0.001000,0.001000
1012.826923,-0.006954,0.001000,0.001000,0.001000,0.001000,0.001000
1012.846154,-0.008128,0.001000,0.001000,0.001000,0.001000,0.001000
1012.865385,-0.009298,0.001000,0.001000,0.001000,0.001000,0.001000
1012.884615,-0.010463,0.001000,0.001000,0.001000,0.001000,0.001000
1012.903846,-0.011621,0.001000,0.001000,0.001000,0.001000,0.001000
1012.923077,-0.012773,0.001000,0.001000,0.001000,0.001000,0.001000
1012.942308,-0.013918,0.001000,0.001000,0.001000,0.001000,0.001000
1012.961538,-0.015055,0.001000,0.001000,0.001000,0.001000,0.001000
1012.980769,-0.016184,0.001000,0.001000,0.001000,0.001000,0.001000
1013.000000,-0.017303,0.001000,0.001000,0.001000,0.001000,0.001000
1013.019231,-0.018413,0.001000,0.001000,0.001000,0.001000,0.001000
1013.038462,-0.019512,0.001000,0.001000,0.001000,0.001000,0.001000
1013.057692,-0.020600,0.001000,0.001000,0.001000,0.001000,0.001000
1013.076923,-0.021676,0.001000,0.001000,0.001000,0.001000,0.001000
1013.096154,-0.022741,0.001000,0.001000,0.001000,0.001000,0.001000
1013.115385,-0.023792,0.001000,0.001000,0.001000,0.001000,0.001000
1013.134615,-0.024830,0.001000,0.001000,0.001000,0.001000,0.001000
1013.153846,-0.025854,0.001000,0.001000,0.001000,0.001000,0.001000
1013.173077,-0.026864,0.001000,0.001000,0.001000,0.001000,0.001000
1013.192308,-0.027858,0.001000,0.001000,0.001000,0.001000,0.001000
1013.211538,-0.028836,0.001000,0.001000,0.001000,0.001000,0.001000
1013.230769,-0.029799,0.001000,0.001000,0.001000,0.001000,0.001000
1013.250000,-0.030744,0.001000,0.001000,0.001000,0.001000,0.001000
1013.269231,-0.031672,0.001000,0.001000,0.001000,0.001000,0.001000
1013.288462,-0.032582,0.001000,0.001000,0.001000,0.001000,0.001000
1013.307692,-0.033474,0.001000,0.001000,0.001000,0.001000,0.001000
1013.326923,-0.034347,0.001000,0.001000,0.001000,0.001000,0.001000
1013.346154,-0.035201,0.001000,0.001000,0.001000,0.001000,0.001000
1013.365385,-0.036034,0.001000,0.001000,0.001000,0.001000,0.001000
1013.384615,-0.036848,0.001000,0.001000,0.001000,0.001000,0.001000
1013.403846,-0.037640,0.001000,0.001000,0.001000,0.001000,0.001000
1013.423077,-0.038412,0.001000,0.001000,0.001000,0.001000,0.001000
1013.442308,-0.039161,0.001000,0.001000,0.001000,0.001000,0.001000
1013.461538,-0.039889,0.001000,0.001000,0.001000,0.001000,0.001000
1013.480769,-0.040594,0.001000,0.001000,0.001000,0.001000,0.001000
1013.500000,-0.041276,0.001000,0.001000,0.001000,0.001000,0.001000
1013.519231,-0.041934,0.001000,0.001000,0.001000,0.001000,0.001000
1013.538462,-0.042569,0.001000,0.001000,0.001000,0.001000,0.001000
1013.557692,-0.043181,0.001000,0.001000,0.001000,0.001000,0.001000
1013.576923,-0.043767,0.001000,0.001000,0.001000,0.001000,0.001000
1013.596154,-0.044329,0.001000,0.001000,0.001000,0.001000,0.001000
1013.615385,-0.044866,0.001000,0.001000,0.001000,0.001000,0.001000
1013.634615,-0.045378,0.001000,0.001000,0.001000,0.001000,0.001000
1013.653846,-0.045864,0.001000,0.001000,0.001000,0.001000,0.001000
1013.673077,-0.046324,0.001000,0.001000,0.001000,0.001000,0.001000
1013.692308,-0.046758,0.001000,0.001000,0.001000,0.001000,0.001000
1013.711538,-0.047165,0.001000,0.001000,0.001000,0.001000,0.001000
1013.730769,-0.047546,0.001000,0.001000,0.001000,0.001000,0.001000
1013.750000,-0.047901,0.001000,0.001000,0.001000,0.001000,0.001000
1013.769231,-0.048228,0.001000,0.001000,0.001000,0.001000,0.001000
1013.788462,-0.048527,0.001000,0.001000,0.001000,0.001000,0.001000
1013.807692,-0.048800,0.001000,0.001000,0.001000,0.001000,0.001000
1013.826923,-0.049045,0.001000,0.001000,0.001000,0.001000,0.001000
1013.846154,-0.049262,0.001000,0.001000,0.001000,0.001000,0.001000
1013.865385,-0.049451,0.001000,0.001000,0.001000,0.001000,0.001000
1013.884615,-0.049613,0.001000,0.001000,0.001000,0.001000,0.001000
1013.903846,-0.049747,0.001000,0.001000,0.001000,0.001000,0.001000
1013.923077,-0.049852,0.001000,0.001000,0.001000,0.001000,0.001000
1013.942308,-0.049929,0.001000,0.001000,0.001000,0.001000,0.001000
1013.961538,-0.049978,0.001000,0.001000,0.001000,0.001000,0.001000
1013.980769,-0.049999,0.001000,0.001000,0.001000,0.001000,0.001000
1014.000000,-0.049992,0.001000,0.001000,0.001000,0.001000,0.001000
1014.019231,-0.049956,0.001000,0.001000,0.001000,0.001000,0.001000
1014.038462,-0.049893,0.001000,0.001000,0.001000,0.001000,0.001000
1014.057692,-0.049801,0.001000,0.001000,0.001000,0.001000,0.001000
1014.076923,-0.049681,0.001000,0.001000,0.001000,0.001000,0.001000
1014.096154,-0.049533,0.001000,0.001000,0.001000,0.001000,0.001000
1014.115385,-0.049356,0.001000,0.001000,0.001000,0.001000,0.001000
1014.134615,-0.049153,0.001000,0.001000,0.001000,0.001000,0.001000
1014.153846,-0.048921,0.001000,0.001000,0.001000,0.001000,0.001000
1014.173077,-0.048662,0.001000,0.001000,0.001000,0.001000,0.001000
1014.192308,-0.048375,0.001000,0.001000,0.001000,0.001000,0.001000
1014.211538,-0.048061,0.001000,0.001000,0.001000,0.001000,0.001000
1014.230769,-0.047720,0.001000,0.001000,0.001000,0.001000,0.001000
1014.250000,-0.047352,0.001000,0.001000,0.001000,0.001000,0.001000
1014.269231,-0.046957,0.001000,0.001000,0.001000,0.001000,0.001000
1014.288462,-0.046535,0.001000,0.001000,0.001000,0.001000,0.001000
1014.307692,-0.046088,0.001000,0.001000,0.001000,0.001000,0.001000
1014.326923,-0.045614,0.001000,0.001000,0.001000,0.001000,0.001000
1014.346154,-0.045115,0.001000,0.001000,0.001000,0.001000,0.001000
1014.365385,-0.044590,0.001000,0.001000,0.001000,0.001000,0.001000
1014.384615,-0.044040,0.001000,0.001000,0.001000,0.001000,0.001000
1014.403846,-0.043465,0.001000,0.001000,0.001000,0.001000,0.001000
1014.423077,-0.042866,0.001000,0.001000,0.001000,0.001000,0.001000
1014.442308,-0.042242,0.001000,0.001000,0.001000,0.001000,0.001000
1014.461538,-0.041595,0.001000,0.001000,0.001000,0.001000,0.001000
1014.480769,-0.040924,0.001000,0.001000,0.001000,0.001000,0.001000
1014.500000,-0.040230,0.001000,0.001000,0.001000,0.001000,0.001000
1014.519231,-0.039513,0.001000,0.001000,0.001000,0.001000,0.001000
1014.538462,-0.038774,0.001000,0.001000,0.001000,0.001000,0.001000
1014.557692,-0.038013,0.001000,0.001000,0.001000,0.001000,0.001000
1014.576923,-0.037231,0.001000,0.001000,0.001000,0.001000,0.001000
1014.596154,-0.036427,0.001000,0.001000,0.001000,0.001000,0.001000
1014.615385,-0.035603,0.001000,0.001000,0.001000,0.001000,0.001000
1014.634615,-0.034759,0.001000,0.001000,0.001000,0.001000,0.001000
1014.653846,-0.033896,0.001000,0.001000,0.001000,0.001000,0.001000
1014.673077,-0.033013,0.001000,0.001000,0.001000,0.001000,0.001000
1014.692308,-0.032111,0.001000,0.001000,0.001000,0.001000,0.001000
1014.711538,-0.031192,0.001000,0.001000,0.001000,0.001000,0.001000
1014.730769,-0.030255,0.001000,0.001000,0.001000,0.001000,0.001000
1014.750000,-0.029300,0.001000,0.001000,0.001000,0.001000,0.001000
1014.769231,-0.028330,0.001000,0.001000,0.001000,0.001000,0.001000
1014.788462,-0.027343,0.001000,0.001000,0.001000,0.001000,0.001000
1014.807692,-0.026341,0.001000,0.001000,0.001000,0.001000,0.001000
1014.826923,-0.025324,0.001000,0.001000,0.001000,0.001000,0.001000
1014.846154,-0.024292,0.001000,0.001000,0.001000,0.001000,0.001000
1014.865385,-0.023247,0.001000,0.001000,0.001000,0.001000,0.001000
1014.884615,-0.022189,0.001000,0.001000,0.001000,0.001000,0.001000
1014.903846,-0.021118,0.001000,0.001000,0.001000,0.001000,0.001000
1014.923077,-0.020035,0.001000,0.001000,0.001000,0.001000,0.001000
1014.942308,-0.018941,0.001000,0.001000,0.001000,0.001000,0.001000
1014.961538,-0.017837,0.001000,0.001000,0.001000,0.001000,0.001000
1014.980769,-0.016722,0.001000,0.001000,0.001000,0.001000,0.001000
1015.000000,-0.015598,0.001000,0.001000,0.001000,0.001000,0.001000
1015.019231,-0.014465,0.001000,0.001000,0.001000,0.001000,0.001000
1015.038462,-0.013324,0.001000,0.001000,0.001000,0.001000,0.001000
1015.057692,-0.012175,0.001000,0.001000,0.001000,0.001000,0.001000
1015.076923,-0.011020,0.001000,0.001000,0.001000,0.001000,0.001000
1015.096154,-0.009858,0.001000,0.001000,0.001000,0.001000,0.001000
1015.115385,-0.008690,0.001000,0.001000,0.001000,0.001000,0.001000
1015.134615,-0.007518,0.001000,0.001000,0.001000,0.001000,0.001000
1015.153846,-0.006342,0.001000,0.001000,0.001000,0.001000,0.001000
1015.173077,-0.005162,0.001000,0.001000,0.001000,0.001000,0.001000
1015.192308,-0.003979,0.001000,0.001000,0.001000,0.001000,0.001000
1015.211538,-0.002793,0.001000,0.001000,0.001000,0.001000,0.001000
1015.230769,-0.001607,0.001000,0.001000,0.001000,0.001000,0.001000
1015.250000,-0.000419,0.001000,0.001000,0.001000,0.001000,0.001000
1015.269231,0.000769,0.001000,0.001000,0.001000,0.001000,0.001000
1015.288462,0.001956,0.001000,0.001000,0.001000,0.001000,0.001000
1015.307692,0.003143,0.001000,0.001000,0.001000,0.001000,0.001000
1015.326923,0.004327,0.001000,0.001000,0.001000,0.001000,0.001000
1015.346154,0.005510,0.001000,0.001000,0.001000,0.001000,0.001000
1015.365385,0.006689,0.001000,0.001000,0.001000,0.001000,0.001000
1015.384615,0.007864,0.001000,0.001000,0.001000,0.001000,0.001000
1015.403846,0.009035,0.001000,0.001000,0.001000,0.001000,0.001000
1015.423077,0.010201,0.001000,0.001000,0.001000,0.001000,0.001000
1015.442308,0.011361,0.001000,0.001000,0.001000,0.001000,0.001000
1015.461538,0.012514,0.001000,0.001000,0.001000,0.001000,0.001000
1015.480769,0.013661,0.001000,0.001000,0.001000,0.001000,0.001000
1015.500000,0.014799,0.001000,0.001000,0.001000,0.001000,0.001000
1015.519231,0.015930,0.001000,0.001000,0.001000,0.001000,0.001000
1015.538462,0.017051,0.001000,0.001000,0.001000,0.001000,0.001000
1015.557692,0.018163,0.001000,0.001000,0.001000,0.001000,0.001000
1015.576923,0.019265,0.001000,0.001000,0.001000,0.001000,0.001000
1015.596154,0.020356,0.001000,0.001000,0.001000,0.001000,0.001000
1015.615385,0.021435,0.001000,0.001000,0.001000,0.001000,0.001000
1015.634615,0.022502,0.001000,0.001000,0.001000,0.001000,0.001000
1015.653846,0.023556,0.001000,0.001000,0.001000,0.001000,0.001000
1015.673077,0.024597,0.001000,0.001000,0.001000,0.001000,0.001000
1015.692308,0.025625,0.001000,0.001000,0.001000,0.001000,0.001000
1015.711538,0.026637,0.001000,0.001000,0.001000,0.001000,0.001000
1015.730769,0.027635,0.001000,0.001000,0.001000,0.001000,0.001000
1015.750000,0.028617,0.001000,0.001000,0.001000,0.001000,0.001000
1015.769231,0.029583,0.001000,0.001000,0.001000,0.001000,0.001000
1015.788462,0.030533,0.001000,0.001000,0.001000,0.001000,0.001000
1015.807692,0.031465,0.001000,0.001000,0.001000,0.001000,0.001000
1015.826923,0.032379,0.001000,0.001000,0.001000,0.001000,0.001000
1015.846154,0.033275,0.001000,0.001000,0.001000,0.001000,0.001000
1015.865385,0.034152,0.001000,0.001000,0.001000,0.001000,0.001000
1015.884615,0.035010,0.001000,0.001000,0.001000,0.001000,0.001000
1015.903846,0.035848,0.001000,0.001000,0.001000,0.001000,0.001000
1015.923077,0.036666,0.001000,0.001000,0.001000,0.001000,0.001000
1015.942308,0.037463,0.001000,0.001000,0.001000,0.001000,0.001000
1015.961538,0.038240,0.001000,0.001000,0.001000,0.001000,0.001000
1015.980769,0.038994,0.001000,0.001000,0.001000,0.001000,0.001000
1016.000000,0.039727,0.001000,0.001000,0.001000,0.001000,0.001000
1016.019231,0.040437,0.001000,0.001000,0.001000,0.001000,0.001000
1016.038462,0.041124,0.001000,0.001000,0.001000,0.001000,0.001000
1016.057692,0.041788,0.001000,0.001000,0.001000,0.001000,0.001000
1016.076923,0.042428,0.001000,0.001000,0.001000,0.001000,0.001000
1016.096154,0.043045,0.001000,0.001000,0.001000,0.001000,0.001000
1016.115385,0.043637,0.001000,0.001000,0.001000,0.001000,0.001000
1016.134615,0.044205,0.001000,0.001000,0.001000,0.001000,0.001000
1016.153846,0.044747,0.001000,0.001000,0.001000,0.001000,0.001000
1016.173077,0.045265,0.001000,0.001000,0.001000,0.001000,0.001000
1016.192308,0.045756,0.001000,0.001000,0.001000,0.001000,0.001000
1016.211538,0.046222,0.001000,0.001000,0.001000,0.001000,0.001000
1016.230769,0.046662,0.001000,0.001000,0.001000,0.001000,0.001000
1016.250000,0.047076,0.001000,0.001000,0.001000,0.001000,0.001000
1016.269231,0.047463,0.001000,0.001000,0.001000,0.001000,0.001000
1016.288462,0.047823,0.001000,0.001000,0.001000,0.001000,0.001000
1016.307692,0.048156,0.001000,0.001000,0.001000,0.001000,0.001000
1016.326923,0.048462,0.001000,0.001000,0.001000,0.001000,0.001000
1016.346154,0.048741,0.001000,0.001000,0.001000,0.001000,0.001000
1016.365385,0.048992,0.001000,0.001000,0.001000,0.001000,0.001000
1016.384615,0.049216,0.001000,0.001000,0.001000,0.001000,0.001000
1016.403846,0.049411,0.001000,0.001000,0.001000,0.001000,0.001000
1016.423077,0.049579,0.001000,0.001000,0.001000,0.001000,0.001000
1016.442308,0.049719,0.001000,0.001000,0.001000,0.001000,0.001000
1016.461538,0.049831,0.001000,0.001000,0.001000,0.001000,0.001000
1016.480769,0.049914,0.001000,0.001000,0.001000,0.001000,0.001000
1016.500000,0.049970,0.001000,0.001000,0.001000,0.001000,0.001000
1016.519231,0.049997,0.001000,0.001000,0.001000,0.001000,0.001000
1016.538462,0.049996,0.001000,0.001000,0.001000,0.001000,0.001000
1016.557692,0.049967,0.001000,0.001000,0.001000,0.001000,0.001000
1016.576923,0.049909,0.001000,0.001000,0.001000,0.001000,0.001000
1016.596154,0.049824,0.001000,0.001000,0.001000,0.001000,0.001000
1016.615385,0.049710,0.001000,0.001000,0.001000,0.001000,0.001000
1016.634615,0.049568,0.001000,0.001000,0.001000,0.001000,0.001000
1016.653846,0.049399,0.001000,0.001000,0.001000,0.001000,0.001000
1016.673077,0.049201,0.001000,0.001000,0.001000,0.001000,0.001000
1016.692308,0.048976,0.001000,0.001000,0.001000,0.001000,0.001000
1016.711538,0.048723,0.001000,0.001000,0.001000,0.001000,0.001000
1016.730769,0.048442,0.001000,0.001000,0.001000,0.001000,0.001000
1016.750000,0.048134,0.001000,0.001000,0.001000,0.001000,0.001000
1016.769231,0.047799,0.001000,0.001000,0.001000,0.001000,0.001000
1016.788462,0.047437,0.001000,0.001000,0.001000,0.001000,0.001000
1016.807692,0.047048,0.001000,0.001000,0.001000,0.001000,0.001000
1016.826923,0.046633,0.001000,0.001000,0.001000,0.001000,0.001000
1016.846154,0.046191,0.001000,0.001000,0.001000,0.001000,0.001000
1016.865385,0.045723,0.001000,0.001000,0.001000,0.001000,0.001000
1016.884615,0.045230,0.001000,0.001000,0.001000,0.001000,0.001000
1016.903846,0.044711,0.001000,0.001000,0.001000,0.001000,0.001000
1016.923077,0.044166,0.001000,0.001000,0.001000,0.001000,0.001000
1016.942308,0.043597,0.001000,0.001000,0.001000,0.001000,0.001000
1016.961538,0.043003,0.001000,0.001000,0.001000,0.001000,0.001000
1016.980769,0.042385,0.001000,0.001000,0.001000,0.001000,0.001000
1017.000000,0.041743,0.001000,0.001000,0.001000,0.001000,0.001000
1017.019231,0.041077,0.001000,0.001000,0.001000,0.001000,0.001000
1017.038462,0.040388,0.001000,0.001000,0.001000,0.001000,0.001000
1017.057692,0.039677,0.001000,0.001000,0.001000,0.001000,0.001000
1017.076923,0.038943,0.001000,0.001000,0.001000,0.001000,0.001000
1017.096154,0.038187,0.001000,0.001000,0.001000,0.001000,0.001000
1017.115385,0.037409,0.001000,0.001000,0.001000,0.001000,0.001000
1017.134615,0.036610,0.001000,0.001000,0.001000,0.001000,0.001000
1017.153846,0.035791,0.001000,0.001000,0.001000,0.001000,0.001000
1017.173077,0.034951,0.001000,0.001000,0.001000,0.001000,0.001000
1017.192308,0.034092,0.001000,0.001000,0.001000,0.001000,0.001000
1017.211538,0.033214,0.001000,0.001000,0.001000,0.001000,0.001000
1017.230769,0.032316,0.001000,0.001000,0.001000,0.001000,0.001000
1017.250000,0.031401,0.001000,0.001000,0.001000,0.001000,0.001000
1017.269231,0.030467,0.001000,0.001000,0.001000,0.001000,0.001000
1017.288462,0.029517,0.001000,0.001000,0.001000,0.001000,0.001000
1017.307692,0.028550,0.001000,0.001000,0.001000,0.001000,0.001000
1017.326923,0.027567,0.001000,0.001000,0.001000,0.001000,0.001000
1017.346154,0.026568,0.001000,0.001000,0.001000,0.001000,0.001000
1017.365385,0.025554,0.001000,0.001000,0.001000,0.001000,0.001000
1017.384615,0.024526,0.001000,0.001000,0.001000,0.001000,0.001000
1017.403846,0.023484,0.001000,0.001000,0.001000,0.001000,0.001000
1017.423077,0.022429,0.001000,0.001000,0.001000,0.001000,0.001000
1017.442308,0.021361,0.001000,0.001000,0.001000,0.001000,0.001000
1017.461538,0.020281,0.001000,0.001000,0.001000,0.001000,0.001000
1017.480769,0.019189,0.001000,0.001000,0.001000,0.001000,0.001000
1017.500000,0.018087,0.001000,0.001000,0.001000,0.001000,0.001000
1017.519231,0.016974,0.001000,0.001000,0.001000,0.001000,0.001000
1017.538462,0.015852,0.001000,0.001000,0.001000,0.001000,0.001000
1017.557692,0.014721,0.001000,0.001000,0.001000,0.001000,0.001000
1017.576923,0.013582,0.001000,0.001000,0.001000,0.001000,0.001000
1017.596154,0.012435,0.001000,0.001000,0.001000,0.001000,0.001000
1017.615385,0.011281,0.001000,0.001000,0.001000,0.001000,0.001000
1017.634615,0.010120,0.001000,0.001000,0.001000,0.001000,0.001000
1017.653846,0.008954,0.001000,0.001000,0.001000,0.001000,0.001000
1017.673077,0.007783,0.001000,0.001000,0.001000,0.001000,0.001000
1017.692308,0.006607,0.001000,0.001000,0.001000,0.001000,0.001000
1017.711538,0.005428,0.001000,0.001000,0.001000,0.001000,0.001000
1017.730769,0.004246,0.001000,0.001000,0.001000,0.001000,0.001000
1017.750000,0.003061,0.001000,0.001000,0.001000,0.001000,0.001000
1017.769231,0.001874,0.001000,0.001000,0.001000,0.001000,0.001000
1017.788462,0.000687,0.001000,0.001000,0.001000,0.001000,0.001000
1017.807692,-0.000501,0.001000,0.001000,0.001000,0.001000,0.001000
1017.826923,-0.001689,0.001000,0.001000,0.001000,0.001000,0.001000
1017.846154,-0.002875,0.001000,0.001000,0.001000,0.001000,0.001000
1017.865385,-0.004061,0.001000,0.001000,0.001000,0.001000,0.001000
1017.884615,-0.005243,0.001000,0.001000,0.001000,0.001000,0.001000
1017.903846,-0.006423,0.001000,0.001000,0.001000,0.001000,0.001000
1017.923077,-0.007599,0.001000,0.001000,0.001000,0.001000,0.001000
1017.942308,-0.008771,0.001000,0.001000,0.001000,0.001000,0.001000
1017.961538,-0.009938,0.001000,0.001000,0.001000,0.001000,0.001000
1017.980769,-0.011100,0.001000,0.001000,0.001000,0.001000,0.001000
1018.000000,-0.012255,0.001000,0.001000,0.001000,0.001000,0.001000
1018.019231,-0.013403,0.001000,0.001000,0.001000,0.001000,0.001000
1018.038462,-0.014543,0.001000,0.001000,0.001000,0.001000,0.001000
1018.057692,-0.015676,0.001000,0.001000,0.001000,0.001000,0.001000
1018.076923,-0.016799,0.001000,0.001000,0.001000,0.001000,0.001000
1018.096154,-0.017913,0.001000,0.001000,0.001000,0.001000,0.001000
1018.115385,-0.019017,0.001000,0.001000,0.001000,0.001000,0.001000
1018.134615,-0.020111,0.001000,0.001000,0.001000,0.001000,0.001000
1018.153846,-0.021192,0.001000,0.001000,0.001000,0.001000,0.001000
1018.173077,-0.022262,0.001000,0.001000,0.001000,0.001000,0.001000
1018.192308,-0.023320,0.001000,0.001000,0.001000,0.001000,0.001000
1018.211538,-0.024364,0.001000,0.001000,0.001000,0.001000,0.001000
1018.230769,-0.025394,0.001000,0.001000,0.001000,0.001000,0.001000
1018.250000,-0.026410,0.001000,0.001000,0.001000,0.001000,0.001000
1018.269231,-0.027412,0.001000,0.001000,0.001000,0.001000,0.001000
1018.288462,-0.028397,0.001000,0.001000,0.001000,0.001000,0.001000
1018.307692,-0.029367,0.001000,0.001000,0.001000,0.001000,0.001000
1018.326923,-0.030320,0.001000,0.001000,0.001000,0.001000,0.001000
1018.346154,-0.031256,0.001000,0.001000,0.001000,0.001000,0.001000
1018.365385,-0.032174,0.001000,0.001000,0.001000,0.001000,0.001000
1018.384615,-0.033074,0.001000,0.001000,0.001000,0.001000,0.001000
1018.403846,-0.033956,0.001000,0.001000,0.001000,0.001000,0.001000
1018.423077,-0.034818,0.001000,0.001000,0.001000,0.001000,0.001000
1018.442308,-0.035661,0.001000,0.001000,0.001000,0.001000,0.001000
1018.461538,-0.036484,0.001000,0.001000,0.001000,0.001000,0.001000
1018.480769,-0.037286,0.001000,0.001000,0.001000,0.001000,0.001000
1018.500000,-0.038066,0.001000,0.001000,0.001000,0.001000,0.001000
1018.519231,-0.038826,0.001000,0.001000,0.001000,0.001000,0.001000
1018.538462,-0.039563,0.001000,0.001000,0.001000,0.001000,0.001000
1018.557692,-0.040279,0.001000,0.001000,0.001000,0.001000,0.001000
1018.576923,-0.040971,0.001000,0.001000,0.001000,0.001000,0.001000
1018.596154,-0.041640,0.001000,0.001000,0.001000,0.001000,0.001000
1018.615385,-0.042286,0.001000,0.001000,0.001000,0.001000,0.001000
1018.634615,-0.042908,0.001000,0.001000,0.001000,0.001000,0.001000
1018.653846,-0.043506,0.001000,0.001000,0.001000,0.001000,0.001000
1018.673077,-0.044079,0.001000,0.001000,0.001000,0.001000,0.001000
1018.692308,-0.044627,0.001000,0.001000,0.001000,0.001000,0.001000
1018.711538,-0.045150,0.001000,0.001000,0.001000,0.001000,0.001000
1018.730769,-0.045648,0.001000,0.001000,0.001000,0.001000,0.001000
1018.750000,-0.046120,0.001000,0.001000,0.001000,0.001000,0.001000
1018.769231,-0.046565,0.001000,0.001000,0.001000,0.001000,0.001000
1018.788462,-0.046985,0.001000,0.001000,0.001000,0.001000,0.001000
1018.807692,-0.047378,0.001000,0.001000,0.001000,0.001000,0.001000
1018.826923,-0.047744,0.001000,0.001000,0.001000,0.001000,0.001000
1018.846154,-0.048083,0.001000,0.001000,0.001000,0.001000,0.001000
1018.865385,-0.048396,0.001000,0.001000,0.001000,0.001000,0.001000
1018.884615,-0.048680,0.001000,0.001000,0.001000,0.001000,0.001000
1018.903846,-0.048938,0.001000,0.001000,0.001000,0.001000,0.001000
1018.923077,-0.049168,0.001000,0.001000,0.001000,0.001000,0.001000
1018.942308,-0.049370,0.001000,0.001000,0.001000,0.001000,0.001000
1018.961538,-0.049544,0.001000,0.001000,0.001000,0.001000,0.001000
1018.980769,-0.049690,0.001000,0.001000,0.001000,0.001000,0.001000
1019.000000,-0.049808,0.001000,0.001000,0.001000,0.001000,0.001000
1019.019231,-0.049898,0.001000,0.001000,0.001000,0.001000,0.001000
1019.038462,-0.049960,0.001000,0.001000,0.001000,0.001000,0.001000
1019.057692,-0.049993,0.001000,0.001000,0.001000,0.001000,0.001000
1019.076923,-0.049999,0.001000,0.001000,0.001000,0.001000,0.001000
1019.096154,-0.049976,0.001000,0.001000,0.001000,0.001000,0.001000
1019.115385,-0.049925,0.001000,0.001000,0.001000,0.001000,0.001000
1019.134615,-0.049846,0.001000,0.001000,0.001000,0.001000,0.001000
1019.153846,-0.049738,0.001000,0.001000,0.001000,0.001000,0.001000
1019.173077,-0.049603,0.001000,0.001000,0.001000,0.001000,0.001000
1019.192308,-0.049439,0.001000,0.001000,0.001000,0.001000,0.001000
1019.211538,-0.049248,0.001000,0.001000,0.001000,0.001000,0.001000
1019.230769,-0.049029,0.001000,0.001000,0.001000,0.001000,0.001000
1019.250000,-0.048782,0.001000,0.001000,0.001000,0.001000,0.001000
1019.269231,-0.048508,0.001000,0.001000,0.001000,0.001000,0.001000
1019.288462,-0.048206,0.001000,0.001000,0.001000,0.001000,0.001000
1019.307692,-0.047877,0.001000,0.001000,0.001000,0.001000,0.001000
1019.326923,-0.047521,0.001000,0.001000,0.001000,0.001000,0.001000
1019.346154,-0.047138,0.001000,0.001000,0.001000,0.001000,0.001000
1019.365385,-0.046729,0.001000,0.001000,0.001000,0.001000,0.001000
1019.384615,-0.046293,0.001000,0.001000,0.001000,0.001000,0.001000
1019.403846,-0.045831,0.001000,0.001000,0.001000,0.001000,0.001000
1019.423077,-0.045343,0.001000,0.001000,0.001000,0.001000,0.001000
1019.442308,-0.044830,0.001000,0.001000,0.001000,0.001000,0.001000
1019.461538,-0.044291,0.001000,0.001000,0.001000,0.001000,0.001000
1019.480769,-0.043727,0.001000,0.001000,0.001000,0.001000,0.001000
1019.500000,-0.043139,0.001000,0.001000,0.001000,0.001000,0.001000
1019.519231,-0.042526,0.001000,0.001000,0.001000,0.001000,0.001000
1019.538462,-0.041890,0.001000,0.001000,0.001000,0.001000,0.001000
1019.557692,-0.041229,0.001000,0.001000,0.001000,0.001000,0.001000
1019.576923,-0.040546,0.001000,0.001000,0.001000,0.001000,0.001000
1019.596154,-0.039839,0.001000,0.001000,0.001000,0.001000,0.001000
1019.615385,-0.039110,0.001000,0.001000,0.001000,0.001000,0.001000
1019.634615,-0.038359,0.001000,0.001000,0.001000,0.001000,0.001000
1019.653846,-0.037586,0.001000,0.001000,0.001000,0.001000,0.001000
1019.673077,-0.036792,0.001000,0.001000,0.001000,0.001000,0.001000
1019.692308,-0.035977,0.001000,0.001000,0.001000,0.001000,0.001000
1019.711538,-0.035142,0.001000,0.001000,0.001000,0.001000,0.001000
1019.730769,-0.034288,0.001000,0.001000,0.001000,0.001000,0.001000
1019.750000,-0.033413,0.001000,0.001000,0.001000,0.001000,0.001000
1019.769231,-0.032520,0.001000,0.001000,0.001000,0.001000,0.001000
1019.788462,-0.031609,0.001000,0.001000,0.001000,0.001000,0.001000
1019.807692,-0.030679,0.001000,0.001000,0.001000,0.001000,0.001000
1019.826923,-0.029733,0.001000,0.001000,0.001000,0.001000,0.001000
1019.846154,-0.028769,0.001000,0.001000,0.001000,0.001000,0.001000
1019.865385,-0.027790,0.001000,0.001000,0.001000,0.001000,0.001000
1019.884615,-0.026794,0.001000,0.001000,0.001000,0.001000,0.001000
1019.903846,-0.025784,0.001000,0.001000,0.001000,0.001000,0.001000
1019.923077,-0.024759,0.001000,0.001000,0.001000,0.001000,0.001000
1019.942308,-0.023720,0.001000,0.001000,0.001000,0.001000,0.001000
1019.961538,-0.022668,0.001000,0.001000,0.001000,0.001000,0.001000
1019.980769,-0.021602,0.001000,0.001000,0.001000,0.001000,0.001000
1020.000000,-0.020525,0.001000,0.001000,0.001000,0.001000,0.001000
1020.019231,-0.019436,0.001000,0.001000,0.001000,0.001000,0.001000
1020.038462,-0.018336,0.001000,0.001000,0.001000,0.001000,0.001000
1020.057692,-0.017226,0.001000,0.001000,0.001000,0.001000,0.001000
1020.076923,-0.016106,0.001000,0.001000,0.001000,0.001000,0.001000
1020.096154,-0.014977,0.001000,0.001000,0.001000,0.001000,0.001000
1020.115385,-0.013839,0.001000,0.001000,0.001000,0.001000,0.001000
1020.134615,-0.012694,0.001000,0.001000,0.001000,0.001000,0.001000
1020.153846,-0.011541,0.001000,0.001000,0.001000,0.001000,0.001000
1020.173077,-0.010382,0.001000,0.001000,0.001000,0.001000,0.001000
1020.192308,-0.009217,0.001000,0.001000,0.001000,0.001000,0.001000
1020.211538,-0.008047,0.001000,0.001000,0.001000,0.001000,0.001000
1020.230769,-0.006873,0.001000,0.001000,0.001000,0.001000,0.001000
1020.250000,-0.005694,0.001000,0.001000,0.001000,0.001000,0.001000
1020.269231,-0.004512,0.001000,0.001000,0.001000,0.001000,0.001000
1020.288462,-0.003328,0.001000,0.001000,0.001000,0.001000,0.001000
1020.307692,-0.002142,0.001000,0.001000,0.001000,0.001000,0.001000
1020.326923,-0.000955,0.001000,0.001000,0.001000,0.001000,0.001000
1020.346154,0.000233,0.001000,0.001000,0.001000,0.001000,0.001000
1020.365385,0.001421,0.001000,0.001000,0.001000,0.001000,0.001000
1020.384615,0.002608,0.001000,0.001000,0.001000,0.001000,0.001000
1020.403846,0.003794,0.001000,0.001000,0.001000,0.001000,0.001000
1020.423077,0.004977,0.001000,0.001000,0.001000,0.001000,0.001000
1020.442308,0.006157,0.001000,0.001000,0.001000,0.001000,0.001000
1020.461538,0.007335,0.001000,0.001000,0.001000,0.001000,0.001000
1020.480769,0.008507,0.001000,0.001000,0.001000,0.001000,0.001000
1020.500000,0.009676,0.001000,0.001000,0.001000,0.001000,0.001000
1020.519231,0.010838,0.001000,0.001000,0.001000,0.001000,0.001000
1020.538462,0.011995,0.001000,0.001000,0.001000,0.001000,0.001000
1020.557692,0.013145,0.001000,0.001000,0.001000,0.001000,0.001000
1020.576923,0.014287,0.001000,0.001000,0.001000,0.001000,0.001000
1020.596154,0.015421,0.001000,0.001000,0.001000,0.001000,0.001000
1020.615385,0.016547,0.001000,0.001000,0.001000,0.001000,0.001000
1020.634615,0.017663,0.001000,0.001000,0.001000,0.001000,0.001000
1020.653846,0.018769,0.001000,0.001000,0.001000,0.001000,0.001000
1020.673077,0.019865,0.001000,0.001000,0.001000,0.001000,0.001000
1020.692308,0.020950,0.001000,0.001000,0.001000,0.001000,0.001000
1020.711538,0.022022,0.001000,0.001000,0.001000,0.001000,0.001000
1020.730769,0.023082,0.001000,0.001000,0.001000,0.001000,0.001000
1020.750000,0.024130,0.001000,0.001000,0.001000,0.001000,0.001000
1020.769231,0.025163,0.001000,0.001000,0.001000,0.001000,0.001000
1020.788462,0.026183,0.001000,0.001000,0.001000,0.001000,0.001000
1020.807692,0.027187,0.001000,0.001000,0.001000,0.001000,0.001000
1020.826923,0.028176,0.001000,0.001000,0.001000,0.001000,0.001000
1020.846154,0.029150,0.001000,0.001000,0.001000,0.001000,0.001000
1020.865385,0.030107,0.001000,0.001000,0.001000,0.001000,0.001000
1020.884615,0.031046,0.001000,0.001000,0.001000,0.001000,0.001000
1020.903846,0.031969,0.001000,0.001000,0.001000,0.001000,0.001000
1020.923077,0.032873,0.001000,0.001000,0.001000,0.001000,0.001000
1020.942308,0.033759,0.001000,0.001000,0.001000,0.001000,0.001000
1020.961538,0.034626,0.001000,0.001000,0.001000,0.001000,0.001000
1020.980769,0.035473,0.001000,0.001000,0.001000,0.001000,0.001000
1021.000000,0.036300,0.001000,0.001000,0.001000,0.001000,0.001000
1021.019231,0.037107,0.001000,0.001000,0.001000,0.001000,0.001000
1021.038462,0.037892,0.001000,0.001000,0.001000,0.001000,0.001000
1021.057692,0.038657,0.001000,0.001000,0.001000,0.001000,0.001000
1021.076923,0.039399,0.001000,0.001000,0.001000,0.001000,0.001000
1021.096154,0.040119,0.001000,0.001000,0.001000,0.001000,0.001000
1021.115385,0.040817,0.001000,0.001000,0.001000,0.001000,0.001000
1021.134615,0.041491,0.001000,0.001000,0.001000,0.001000,0.001000
1021.153846,0.042143,0.001000,0.001000,0.001000,0.001000,0.001000
1021.173077,0.042770,0.001000,0.001000,0.001000,0.001000,0.001000
1021.192308,0.043373,0.001000,0.001000,0.001000,0.001000,0.001000
1021.211538,0.043952,0.001000,0.001000,0.001000,0.001000,0.001000
1021.230769,0.044506,0.001000,0.001000,0.001000,0.001000,0.001000
1021.250000,0.045035,0.001000,0.001000,0.001000,0.001000,0.001000
1021.269231,0.045538,0.001000,0.001000,0.001000,0.001000,0.001000
1021.288462,0.046016,0.001000,0.001000,0.001000,0.001000,0.001000
1021.307692,0.046467,0.001000,0.001000,0.001000,0.001000,0.001000
1021.326923,0.046893,0.001000,0.001000,0.001000,0.001000,0.001000
1021.346154,0.047292,0.001000,0.001000,0.001000,0.001000,0.001000
1021.365385,0.047664,0.001000,0.001000,0.001000,0.001000,0.001000
1021.384615,0.048009,0.001000,0.001000,0.001000,0.001000,0.001000
1021.403846,0.048328,0.001000,0.001000,0.001000,0.001000,0.001000
1021.423077,0.048619,0.001000,0.001000,0.001000,0.001000,0.001000
1021.442308,0.048882,0.001000,0.001000,0.001000,0.001000,0.001000
1021.461538,0.049118,0.001000,0.001000,0.001000,0.001000,0.001000
1021.480769,0.049326,0.001000,0.001000,0.001000,0.001000,0.001000
1021.500000,0.049507,0.001000,0.001000,0.001000,0.001000,0.001000
1021.519231,0.049659,0.001000,0.001000,0.001000,0.001000,0.001000
1021.538462,0.049784,0.001000,0.001000,0.001000,0.001000,0.001000
1021.557692,0.049880,0.001000,0.001000,0.001000,0.001000,0.001000
1021.576923,0.049948,0.001000,0.001000,0.001000,0.001000,0.001000
1021.596154,0.049988,0.001000,0.001000,0.001000,0.001000,0.001000
1021.615385,0.050000,0.001000,0.001000,0.001000,0.001000,0.001000
1021.634615,0.049983,0.001000,0.001000,0.001000,0.001000,0.001000
1021.653846,0.049939,0.001000,0.001000,0.001000,0.001000,0.001000
1021.673077,0.049866,0.001000,0.001000,0.001000,0.001000,0.001000
1021.692308,0.049765,0.001000,0.001000,0.001000,0.001000,0.001000
1021.711538,0.049636,0.001000,0.001000,0.001000,0.001000,0.001000
1021.730769,0.049479,0.001000,0.001000,0.001000,0.001000,0.001000
1021.750000,0.049294,0.001000,0.001000,0.001000,0.001000,0.001000
1021.769231,0.049081,0.001000,0.001000,0.001000,0.001000,0.001000
1021.788462,0.048840,0.001000,0.001000,0.001000,0.001000,0.001000
1021.807692,0.048572,0.001000,0.001000,0.001000,0.001000,0.001000
1021.826923,0.048276,0.001000,0.001000,0.001000,0.001000,0.001000
1021.846154,0.047953,0.001000,0.001000,0.001000,0.001000,0.001000
1021.865385,0.047604,0.001000,0.001000,0.001000,0.001000,0.001000
1021.884615,0.047227,0.001000,0.001000,0.001000,0.001000,0.001000
1021.903846,0.046823,0.001000,0.001000,0.001000,0.001000,0.001000
1021.923077,0.046393,0.001000,0.001000,0.001000,0.001000,0.001000
1021.942308,0.045937,0.001000,0.001000,0.001000,0.001000,0.001000
1021.961538,0.045455,0.001000,0.001000,0.001000,0.001000,0.001000
1021.980769,0.044948,0.001000,0.001000,0.001000,0.001000,0.001000
1022.000000,0.044415,0.001000,0.001000,0.001000,0.001000,0.001000
1022.019231,0.043857,0.001000,0.001000,0.001000,0.001000,0.001000
1022.038462,0.043274,0.001000,0.001000,0.001000,0.001000,0.001000
1022.057692,0.042667,0.001000,0.001000,0.001000,0.001000,0.001000
1022.076923,0.042035,0.001000,0.001000,0.001000,0.001000,0.001000
1022.096154,0.041380,0.001000,0.001000,0.001000,0.001000,0.001000
1022.115385,0.040702,0.001000,0.001000,0.001000,0.001000,0.001000
1022.134615,0.040000,0.001000,0.001000,0.001000,0.001000,0.001000
1022.153846,0.039276,0.001000,0.001000,0.001000,0.001000,0.001000
1022.173077,0.038530,0.001000,0.001000,0.001000,0.001000,0.001000
1022.192308,0.037762,0.001000,0.001000,0.001000,0.001000,0.001000
1022.211538,0.036973,0.001000,0.001000,0.001000,0.001000,0.001000
1022.230769,0.036163,0.001000,0.001000,0.001000,0.001000,0.001000
1022.250000,0.035332,0.001000,0.001000,0.001000,0.001000,0.001000
1022.269231,0.034482,0.001000,0.001000,0.001000,0.001000,0.001000
1022.288462,0.033612,0.001000,0.001000,0.001000,0.001000,0.001000
1022.307692,0.032723,0.001000,0.001000,0.001000,0.001000,0.001000
1022.326923,0.031816,0.001000,0.001000,0.001000,0.001000,0.001000
1022.346154,0.030890,0.001000,0.001000,0.001000,0.001000,0.001000
1022.365385,0.029948,0.001000,0.001000,0.001000,0.001000,0.001000
1022.384615,0.028988,0.001000,0.001000,0.001000,0.001000,0.001000
1022.403846,0.028012,0.001000,0.001000,0.001000,0.001000,0.001000
1022.423077,0.027020,0.001000,0.001000,0.001000,0.001000,0.001000
1022.442308,0.026013,0.001000,0.001000,0.001000,0.001000,0.001000
1022.461538,0.024991,0.001000,0.001000,0.001000,0.001000,0.001000
1022.480769,0.023955,0.001000,0.001000,0.001000,0.001000,0.001000
1022.500000,0.022906,0.001000,0.001000,0.001000,0.001000,0.001000
1022.519231,0.021844,0.001000,0.001000,0.001000,0.001000,0.001000
1022.538462,0.020769,0.001000,0.001000,0.001000,0.001000,0.001000
1022.557692,0.019683,0.001000,0.001000,0.001000,0.001000,0.001000
1022.576923,0.018585,0.001000,0.001000,0.001000,0.001000,0.001000
1022.596154,0.017477,0.001000,0.001000,0.001000,0.001000,0.001000
1022.615385,0.016359,0.001000,0.001000,0.001000,0.001000,0.001000
1022.634615,0.015232,0.001000,0.001000,0.001000,0.001000,0.001000
1022.653846,0.014096,0.001000,0.001000,0.001000,0.001000,0.001000
1022.673077,0.012953,0.001000,0.001000,0.001000,0.001000,0.001000
1022.692308,0.011802,0.001000,0.001000,0.001000,0.001000,0.001000
1022.711538,0.010644,0.001000,0.001000,0.001000,0.001000,0.001000
1022.730769,0.009481,0.001000,0.001000,0.001000,0.001000,0.001000
1022.750000,0.008312,0.001000,0.001000,0.001000,0.001000,0.001000
1022.769231,0.007138,0.001000,0.001000,0.001000,0.001000,0.001000
1022.788462,0.005960,0.001000,0.001000,0.001000,0.001000,0.001000
1022.807692,0.004779,0.001000,0.001000,0.001000,0.001000,0.001000
1022.826923,0.003595,0.001000,0.001000,0.001000,0.001000,0.001000
1022.846154,0.002410,0.001000,0.001000,0.001000,0.001000,0.001000
1022.865385,0.001222,0.001000,0.001000,0.001000,0.001000,0.001000
1022.884615,0.000035,0.001000,0.001000,0.001000,0.001000,0.001000
1022.903846,-0.001153,0.001000,0.001000,0.001000,0.001000,0.001000
1022.923077,-0.002341,0.001000,0.001000,0.001000,0.001000,0.001000
1022.942308,-0.003526,0.001000,0.001000,0.001000,0.001000,0.001000
1022.961538,-0.004710,0.001000,0.001000,0.001000,0.001000,0.001000
1022.980769,-0.005892,0.001000,0.001000,0.001000,0.001000,0.001000
1023.000000,-0.007070,0.001000,0.001000,0.001000,0.001000,0.001000
1023.019231,-0.008243,0.001000,0.001000,0.001000,0.001000,0.001000
1023.038462,-0.009413,0.001000,0.001000,0.001000,0.001000,0.001000
1023.057692,-0.010577,0.001000,0.001000,0.001000,0.001000,0.001000
1023.076923,-0.011735,0.001000,0.001000,0.001000,0.001000,0.001000
1023.096154,-0.012886,0.001000,0.001000,0.001000,0.001000,0.001000
1023.115385,-0.014030,0.001000,0.001000,0.001000,0.001000,0.001000
1023.134615,-0.015166,0.001000,0.001000,0.001000,0.001000,0.001000
1023.153846,-0.016294,0.001000,0.001000,0.001000,0.001000,0.001000
1023.173077,-0.017412,0.001000,0.001000,0.001000,0.001000,0.001000
1023.192308,-0.018521,0.001000,0.001000,0.001000,0.001000,0.001000
1023.211538,-0.019619,0.001000,0.001000,0.001000,0.001000,0.001000
1023.230769,-0.020706,0.001000,0.001000,0.001000,0.001000,0.001000
1023.250000,-0.021781,0.001000,0.001000,0.001000,0.001000,0.001000
1023.269231,-0.022845,0.001000,0.001000,0.001000,0.001000,0.001000
1023.288462,-0.023895,0.001000,0.001000,0.001000,0.001000,0.001000
1023.307692,-0.024931,0.001000,0.001000,0.001000,0.001000,0.001000
1023.326923,-0.025954,0.001000,0.001000,0.001000,0.001000,0.001000
1023.346154,-0.026962,0.001000,0.001000,0.001000,0.001000,0.001000
1023.365385,-0.027955,0.001000,0.001000,0.001000,0.001000,0.001000
1023.384615,-0.028932,0.001000,0.001000,0.001000,0.001000,0.001000
1023.403846,-0.029892,0.001000,0.001000,0.001000,0.001000,0.001000
1023.423077,-0.030836,0.001000,0.001000,0.001000,0.001000,0.001000
1023.442308,-0.031762,0.001000,0.001000,0.001000,0.001000,0.001000
1023.461538,-0.032671,0.001000,0.001000,0.001000,0.001000,0.001000
1023.480769,-0.033561,0.001000,0.001000,0.001000,0.001000,0.001000
1023.500000,-0.034432,0.001000,0.001000,0.001000,0.001000,0.001000
1023.519231,-0.035283,0.001000,0.001000,0.001000,0.001000,0.001000
1023.538462,-0.036115,0.001000,0.001000,0.001000,0.001000,0.001000
1023.557692,-0.036926,0.001000,0.001000,0.001000,0.001000,0.001000
1023.576923,-0.037717,0.001000,0.001000,0.001000,0.001000,0.001000
1023.596154,-0.038486,0.001000,0.001000,0.001000,0.001000,0.001000
1023.615385,-0.039234,0.001000,0.001000,0.001000,0.001000,0.001000
1023.634615,-0.039959,0.001000,0.001000,0.001000,0.001000,0.001000
1023.653846,-0.040662,0.001000,0.001000,0.001000,0.001000,0.001000
1023.673077,-0.041341,0.001000,0.001000,0.001000,0.001000,0.001000
1023.692308,-0.041998,0.001000,0.001000,0.001000,0.001000,0.001000
1023.711538,-0.042631,0.001000,0.001000,0.001000,0.001000,0.001000
1023.730769,-0.043239,0.001000,0.001000,0.001000,0.001000,0.001000
1023.750000,-0.043823,0.001000,0.001000,0.001000,0.001000,0.001000
1023.769231,-0.044383,0.001000,0.001000,0.001000,0.001000,0.001000
1023.788462,-0.044918,0.001000,0.001000,0.001000,0.001000,0.001000
1023.807692,-0.045427,0.001000,0.001000,0.001000,0.001000,0.001000
1023.826923,-0.045910,0.001000,0.001000,0.001000,0.001000,0.001000
1023.846154,-0.046368,0.001000,0.001000,0.001000,0.001000,0.001000
1023.865385,-0.046799,0.001000,0.001000,0.001000,0.001000,0.001000
1023.884615,-0.047204,0.001000,0.001000,0.001000,0.001000,0.001000
1023.903846,-0.047582,0.001000,0.001000,0.001000,0.001000,0.001000
1023.923077,-0.047934,0.001000,0.001000,0.001000,0.001000,0.001000
1023.942308,-0.048258,0.001000,0.001000,0.001000,0.001000,0.001000
1023.961538,-0.048555,0.001000,0.001000,0.001000,0.001000,0.001000
1023.980769,-0.048825,0.001000,0.001000,0.001000,0.001000,0.001000
1024.000000,-0.049067,0.001000,0.001000,0.001000,0.001000,0.001000
1024.019231,-0.049282,0.001000,0.001000,0.001000,0.001000,0.001000
1024.038462,-0.049469,0.001000,0.001000,0.001000,0.001000,0.001000
1024.057692,-0.049627,0.001000,0.001000,0.001000,0.001000,0.001000
1024.076923,-0.049758,0.001000,0.001000,0.001000,0.001000,0.001000
1024.096154,-0.049861,0.001000,0.001000,0.001000,0.001000,0.001000
1024.115385,-0.049935,0.001000,0.001000,0.001000,0.001000,0.001000
1024.134615,-0.049982,0.001000,0.001000,0.001000,0.001000,0.001000
1024.153846,-0.050000,0.001000,0.001000,0.001000,0.001000,0.001000
1024.173077,-0.049990,0.001000,0.001000,0.001000,0.001000,0.001000
1024.192308,-0.049951,0.001000,0.001000,0.001000,0.001000,0.001000
1024.211538,-0.049885,0.001000,0.001000,0.001000,0.001000,0.001000
1024.230769,-0.049790,0.001000,0.001000,0.001000,0.001000,0.001000
1024.250000,-0.049667,0.001000,0.001000,0.001000,0.001000,0.001000
1024.269231,-0.049516,0.001000,0.001000,0.001000,0.001000,0.001000
1024.288462,-0.049338,0.001000,0.001000,0.001000,0.001000,0.001000
1024.307692,-0.049131,0.001000,0.001000,0.001000,0.001000,0.001000
1024.326923,-0.048897,0.001000,0.001000,0.001000,0.001000,0.001000
1024.346154,-0.048635,0.001000,0.001000,0.001000,0.001000,0.001000
1024.365385,-0.048345,0.001000,0.001000,0.001000,0.001000,0.001000
1024.384615,-0.048029,0.001000,0.001000,0.001000,0.001000,0.001000
1024.403846,-0.047685,0.001000,0.001000,0.001000,0.001000,0.001000
1024.423077,-0.047314,0.001000,0.001000,0.001000,0.001000,0.001000
1024.442308,-0.046917,0.001000,0.001000,0.001000,0.001000,0.001000
1024.461538,-0.046493,0.001000,0.001000,0.001000,0.001000,0.001000
1024.480769,-0.046043,0.001000,0.001000,0.001000,0.001000,0.001000
1024.500000,-0.045566,0.001000,0.001000,0.001000,0.001000,0.001000
1024.519231,-0.045064,0.001000,0.001000,0.001000,0.001000,0.001000
1024.538462,-0.044537,0.001000,0.001000,0.001000,0.001000,0.001000
1024.557692,-0.043985,0.001000,0.001000,0.001000,0.001000,0.001000
1024.576923,-0.043407,0.001000,0.001000,0.001000,0.001000,0.001000
1024.596154,-0.042806,0.001000,0.001000,0.001000,0.001000,0.001000
1024.615385,-0.042180,0.001000,0.001000,0.001000,0.001000,0.001000
1024.634615,-0.041530,0.001000,0.001000,0.001000,0.001000,0.001000
1024.653846,-0.040857,0.001000,0.001000,0.001000,0.001000,0.001000
1024.673077,-0.040160,0.001000,0.001000,0.001000,0.001000,0.001000
1024.692308,-0.039442,0.001000,0.001000,0.001000,0.001000,0.001000
1024.711538,-0.038700,0.001000,0.001000,0.001000,0.001000,0.001000
1024.730769,-0.037937,0.001000,0.001000,0.001000,0.001000,0.001000
1024.750000,-0.037153,0.001000,0.001000,0.001000,0.001000,0.001000
1024.769231,-0.036347,0.001000,0.001000,0.001000,0.001000,0.001000
1024.788462,-0.035521,0.001000,0.001000,0.001000,0.001000,0.001000
1024.807692,-0.034675,0.001000,0.001000,0.001000,0.001000,0.001000
1024.826923,-0.033810,0.001000,0.001000,0.001000,0.001000,0.001000
1024.846154,-0.032925,0.001000,0.001000,0.001000,0.001000,0.001000
1024.865385,-0.032022,0.001000,0.001000,0.001000,0.001000,0.001000
1024.884615,-0.031101,0.001000,0.001000,0.001000,0.001000,0.001000
1024.903846,-0.030162,0.001000,0.001000,0.001000,0.001000,0.001000
1024.923077,-0.029206,0.001000,0.001000,0.001000,0.001000,0.001000
1024.942308,-0.028233,0.001000,0.001000,0.001000,0.001000,0.001000
1024.961538,-0.027245,0.001000,0.001000,0.001000,0.001000,0.001000
1024.980769,-0.026241,0.001000,0.001000,0.001000,0.001000,0.001000
1025.000000,-0.025223,0.001000,0.001000,0.001000,0.001000,0.001000
1025.019231,-0.024190,0.001000,0.001000,0.001000,0.001000,0.001000
1025.038462,-0.023144,0.001000,0.001000,0.001000,0.001000,0.001000
1025.057692,-0.022084,0.001000,0.001000,0.001000,0.001000,0.001000
1025.076923,-0.021012,0.001000,0.001000,0.001000,0.001000,0.001000
1025.096154,-0.019928,0.001000,0.001000,0.001000,0.001000,0.001000
1025.115385,-0.018833,0.001000,0.001000,0.001000,0.001000,0.001000
1025.134615,-0.017728,0.001000,0.001000,0.001000,0.001000,0.001000
1025.153846,-0.016612,0.001000,0.001000,0.001000,0.001000,0.001000
1025.173077,-0.015487,0.001000,0.001000,0.001000,0.001000,0.001000
1025.192308,-0.014353,0.001000,0.001000,0.001000,0.001000,0.001000
1025.211538,-0.013211,0.001000,0.001000,0.001000,0.001000,0.001000
1025.230769,-0.012062,0.001000,0.001000,0.001000,0.001000,0.001000
1025.250000,-0.010906,0.001000,0.001000,0.001000,0.001000,0.001000
1025.269231,-0.009743,0.001000,0.001000,0.001000,0.001000,0.001000
1025.288462,-0.008576,0.001000,0.001000,0.001000,0.001000,0.001000
1025.307692,-0.007403,0.001000,0.001000,0.001000,0.001000,0.001000
1025.326923,-0.006226,0.001000,0.001000,0.001000,0.001000,0.001000
1025.346154,-0.005046,0.001000,0.001000,0.001000,0.001000,0.001000
1025.365385,-0.003862,0.001000,0.001000,0.001000,0.001000,0.001000
1025.384615,-0.002677,0.001000,0.001000,0.001000,0.001000,0.001000
1025.403846,-0.001490,0.001000,0.001000,0.001000,0.001000,0.001000
1025.423077,-0.000302,0.001000,0.001000,0.001000,0.001000,0.001000
1025.442308,0.000886,0.001000,0.001000,0.001000,0.001000,0.001000
1025.461538,0.002073,0.001000,0.001000,0.001000,0.001000,0.001000
1025.480769,0.003259,0.001000,0.001000,0.001000,0.001000,0.001000
1025.500000,0.004444,0.001000,0.001000,0.001000,0.001000,0.001000
1025.519231,0.005626,0.001000,0.001000,0.001000,0.001000,0.001000
1025.538462,0.006804,0.001000,0.001000,0.001000,0.001000,0.001000
1025.557692,0.007979,0.001000,0.001000,0.001000,0.001000,0.001000
1025.576923,0.009150,0.001000,0.001000,0.001000,0.001000,0.001000
1025.596154,0.010315,0.001000,0.001000,0.001000,0.001000,0.001000
1025.615385,0.011474,0.001000,0.001000,0.001000,0.001000,0.001000
1025.634615,0.012627,0.001000,0.001000,0.001000,0.001000,0.001000
1025.653846,0.013773,0.001000,0.001000,0.001000,0.001000,0.001000
1025.673077,0.014911,0.001000,0.001000,0.001000,0.001000,0.001000
1025.692308,0.016040,0.001000,0.001000,0.001000,0.001000,0.001000
1025.711538,0.017161,0.001000,0.001000,0.001000,0.001000,0.001000
1025.730769,0.018272,0.001000,0.001000,0.001000,0.001000,0.001000
1025.750000,0.019372,0.001000,0.001000,0.001000,0.001000,0.001000
1025.769231,0.020462,0.001000,0.001000,0.001000,0.001000,0.001000
1025.788462,0.021540,0.001000,0.001000,0.001000,0.001000,0.001000
1025.807692,0.022606,0.001000,0.001000,0.001000,0.001000,0.001000
1025.826923,0.023659,0.001000,0.001000,0.001000,0.001000,0.001000
1025.846154,0.024699,0.001000,0.001000,0.001000,0.001000,0.001000
1025.865385,0.025725,0.001000,0.001000,0.001000,0.001000,0.001000
1025.884615,0.026736,0.001000,0.001000,0.001000,0.001000,0.001000
1025.903846,0.027732,0.001000,0.001000,0.001000,0.001000,0.001000
1025.923077,0.028713,0.001000,0.001000,0.001000,0.001000,0.001000
1025.942308,0.029677,0.001000,0.001000,0.001000,0.001000,0.001000
1025.961538,0.030625,0.001000,0.001000,0.001000,0.001000,0.001000
1025.980769,0.031555,0.001000,0.001000,0.001000,0.001000,0.001000
1026.000000,0.032468,0.001000,0.001000,0.001000,0.001000,0.001000
1026.019231,0.033362,0.001000,0.001000,0.001000,0.001000,0.001000
1026.038462,0.034237,0.001000,0.001000,0.001000,0.001000,0.001000
1026.057692,0.035093,0.001000,0.001000,0.001000,0.001000,0.001000
1026.076923,0.035929,0.001000,0.001000,0.001000,0.001000,0.001000
1026.096154,0.036745,0.001000,0.001000,0.001000,0.001000,0.001000
1026.115385,0.037541,0.001000,0.001000,0.001000,0.001000,0.001000
1026.134615,0.038315,0.001000,0.001000,0.001000,0.001000,0.001000
1026.153846,0.039067,0.001000,0.001000,0.001000,0.001000,0.001000
1026.173077,0.039797,0.001000,0.001000,0.001000,0.001000,0.001000
1026.192308,0.040505,0.001000,0.001000,0.001000,0.001000,0.001000
1026.211538,0.041190,0.001000,0.001000,0.001000,0.001000,0.001000
1026.230769,0.041852,0.001000,0.001000,0.001000,0.001000,0.001000
1026.250000,0.042490,0.001000,0.001000,0.001000,0.001000,0.001000
1026.269231,0.043104,0.001000,0.001000,0.001000,0.001000,0.001000
1026.288462,0.043694,0.001000,0.001000,0.001000,0.001000,0.001000
1026.307692,0.044259,0.001000,0.001000,0.001000,0.001000,0.001000
1026.326923,0.044799,0.001000,0.001000,0.001000,0.001000,0.001000
1026.346154,0.045314,0.001000,0.001000,0.001000,0.001000,0.001000
1026.365385,0.045803,0.001000,0.001000,0.001000,0.001000,0.001000
1026.384615,0.046267,0.001000,0.001000,0.001000,0.001000,0.001000
1026.403846,0.046704,0.001000,0.001000,0.001000,0.001000,0.001000
1026.423077,0.047115,0.001000,0.001000,0.001000,0.001000,0.001000
1026.442308,0.047499,0.001000,0.001000,0.001000,0.001000,0.001000
1026.461538,0.047857,0.001000,0.001000,0.001000,0.001000,0.001000
1026.480769,0.048187,0.001000,0.001000,0.001000,0.001000,0.001000
1026.500000,0.048491,0.001000,0.001000,0.001000,0.001000,0.001000
1026.519231,0.048767,0.001000,0.001000,0.001000,0.001000,0.001000
1026.538462,0.049015,0.001000,0.001000,0.001000,0.001000,0.001000
1026.557692,0.049236,0.001000,0.001000,0.001000,0.001000,0.001000
1026.576923,0.049429,0.001000,0.001000,0.001000,0.001000,0.001000
1026.596154,0.049594,0.001000,0.001000,0.001000,0.001000,0.001000
1026.615385,0.049731,0.001000,0.001000,0.001000,0.001000,0.001000
1026.634615,0.049840,0.001000,0.001000,0.001000,0.001000,0.001000
1026.653846,0.049921,0.001000,0.001000,0.001000,0.001000,0.001000
1026.673077,0.049974,0.001000,0.001000,0.001000,0.001000,0.001000
1026.692308,0.049998,0.001000,0.001000,0.001000,0.001000,0.001000
1026.711538,0.049994,0.001000,0.001000,0.001000,0.001000,0.001000
1026.730769,0.049962,0.001000,0.001000,0.001000,0.001000,0.001000
1026.750000,0.049902,0.001000,0.001000,0.001000,0.001000,0.001000
1026.769231,0.049814,0.001000,0.001000,0.001000,0.001000,0.001000
1026.788462,0.049697,0.001000,0.001000,0.001000,0.001000,0.001000
1026.807692,0.049553,0.001000,0.001000,0.001000,0.001000,0.001000
1026.826923,0.049380,0.001000,0.001000,0.001000,0.001000,0.001000
1026.846154,0.049180,0.001000,0.001000,0.001000,0.001000,0.001000
1026.865385,0.048952,0.001000,0.001000,0.001000,0.001000,0.001000
1026.884615,0.048696,0.001000,0.001000,0.001000,0.001000,0.001000
1026.903846,0.048413,0.001000,0.001000,0.001000,0.001000,0.001000
1026.923077,0.048102,0.001000,0.001000,0.001000,0.001000,0.001000
1026.942308,0.047765,0.001000,0.001000,0.001000,0.001000,0.001000
1026.961538,0.047400,0.001000,0.001000,0.001000,0.001000,0.001000
1026.980769,0.047009,0.001000,0.001000,0.001000,0.001000,0.001000
1027.000000,0.046591,0.001000,0.001000,0.001000,0.001000,0.001000
1027.019231,0.046146,0.001000,0.001000,0.001000,0.001000,0.001000
1027.038462,0.045676,0.001000,0.001000,0.001000,0.001000,0.001000
1027.057692,0.045180,0.001000,0.001000,0.001000,0.001000,0.001000
1027.076923,0.044658,0.001000,0.001000,0.001000,0.001000,0.001000
1027.096154,0.044111,0.001000,0.001000,0.001000,0.001000,0.001000
1027.115385,0.043540,0.001000,0.001000,0.001000,0.001000,0.001000
1027.134615,0.042943,0.001000,0.001000,0.001000,0.001000,0.001000
1027.153846,0.042323,0.001000,0.001000,0.001000,0.001000,0.001000
1027.173077,0.041678,0.001000,0.001000,0.001000,0.001000,0.001000
1027.192308,0.041011,0.001000,0.001000,0.001000,0.001000,0.001000
1027.211538,0.040319,0.001000,0.001000,0.001000,0.001000,0.001000
1027.230769,0.039606,0.001000,0.001000,0.001000,0.001000,0.001000
1027.250000,0.038869,0.001000,0.001000,0.001000,0.001000,0.001000
1027.269231,0.038111,0.001000,0.001000,0.001000,0.001000,0.001000
1027.288462,0.037331,0.001000,0.001000,0.001000,0.001000,0.001000
1027.307692,0.036531,0.001000,0.001000,0.001000,0.001000,0.001000
1027.326923,0.035709,0.001000,0.001000,0.001000,0.001000,0.001000
1027.346154,0.034868,0.001000,0.001000,0.001000,0.001000,0.001000
1027.365385,0.034007,0.001000,0.001000,0.001000,0.001000,0.001000
1027.384615,0.033126,0.001000,0.001000,0.001000,0.001000,0.001000
1027.403846,0.032227,0.001000,0.001000,0.001000,0.001000,0.001000
1027.423077,0.031310,0.001000,0.001000,0.001000,0.001000,0.001000
1027.442308,0.030375,0.001000,0.001000,0.001000,0.001000,0.001000
1027.461538,0.029423,0.001000,0.001000,0.001000,0.001000,0.001000
1027.480769,0.028454,0.001000,0.001000,0.001000,0.001000,0.001000
1027.500000,0.027469,0.001000,0.001000,0.001000,0.001000,0.001000
1027.519231,0.026469,0.001000,0.001000,0.001000,0.001000,0.001000
1027.538462,0.025454,0.001000,0.001000,0.001000,0.001000,0.001000
1027.557692,0.024424,0.001000,0.001000,0.001000,0.001000,0.001000
1027.576923,0.023381,0.001000,0.001000,0.001000,0.001000,0.001000
1027.596154,0.022324,0.001000,0.001000,0.001000,0.001000,0.001000
1027.615385,0.021255,0.001000,0.001000,0.001000,0.001000,0.001000
1027.634615,0.020174,0.001000,0.001000,0.001000,0.001000,0.001000
1027.653846,0.019081,0.001000,0.001000,0.001000,0.001000,0.001000
1027.673077,0.017978,0.001000,0.001000,0.001000,0.001000,0.001000
1027.692308,0.016864,0.001000,0.001000,0.001000,0.001000,0.001000
1027.711538,0.015741,0.001000,0.001000,0.001000,0.001000,0.001000
1027.730769,0.014610,0.001000,0.001000,0.001000,0.001000,0.001000
1027.750000,0.013469,0.001000,0.001000,0.001000,0.001000,0.001000
1027.769231,0.012322,0.001000,0.001000,0.001000,0.001000,0.001000
1027.788462,0.011167,0.001000,0.001000,0.001000,0.001000,0.001000
1027.807692,0.010006,0.001000,0.001000,0.001000,0.001000,0.001000
1027.826923,0.008839,0.001000,0.001000,0.001000,0.001000,0.001000
1027.846154,0.007668,0.001000,0.001000,0.001000,0.001000,0.001000
1027.865385,0.006492,0.001000,0.001000,0.001000,0.001000,0.001000
1027.884615,0.005312,0.001000,0.001000,0.001000,0.001000,0.001000
1027.903846,0.004129,0.001000,0.001000,0.001000,0.001000,0.001000
1027.923077,0.002944,0.001000,0.001000,0.001000,0.001000,0.001000
1027.942308,0.001758,0.001000,0.001000,0.001000,0.001000,0.001000
1027.961538,0.000570,0.001000,0.001000,0.001000,0.001000,0.001000
1027.980769,-0.000618,0.001000,0.001000,0.001000,0.001000,0.001000
1028.000000,-0.001805,0.001000,0.001000,0.001000,0.001000,0.001000
1028.019231,-0.002992,0.001000,0.001000,0.001000,0.001000,0.001000
1028.038462,-0.004177,0.001000,0.001000,0.001000,0.001000,0.001000
1028.057692,-0.005359,0.001000,0.001000,0.001000,0.001000,0.001000
1028.076923,-0.006539,0.001000,0.001000,0.001000,0.001000,0.001000
1028.096154,-0.007715,0.001000,0.001000,0.001000,0.001000,0.001000
1028.115385,-0.008886,0.001000,0.001000,0.001000,0.001000,0.001000
1028.134615,-0.010053,0.001000,0.001000,0.001000,0.001000,0.001000
1028.153846,-0.011213,0.001000,0.001000,0.001000,0.001000,0.001000
1028.173077,-0.012368,0.001000,0.001000,0.001000,0.001000,0.001000
1028.192308,-0.013515,0.001000,0.001000,0.001000,0.001000,0.001000
1028.211538,-0.014655,0.001000,0.001000,0.001000,0.001000,0.001000
1028.230769,-0.015787,0.001000,0.001000,0.001000,0.001000,0.001000
1028.250000,-0.016909,0.001000,0.001000,0.001000,0.001000,0.001000
1028.269231,-0.018022,0.001000,0.001000,0.001000,0.001000,0.001000
1028.288462,-0.019125,0.001000,0.001000,0.001000,0.001000,0.001000
1028.307692,-0.020217,0.001000,0.001000,0.001000,0.001000,0.001000
1028.326923,-0.021298,0.001000,0.001000,0.001000,0.001000,0.001000
1028.346154,-0.022367,0.001000,0.001000,0.001000,0.001000,0.001000
1028.365385,-0.023423,0.001000,0.001000,0.001000,0.001000,0.001000
1028.384615,-0.024466,0.001000,0.001000,0.001000,0.001000,0.001000
1028.403846,-0.025495,0.001000,0.001000,0.001000,0.001000,0.001000
1028.423077,-0.026509,0.001000,0.001000,0.001000,0.001000,0.001000
1028.442308,-0.027509,0.001000,0.001000,0.001000,0.001000,0.001000
1028.461538,-0.028493,0.001000,0.001000,0.001000,0.001000,0.001000
1028.480769,-0.029461,0.001000,0.001000,0.001000,0.001000,0.001000
1028.500000,-0.030413,0.001000,0.001000,0.001000,0.001000,0.001000
1028.519231,-0.031347,0.001000,0.001000,0.001000,0.001000,0.001000
1028.538462,-0.032264,0.001000,0.001000,0.001000,0.001000,0.001000
1028.557692,-0.033162,0.001000,0.001000,0.001000,0.001000,0.001000
1028.576923,-0.034042,0.001000,0.001000,0.001000,0.001000,0.001000
1028.596154,-0.034902,0.001000,0.001000,0.001000,0.001000,0.001000
1028.615385,-0.035743,0.001000,0.001000,0.001000,0.001000,0.001000
1028.634615,-0.036563,0.001000,0.001000,0.001000,0.001000,0.001000
1028.653846,-0.037363,0.001000,0.001000,0.001000,0.001000,0.001000
1028.673077,-0.038142,0.001000,0.001000,0.001000,0.001000,0.001000
1028.692308,-0.038899,0.001000,0.001000,0.001000,0.001000,0.001000
1028.711538,-0.039635,0.001000,0.001000,0.001000,0.001000,0.001000
1028.730769,-0.040348,0.001000,0.001000,0.001000,0.001000,0.001000
1028.750000,-0.041038,0.001000,0.001000,0.001000,0.001000,0.001000
1028.769231,-0.041705,0.001000,0.001000,0.001000,0.001000,0.001000
1028.788462,-0.042348,0.001000,0.001000,0.001000,0.001000,0.001000
1028.807692,-0.042968,0.001000,0.001000,0.001000,0.001000,0.001000
1028.826923,-0.043563,0.001000,0.001000,0.001000,0.001000,0.001000
1028.846154,-0.044134,0.001000,0.001000,0.001000,0.001000,0.001000
1028.865385,-0.044680,0.001000,0.001000,0.001000,0.001000,0.001000
1028.884615,-0.045200,0.001000,0.001000,0.001000,0.001000,0.001000
1028.903846,-0.045695,0.001000,0.001000,0.001000,0.001000,0.001000
1028.923077,-0.046165,0.001000,0.001000,0.001000,0.001000,0.001000
1028.942308,-0.046608,0.001000,0.001000,0.001000,0.001000,0.001000
1028.961538,-0.047025,0.001000,0.001000,0.001000,0.001000,0.001000
1028.980769,-0.047415,0.001000,0.001000,0.001000,0.001000,0.001000
1029.000000,-0.047779,0.001000,0.001000,0.001000,0.001000,0.001000
1029.019231,-0.048115,0.001000,0.001000,0.001000,0.001000,0.001000
1029.038462,-0.048425,0.001000,0.001000,0.001000,0.001000,0.001000
1029.057692,-0.048707,0.001000,0.001000,0.001000,0.001000,0.001000
1029.076923,-0.048962,0.001000,0.001000,0.001000,0.001000,0.001000
1029.096154,-0.049189,0.001000,0.001000,0.001000,0.001000,0.001000
1029.115385,-0.049388,0.001000,0.001000,0.001000,0.001000,0.001000
1029.134615,-0.049559,0.001000,0.001000,0.001000,0.001000,0.001000
1029.153846,-0.049703,0.001000,0.001000,0.001000,0.001000,0.001000
1029.173077,-0.049818,0.001000,0.001000,0.001000,0.001000,0.001000
1029.192308,-0.049905,0.001000,0.001000,0.001000,0.001000,0.001000
1029.211538,-0.049964,0.001000,0.001000,0.001000,0.001000,0.001000
1029.230769,-0.049995,0.001000,0.001000,0.001000,0.001000,0.001000
1029.250000,-0.049998,0.001000,0.001000,0.001000,0.001000,0.001000
1029.269231,-0.049972,0.001000,0.001000,0.001000,0.001000,0.001000
1029.288462,-0.049918,0.001000,0.001000,0.001000,0.001000,0.001000
1029.307692,-0.049836,0.001000,0.001000,0.001000,0.001000,0.001000
1029.326923,-0.049726,0.001000,0.001000,0.001000,0.001000,0.001000
1029.346154,-0.049588,0.001000,0.001000,0.001000,0.001000,0.001000
1029.365385,-0.049422,0.001000,0.001000,0.001000,0.001000,0.001000
1029.384615,-0.049228,0.001000,0.001000,0.001000,0.001000,0.001000
1029.403846,-0.049006,0.001000,0.001000,0.001000,0.001000,0.001000
1029.423077,-0.048756,0.001000,0.001000,0.001000,0.001000,0.001000
1029.442308,-0.048479,0.001000,0.001000,0.001000,0.001000,0.001000
1029.461538,-0.048175,0.001000,0.001000,0.001000,0.001000,0.001000
1029.480769,-0.047843,0.001000,0.001000,0.001000,0.001000,0.001000
1029.500000,-0.047485,0.001000,0.001000,0.001000,0.001000,0.001000
1029.519231,-0.047099,0.001000,0.001000,0.001000,0.001000,0.001000
1029.538462,-0.046687,0.001000,0.001000,0.001000,0.001000,0.001000
1029.557692,-0.046249,0.001000,0.001000,0.001000,0.001000,0.001000
1029.576923,-0.045784,0.001000,0.001000,0.001000,0.001000,0.001000
1029.596154,-0.045294,0.001000,0.001000,0.001000,0.001000,0.001000
1029.615385,-0.044778,0.001000,0.001000,0.001000,0.001000,0.001000
1029.634615,-0.044237,0.001000,0.001000,0.001000,0.001000,0.001000
1029.653846,-0.043671,0.001000,0.001000,0.001000,0.001000,0.001000
1029.673077,-0.043080,0.001000,0.001000,0.001000,0.001000,0.001000
1029.692308,-0.042465,0.001000,0.001000,0.001000,0.001000,0.001000
1029.711538,-0.041826,0.001000,0.001000,0.001000,0.001000,0.001000
1029.730769,-0.041163,0.001000,0.001000,0.001000,0.001000,0.001000
1029.750000,-0.040477,0.001000,0.001000,0.001000,0.001000,0.001000
1029.769231,-0.039768,0.001000,0.001000,0.001000,0.001000,0.001000
1029.788462,-0.039037,0.001000,0.001000,0.001000,0.001000,0.001000
1029.807692,-0.038284,0.001000,0.001000,0.001000,0.001000,0.001000
1029.826923,-0.037509,0.001000,0.001000,0.001000,0.001000,0.001000
1029.846154,-0.036713,0.001000,0.001000,0.001000,0.001000,0.001000
1029.865385,-0.035896,0.001000,0.001000,0.001000,0.001000,0.001000
1029.884615,-0.035059,0.001000,0.001000,0.001000,0.001000,0.001000
1029.903846,-0.034203,0.001000,0.001000,0.001000,0.001000,0.001000
1029.923077,-0.033326,0.001000,0.001000,0.001000,0.001000,0.001000
1029.942308,-0.032431,0.001000,0.001000,0.001000,0.001000,0.001000
1029.961538,-0.031518,0.001000,0.001000,0.001000,0.001000,0.001000
1029.980769,-0.030587,0.001000,0.001000,0.001000,0.001000,0.001000
1030.000000,0.000000,0.001000,0.001000,0.001000,0.001000,0.001000
1030.019231,0.001214,0.001000,0.001000,0.001000,0.001000,0.001000
1030.038462,0.002428,0.001000,0.001000,0.001000,0.001000,0.001000
1030.057692,0.003640,0.001000,0.001000,0.001000,0.001000,0.001000
1030.076923,0.004851,0.001000,0.001000,0.001000,0.001000,0.001000
1030.096154,0.006058,0.001000,0.001000,0.001000,0.001000,0.001000
1030.115385,0.007262,0.001000,0.001000,0.001000,0.001000,0.001000
1030.134615,0.008461,0.001000,0.001000,0.001000,0.001000,0.001000
1030.153846,0.009655,0.001000,0.001000,0.001000,0.001000,0.001000
1030.173077,0.010844,0.001000,0.001000,0.001000,0.001000,0.001000
1030.192308,0.012026,0.001000,0.001000,0.001000,0.001000,0.001000
1030.211538,0.013202,0.001000,0.001000,0.001000,0.001000,0.001000
1030.230769,0.014369,0.001000,0.001000,0.001000,0.001000,0.001000
1030.250000,0.015528,0.001000,0.001000,0.001000,0.001000,0.001000
1030.269231,0.016678,0.001000,0.001000,0.001000,0.001000,0.001000
1030.288462,0.017818,0.001000,0.001000,0.001000,0.001000,0.001000
1030.307692,0.018947,0.001000,0.001000,0.001000,0.001000,0.001000
1030.326923,0.020066,0.001000,0.001000,0.001000,0.001000,0.001000
1030.346154,0.021172,0.001000,0.001000,0.001000,0.001000,0.001000
1030.365385,0.022266,0.001000,0.001000,0.001000,0.001000,0.001000
1030.384615,0.023347,0.001000,0.001000,0.001000,0.001000,0.001000
1030.403846,0.024414,0.001000,0.001000,0.001000,0.001000,0.001000
1030.423077,0.025466,0.001000,0.001000,0.001000,0.001000,0.001000
1030.442308,0.026504,0.001000,0.001000,0.001000,0.001000,0.001000
1030.461538,0.027526,0.001000,0.001000,0.001000,0.001000,0.001000
1030.480769,0.028532,0.001000,0.001000,0.001000,0.001000,0.001000
1030.500000,0.029521,0.001000,0.001000,0.001000,0.001000,0.001000
1030.519231,0.030492,0.001000,0.001000,0.001000,0.001000,0.001000
1030.538462,0.031446,0.001000,0.001000,0.001000,0.001000,0.001000
1030.557692,0.032380,0.001000,0.001000,0.001000,0.001000,0.001000
1030.576923,0.033296,0.001000,0.001000,0.001000,0.001000,0.001000
1030.596154,0.034192,0.001000,0.001000,0.001000,0.001000,0.001000
1030.615385,0.035068,0.001000,0.001000,0.001000,0.001000,0.001000
1030.634615,0.035924,0.001000,0.001000,0.001000,0.001000,0.001000
1030.653846,0.036758,0.001000,0.001000,0.001000,0.001000,0.001000
1030.673077,0.037570,0.001000,0.001000,0.001000,0.001000,0.001000
1030.692308,0.038361,0.001000,0.001000,0.001000,0.001000,0.001000
1030.711538,0.039128,0.001000,0.001000,0.001000,0.001000,0.001000
1030.730769,0.039873,0.001000,0.001000,0.001000,0.001000,0.001000
1030.750000,0.040594,0.001000,0.001000,0.001000,0.001000,0.001000
1030.769231,0.041291,0.001000,0.001000,0.001000,0.001000,0.001000
1030.788462,0.041963,0.001000,0.001000,0.001000,0.001000,0.001000
1030.807692,0.042611,0.001000,0.001000,0.001000,0.001000,0.001000
1030.826923,0.043234,0.001000,0.001000,0.001000,0.001000,0.001000
1030.846154,0.043831,0.001000,0.001000,0.001000,0.001000,0.001000
1030.865385,0.044403,0.001000,0.001000,0.001000,0.001000,0.001000
1030.884615,0.044948,0.001000,0.001000,0.001000,0.001000,0.001000
1030.903846,0.045467,0.001000,0.001000,0.001000,0.001000,0.001000
1030.923077,0.045959,0.001000,0.001000,0.001000,0.001000,0.001000
1030.942308,0.046423,0.001000,0.001000,0.001000,0.001000,0.001000
1030.961538,0.046861,0.001000,0.001000,0.001000,0.001000,0.001000
1030.980769,0.047270,0.001000,0.001000,0.001000,0.001000,0.001000
1031.000000,0.047652,0.001000,0.001000,0.001000,0.001000,0.001000
1031.019231,0.048006,0.001000,0.001000,0.001000,0.001000,0.001000
1031.038462,0.048331,0.001000,0.001000,0.001000,0.001000,0.001000
1031.057692,0.048628,0.001000,0.001000,0.001000,0.001000,0.001000
1031.076923,0.048896,0.001000,0.001000,0.001000,0.001000,0.001000
1031.096154,0.049136,0.001000,0.001000,0.001000,0.001000,0.001000
1031.115385,0.049346,0.001000,0.001000,0.001000,0.001000,0.001000
1031.134615,0.049527,0.001000,0.001000,0.001000,0.001000,0.001000
1031.153846,0.049679,0.001000,0.001000,0.001000,0.001000,0.001000
1031.173077,0.049802,0.001000,0.001000,0.001000,0.001000,0.001000
1031.192308,0.049895,0.001000,0.001000,0.001000,0.001000,0.001000
1031.211538,0.049959,0.001000,0.001000,0.001000,0.001000,0.001000
1031.230769,0.049993,0.001000,0.001000,0.001000,0.001000,0.001000
1031.250000,0.049998,0.001000,0.001000,0.001000,0.001000,0.001000
1031.269231,0.049974,0.001000,0.001000,0.001000,0.001000,0.001000
1031.288462,0.049920,0.001000,0.001000,0.001000,0.001000,0.001000
1031.307692,0.049836,0.001000,0.001000,0.001000,0.001000,0.001000
1031.326923,0.049723,0.001000,0.001000,0.001000,0.001000,0.001000
1031.346154,0.049581,0.001000,0.001000,0.001000,0.001000,0.001000
1031.365385,0.049409,0.001000,0.001000,0.001000,0.001000,0.001000
1031.384615,0.049209,0.001000,0.001000,0.001000,0.001000,0.001000
1031.403846,0.048979,0.001000,0.001000,0.001000,0.001000,0.001000
1031.423077,0.048720,0.001000,0.001000,0.001000,0.001000,0.001000
1031.442308,0.048433,0.001000,0.001000,0.001000,0.001000,0.001000
1031.461538,0.048117,0.001000,0.001000,0.001000,0.001000,0.001000
1031.480769,0.047772,0.001000,0.001000,0.001000,0.001000,0.001000
1031.500000,0.047400,0.001000,0.001000,0.001000,0.001000,0.001000
1031.519231,0.046999,0.001000,0.001000,0.001000,0.001000,0.001000
1031.538462,0.046571,0.001000,0.001000,0.001000,0.001000,0.001000
1031.557692,0.046115,0.001000,0.001000,0.001000,0.001000,0.001000
1031.576923,0.045632,0.001000,0.001000,0.001000,0.001000,0.001000
1031.596154,0.045123,0.001000,0.001000,0.001000,0.001000,0.001000
1031.615385,0.044586,0.001000,0.001000,0.001000,0.001000,0.001000
1031.634615,0.044023,0.001000,0.001000,0.001000,0.001000,0.001000
1031.653846,0.043435,0.001000,0.001000,0.001000,0.001000,0.001000
1031.673077,0.042820,0.001000,0.001000,0.001000,0.001000,0.001000
1031.692308,0.042181,0.001000,0.001000,0.001000,0.001000,0.001000
1031.711538,0.041516,0.001000,0.001000,0.001000,0.001000,0.001000
1031.730769,0.040827,0.001000,0.001000,0.001000,0.001000,0.001000
1031.750000,0.040114,0.001000,0.001000,0.001000,0.001000,0.001000
1031.769231,0.039377,0.001000,0.001000,0.001000,0.001000,0.001000
1031.788462,0.038617,0.001000,0.001000,0.001000,0.001000,0.001000
1031.807692,0.037834,0.001000,0.001000,0.001000,0.001000,0.001000
1031.826923,0.037029,0.001000,0.001000,0.001000,0.001000,0.001000
1031.846154,0.036202,0.001000,0.001000,0.001000,0.001000,0.001000
1031.865385,0.035354,0.001000,0.001000,0.001000,0.001000,0.001000
1031.884615,0.034485,0.001000,0.001000,0.001000,0.001000,0.001000
1031.903846,0.033595,0.001000,0.001000,0.001000,0.001000,0.001000
1031.923077,0.032686,0.001000,0.001000,0.001000,0.001000,0.001000
1031.942308,0.031757,0.001000,0.001000,0.001000,0.001000,0.001000
1031.961538,0.030810,0.001000,0.001000,0.001000,0.001000,0.001000
1031.980769,0.029844,0.001000,0.001000,0.001000,0.001000,0.001000
1032.000000,0.028861,0.001000,0.001000,0.001000,0.001000,0.001000
1032.019231,0.027861,0.001000,0.001000,0.001000,0.001000,0.001000
1032.038462,0.026844,0.001000,0.001000,0.001000,0.001000,0.001000
1032.057692,0.025811,0.001000,0.001000,0.001000,0.001000,0.001000
1032.076923,0.024764,0.001000,0.001000,0.001000,0.001000,0.001000
1032.096154,0.023701,0.001000,0.001000,0.001000,0.001000,0.001000
1032.115385,0.022625,0.001000,0.001000,0.001000,0.001000,0.001000
1032.134615,0.021535,0.001000,0.001000,0.001000,0.001000,0.001000
1032.153846,0.020433,0.001000,0.001000,0.001000,0.001000,0.001000
1032.173077,0.019319,0.001000,0.001000,0.001000,0.001000,0.001000
1032.192308,0.018193,0.001000,0.001000,0.001000,0.001000,0.001000
1032.211538,0.017056,0.001000,0.001000,0.001000,0.001000,0.001000
1032.230769,0.015910,0.001000,0.001000,0.001000,0.001000,0.001000
1032.250000,0.014754,0.001000,0.001000,0.001000,0.001000,0.001000
1032.269231,0.013589,0.001000,0.001000,0.001000,0.001000,0.001000
1032.288462,0.012416,0.001000,0.001000,0.001000,0.001000,0.001000
1032.307692,0.011236,0.001000,0.001000,0.001000,0.001000,0.001000
1032.326923,0.010049,0.001000,0.001000,0.001000,0.001000,0.001000
1032.346154,0.008857,0.001000,0.001000,0.001000,0.001000,0.001000
1032.365385,0.007659,0.001000,0.001000,0.001000,0.001000,0.001000
1032.384615,0.006457,0.001000,0.001000,0.001000,0.001000,0.001000
1032.403846,0.005250,0.001000,0.001000,0.001000,0.001000,0.001000
1032.423077,0.004041,0.001000,0.001000,0.001000,0.001000,0.001000
1032.442308,0.002829,0.001000,0.001000,0.001000,0.001000,0.001000
1032.461538,0.001616,0.001000,0.001000,0.001000,0.001000,0.001000
1032.480769,0.000402,0.001000,0.001000,0.001000,0.001000,0.001000
1032.500000,-0.000813,0.001000,0.001000,0.001000,0.001000,0.001000
1032.519231,-0.002027,0.001000,0.001000,0.001000,0.001000,0.001000
1032.538462,-0.003240,0.001000,0.001000,0.001000,0.001000,0.001000
1032.557692,-0.004450,0.001000,0.001000,0.001000,0.001000,0.001000
1032.576923,-0.005659,0.001000,0.001000,0.001000,0.001000,0.001000
1032.596154,-0.006864,0.001000,0.001000,0.001000,0.001000,0.001000
1032.615385,-0.008065,0.001000,0.001000,0.001000,0.001000,0.001000
1032.634615,-0.009261,0.001000,0.001000,0.001000,0.001000,0.001000
1032.653846,-0.010452,0.001000,0.001000,0.001000,0.001000,0.001000
1032.673077,-0.011636,0.001000,0.001000,0.001000,0.001000,0.001000
1032.692308,-0.012814,0.001000,0.001000,0.001000,0.001000,0.001000
1032.711538,-0.013984,0.001000,0.001000,0.001000,0.001000,0.001000
1032.730769,-0.015146,0.001000,0.001000,0.001000,0.001000,0.001000
1032.750000,-0.016299,0.001000,0.001000,0.001000,0.001000,0.001000
1032.769231,-0.017442,0.001000,0.001000,0.001000,0.001000,0.001000
1032.788462,-0.018575,0.001000,0.001000,0.001000,0.001000,0.001000
1032.807692,-0.019697,0.001000,0.001000,0.001000,0.001000,0.001000
1032.826923,-0.020807,0.001000,0.001000,0.001000,0.001000,0.001000
1032.846154,-0.021905,0.001000,0.001000,0.001000,0.001000,0.001000
1032.865385,-0.022991,0.001000,0.001000,0.001000,0.001000,0.001000
1032.884615,-0.024062,0.001000,0.001000,0.001000,0.001000,0.001000
1032.903846,-0.025120,0.001000,0.001000,0.001000,0.001000,0.001000
1032.923077,-0.026162,0.001000,0.001000,0.001000,0.001000,0.001000
1032.942308,-0.027190,0.001000,0.001000,0.001000,0.001000,0.001000
1032.961538,-0.028201,0.001000,0.001000,0.001000,0.001000,0.001000
1032.980769,-0.029195,0.001000,0.001000,0.001000,0.001000,0.001000
1033.000000,-0.030173,0.001000,0.001000,0.001000,0.001000,0.001000
1033.019231,-0.031132,0.001000,0.001000,0.001000,0.001000,0.001000
1033.038462,-0.032073,0.001000,0.001000,0.001000,0.001000,0.001000
1033.057692,-0.032995,0.001000,0.001000,0.001000,0.001000,0.001000
1033.076923,-0.033898,0.001000,0.001000,0.001000,0.001000,0.001000
1033.096154,-0.034781,0.001000,0.001000,0.001000,0.001000,0.001000
1033.115385,-0.035643,0.001000,0.001000,0.001000,0.001000,0.001000
1033.134615,-0.036484,0.001000,0.001000,0.001000,0.001000,0.001000
1033.153846,-0.037304,0.001000,0.001000,0.001000,0.001000,0.001000
1033.173077,-0.038102,0.001000,0.001000,0.001000,0.001000,0.001000
1033.192308,-0.038877,0.001000,0.001000,0.001000,0.001000,0.001000
1033.211538,-0.039629,0.001000,0.001000,0.001000,0.001000,0.001000
1033.230769,-0.040358,0.001000,0.001000,0.001000,0.001000,0.001000
1033.250000,-0.041063,0.001000,0.001000,0.001000,0.001000,0.001000
1033.269231,-0.041744,0.001000,0.001000,0.001000,0.001000,0.001000
1033.288462,-0.042400,0.001000,0.001000,0.001000,0.001000,0.001000
1033.307692,-0.043031,0.001000,0.001000,0.001000,0.001000,0.001000
1033.326923,-0.043637,0.001000,0.001000,0.001000,0.001000,0.001000
1033.346154,-0.044217,0.001000,0.001000,0.001000,0.001000,0.001000
1033.365385,-0.044771,0.001000,0.001000,0.001000,0.001000,0.001000
1033.384615,-0.045298,0.001000,0.001000,0.001000,0.001000,0.001000
1033.403846,-0.045799,0.001000,0.001000,0.001000,0.001000,0.001000
1033.423077,-0.046273,0.001000,0.001000,0.001000,0.001000,0.001000
1033.442308,-0.046719,0.001000,0.001000,0.001000,0.001000,0.001000
1033.461538,-0.047138,0.001000,0.001000,0.001000,0.001000,0.001000
1033.480769,-0.047529,0.001000,0.001000,0.001000,0.001000,0.001000
1033.500000,-0.047892,0.001000,0.001000,0.001000,0.001000,0.001000
1033.519231,-0.048227,0.001000,0.001000,0.001000,0.001000,0.001000
1033.538462,-0.048533,0.001000,0.001000,0.001000,0.001000,0.001000
1033.557692,-0.048811,0.001000,0.001000,0.001000,0.001000,0.001000
1033.576923,-0.049060,0.001000,0.001000,0.001000,0.001000,0.001000
1033.596154,-0.049280,0.001000,0.001000,0.001000,0.001000,0.001000
1033.615385,-0.049471,0.001000,0.001000,0.001000,0.001000,0.001000
1033.634615,-0.049632,0.001000,0.001000,0.001000,0.001000,0.001000
1033.653846,-0.049765,0.001000,0.001000,0.001000,0.001000,0.001000
1033.673077,-0.049868,0.001000,0.001000,0.001000,0.001000,0.001000
1033.692308,-0.049941,0.001000,0.001000,0.001000,0.001000,0.001000
1033.711538,-0.049985,0.001000,0.001000,0.001000,0.001000,0.001000
1033.730769,-0.050000,0.001000,0.001000,0.001000,0.001000,0.001000
1033.750000,-0.049985,0.001000,0.001000,0.001000,0.001000,0.001000
1033.769231,-0.049941,0.001000,0.001000,0.001000,0.001000,0.001000
1033.788462,-0.049867,0.001000,0.001000,0.001000,0.001000,0.001000
1033.807692,-0.049764,0.001000,0.001000,0.001000,0.001000,0.001000
1033.826923,-0.049631,0.001000,0.001000,0.001000,0.001000,0.001000
1033.846154,-0.049469,0.001000,0.001000,0.001000,0.001000,0.001000
1033.865385,-0.049278,0.001000,0.001000,0.001000,0.001000,0.001000
1033.884615,-0.049058,0.001000,0.001000,0.001000,0.001000,0.001000
1033.903846,-0.048809,0.001000,0.001000,0.001000,0.001000,0.001000
1033.923077,-0.048531,0.001000,0.001000,0.001000,0.001000,0.001000
1033.942308,-0.048224,0.001000,0.001000,0.001000,0.001000,0.001000
1033.961538,-0.047889,0.001000,0.001000,0.001000,0.001000,0.001000
1033.980769,-0.047526,0.001000,0.001000,0.001000,0.001000,0.001000
1034.000000,-0.047135,0.001000,0.001000,0.001000,0.001000,0.001000
1034.019231,-0.046716,0.001000,0.001000,0.001000,0.001000,0.001000
1034.038462,-0.046269,0.001000,0.001000,0.001000,0.001000,0.001000
1034.057692,-0.045795,0.001000,0.001000,0.001000,0.001000,0.001000
1034.076923,-0.045294,0.001000,0.001000,0.001000,0.001000,0.001000
1034.096154,-0.044767,0.001000,0.001000,0.001000,0.001000,0.001000
1034.115385,-0.044212,0.001000,0.001000,0.001000,0.001000,0.001000
1034.134615,-0.043632,0.001000,0.001000,0.001000,0.001000,0.001000
1034.153846,-0.043026,0.001000,0.001000,0.001000,0.001000,0.001000
1034.173077,-0.042395,0.001000,0.001000,0.001000,0.001000,0.001000
1034.192308,-0.041739,0.001000,0.001000,0.001000,0.001000,0.001000
1034.211538,-0.041058,0.001000,0.001000,0.001000,0.001000,0.001000
1034.230769,-0.040352,0.001000,0.001000,0.001000,0.001000,0.001000
1034.250000,-0.039623,0.001000,0.001000,0.001000,0.001000,0.001000
1034.269231,-0.038871,0.001000,0.001000,0.001000,0.001000,0.001000
1034.288462,-0.038096,0.001000,0.001000,0.001000,0.001000,0.001000
1034.307692,-0.037298,0.001000,0.001000,0.001000,0.001000,0.001000
1034.326923,-0.036478,0.001000,0.001000,0.001000,0.001000,0.001000
1034.346154,-0.035637,0.001000,0.001000,0.001000,0.001000,0.001000
1034.365385,-0.034774,0.001000,0.001000,0.001000,0.001000,0.001000
1034.384615,-0.033892,0.001000,0.001000,0.001000,0.001000,0.001000
1034.403846,-0.032989,0.001000,0.001000,0.001000,0.001000,0.001000
1034.423077,-0.032066,0.001000,0.001000,0.001000,0.001000,0.001000
1034.442308,-0.031125,0.001000,0.001000,0.001000,0.001000,0.001000
1034.461538,-0.030165,0.001000,0.001000,0.001000,0.001000,0.001000
1034.480769,-0.029188,0.001000,0.001000,0.001000,0.001000,0.001000
1034.500000,-0.028193,0.001000,0.001000,0.001000,0.001000,0.001000
1034.519231,-0.027182,0.001000,0.001000,0.001000,0.001000,0.001000
1034.538462,-0.026155,0.001000,0.001000,0.001000,0.001000,0.001000
1034.557692,-0.025112,0.001000,0.001000,0.001000,0.001000,0.001000
1034.576923,-0.024054,0.001000,0.001000,0.001000,0.001000,0.001000
1034.596154,-0.022983,0.001000,0.001000,0.001000,0.001000,0.001000
1034.615385,-0.021897,0.001000,0.001000,0.001000,0.001000,0.001000
1034.634615,-0.020799,0.001000,0.001000,0.001000,0.001000,0.001000
1034.653846,-0.019689,0.001000,0.001000,0.001000,0.001000,0.001000
1034.673077,-0.018566,0.001000,0.001000,0.001000,0.001000,0.001000
