timestamp,ax,ay,az,gx,gy,gz
1000.000000,0.000000,0.001000,0.001000,0.001000,0.001000,0.001000
1000.019231,0.001255,0.001000,0.001000,0.001000,0.001000,0.001000
1000.038462,0.002509,0.001000,0.001000,0.001000,0.001000,0.001000
1000.057692,0.003761,0.001000,0.001000,0.001000,0.001000,0.001000
1000.076923,0.005012,0.001000,0.001000,0.001000,0.001000,0.001000
1000.096154,0.006259,0.001000,0.001000,0.001000,0.001000,0.001000
1000.115385,0.007502,0.001000,0.001000,0.001000,0.001000,0.001000
1000.134615,0.008740,0.001000,0.001000,0.001000,0.001000,0.001000
1000.153846,0.009973,0.001000,0.001000,0.001000,0.001000,0.001000
1000.173077,0.011199,0.001000,0.001000,0.001000,0.001000,0.001000
1000.192308,0.012419,0.001000,0.001000,0.001000,0.001000,0.001000
1000.211538,0.013630,0.001000,0.001000,0.001000,0.001000,0.001000
1000.230769,0.014833,0.001000,0.001000,0.001000,0.001000,0.001000
1000.250000,0.016027,0.001000,0.001000,0.001000,0.001000,0.001000
1000.269231,0.017211,0.001000,0.001000,0.001000,0.001000,0.001000
1000.288462,0.018383,0.001000,0.001000,0.001000,0.001000,0.001000
1000.307692,0.019545,0.001000,0.001000,0.001000,0.001000,0.001000
1000.326923,0.020693,0.001000,0.001000,0.001000,0.001000,0.001000
1000.346154,0.021829,0.001000,0.001000,0.001000,0.001000,0.001000
1000.365385,0.022951,0.001000,0.001000,0.001000,0.001000,0.001000
1000.384615,0.024059,0.001000,0.001000,0.001000,0.001000,0.001000
1000.403846,0.025151,0.001000,0.001000,0.001000,0.001000,0.001000
1000.423077,0.026228,0.001000,0.001000,0.001000,0.001000,0.001000
1000.442308,0.027288,0.001000,0.001000,0.001000,0.001000,0.001000
1000.461538,0.028331,0.001000,0.001000,0.001000,0.001000,0.001000
1000.480769,0.029356,0.001000,0.001000,0.001000,0.001000,0.001000
1000.500000,0.030363,0.001000,0.001000,0.001000,0.001000,0.001000
1000.519231,0.031350,0.001000,0.001000,0.001000,0.001000,0.001000
1000.538462,0.032318,0.001000,0.001000,0.001000,0.001000,0.001000
1000.557692,0.033265,0.001000,0.001000,0.001000,0.001000,0.001000
1000.576923,0.034192,0.001000,0.001000,0.001000,0.001000,0.001000
1000.596154,0.035096,0.001000,0.001000,0.001000,0.001000,0.001000
1000.615385,0.035979,0.001000,0.001000,0.001000,0.001000,0.001000
1000.634615,0.036839,0.001000,0.001000,0.001000,0.001000,0.001000
1000.653846,0.037676,0.001000,0.001000,0.001000,0.001000,0.001000
1000.673077,0.038489,0.001000,0.001000,0.001000,0.001000,0.001000
1000.692308,0.039278,0.001000,0.001000,0.001000,0.001000,0.001000
1000.711538,0.040042,0.001000,0.001000,0.001000,0.001000,0.001000
1000.730769,0.040781,0.001000,0.001000,0.001000,0.001000,0.001000
1000.750000,0.041494,0.001000,0.001000,0.001000,0.001000,0.001000
1000.769231,0.042181,0.001000,0.001000,0.001000,0.001000,0.001000
1000.788462,0.042842,0.001000,0.001000,0.001000,0.001000,0.001000
1000.807692,0.043475,0.001000,0.001000,0.001000,0.001000,0.001000
1000.826923,0.044081,0.001000,0.001000,0.001000,0.001000,0.001000
1000.846154,0.044660,0.001000,0.001000,0.001000,0.001000,0.001000
1000.865385,0.045210,0.001000,0.001000,0.001000,0.001000,0.001000
1000.884615,0.045732,0.001000,0.001000,0.001000,0.001000,0.001000
1000.903846,0.046225,0.001000,0.001000,0.001000,0.001000,0.001000
1000.923077,0.046688,0.001000,0.001000,0.001000,0.001000,0.001000
1000.942308,0.047123,0.001000,0.001000,0.001000,0.001000,0.001000
1000.961538,0.047527,0.001000,0.001000,0.001000,0.001000,0.001000
1000.980769,0.047902,0.001000,0.001000,0.001000,0.001000,0.001000
1001.000000,0.048247,0.001000,0.001000,0.001000,0.001000,0.001000
1001.019231,0.048561,0.001000,0.001000,0.001000,0.001000,0.001000
1001.038462,0.048845,0.001000,0.001000,0.001000,0.001000,0.001000
1001.057692,0.049097,0.001000,0.001000,0.001000,0.001000,0.001000
1001.076923,0.049319,0.001000,0.001000,0.001000,0.001000,0.001000
1001.096154,0.049510,0.001000,0.001000,0.001000,0.001000,0.001000
1001.115385,0.049670,0.001000,0.001000,0.001000,0.001000,0.001000
1001.134615,0.049798,0.001000,0.001000,0.001000,0.001000,0.001000
1001.153846,0.049895,0.001000,0.001000,0.001000,0.001000,0.001000
1001.173077,0.049961,0.001000,0.001000,0.001000,0.001000,0.001000
1001.192308,0.049995,0.001000,0.001000,0.001000,0.001000,0.001000
1001.211538,0.049997,0.001000,0.001000,0.001000,0.001000,0.001000
1001.230769,0.049968,0.001000,0.001000,0.001000,0.001000,0.001000
1001.250000,0.049908,0.001000,0.001000,0.001000,0.001000,0.001000
1001.269231,0.049816,0.001000,0.001000,0.001000,0.001000,0.001000
1001.288462,0.049693,0.001000,0.001000,0.001000,0.001000,0.001000
1001.307692,0.049538,0.001000,0.001000,0.001000,0.001000,0.001000
1001.326923,0.049353,0.001000,0.001000,0.001000,0.001000,0.001000
1001.346154,0.049136,0.001000,0.001000,0.001000,0.001000,0.001000
1001.365385,0.048888,0.001000,0.001000,0.001000,0.001000,0.001000
1001.384615,0.048609,0.001000,0.001000,0.001000,0.001000,0.001000
1001.403846,0.048300,0.001000,0.001000,0.001000,0.001000,0.001000
1001.423077,0.047960,0.001000,0.001000,0.001000,0.001000,0.001000
1001.442308,0.047591,0.001000,0.001000,0.001000,0.001000,0.001000
1001.461538,0.047191,0.001000,0.001000,0.001000,0.001000,0.001000
1001.480769,0.046761,0.001000,0.001000,0.001000,0.001000,0.001000
1001.500000,0.046302,0.001000,0.001000,0.001000,0.001000,0.001000
1001.519231,0.045814,0.001000,0.001000,0.001000,0.001000,0.001000
1001.538462,0.045297,0.001000,0.001000,0.001000,0.001000,0.001000
1001.557692,0.044751,0.001000,0.001000,0.001000,0.001000,0.001000
1001.576923,0.044178,0.001000,0.001000,0.001000,0.001000,0.001000
1001.596154,0.043576,0.001000,0.001000,0.001000,0.001000,0.001000
1001.615385,0.042947,0.001000,0.001000,0.001000,0.001000,0.001000
1001.634615,0.042291,0.001000,0.001000,0.001000,0.001000,0.001000
1001.653846,0.041608,0.001000,0.001000,0.001000,0.001000,0.001000
1001.673077,0.040899,0.001000,0.001000,0.001000,0.001000,0.001000
1001.692308,0.040164,0.001000,0.001000,0.001000,0.001000,0.001000
1001.711538,0.039404,0.001000,0.001000,0.001000,0.001000,0.001000
1001.730769,0.038619,0.001000,0.001000,0.001000,0.001000,0.001000
1001.750000,0.037810,0.001000,0.001000,0.001000,0.001000,0.001000
1001.769231,0.036977,0.001000,0.001000,0.001000,0.001000,0.001000
1001.788462,0.036121,0.001000,0.001000,0.001000,0.001000,0.001000
1001.807692,0.035242,0.001000,0.001000,0.001000,0.001000,0.001000
1001.826923,0.034340,0.001000,0.001000,0.001000,0.001000,0.001000
1001.846154,0.033418,0.001000,0.001000,0.001000,0.001000,0.001000
1001.865385,0.032474,0.001000,0.001000,0.001000,0.001000,0.001000
1001.884615,0.031509,0.001000,0.001000,0.001000,0.001000,0.001000
1001.903846,0.030525,0.001000,0.001000,0.001000,0.001000,0.001000
1001.923077,0.029521,0.001000,0.001000,0.001000,0.001000,0.001000
1001.942308,0.028499,0.001000,0.001000,0.001000,0.001000,0.001000
1001.961538,0.027459,0.001000,0.001000,0.001000,0.001000,0.001000
1001.980769,0.026402,0.001000,0.001000,0.001000,0.001000,0.001000
1002.000000,0.025328,0.001000,0.001000,0.001000,0.001000,0.001000
1002.019231,0.024238,0.001000,0.001000,0.001000,0.001000,0.001000
1002.038462,0.023133,0.001000,0.001000,0.001000,0.001000,0.001000
1002.057692,0.022013,0.001000,0.001000,0.001000,0.001000,0.001000
1002.076923,0.020879,0.001000,0.001000,0.001000,0.001000,0.001000
1002.096154,0.019733,0.001000,0.001000,0.001000,0.001000,0.001000
1002.115385,0.018573,0.001000,0.001000,0.001000,0.001000,0.001000
1002.134615,0.017402,0.001000,0.001000,0.001000,0.001000,0.001000
1002.153846,0.016221,0.001000,0.001000,0.001000,0.001000,0.001000
1002.173077,0.015028,0.001000,0.001000,0.001000,0.001000,0.001000
1002.192308,0.013827,0.001000,0.001000,0.001000,0.001000,0.001000
1002.211538,0.012617,0.001000,0.001000,0.001000,0.001000,0.001000
1002.230769,0.011398,0.001000,0.001000,0.001000,0.001000,0.001000
1002.250000,0.010173,0.001000,0.001000,0.001000,0.001000,0.001000
1002.269231,0.008941,0.001000,0.001000,0.001000,0.001000,0.001000
1002.288462,0.007704,0.001000,0.001000,0.001000,0.001000,0.001000
1002.307692,0.006461,0.001000,0.001000,0.001000,0.001000,0.001000
1002.326923,0.005215,0.001000,0.001000,0.001000,0.001000,0.001000
1002.346154,0.003965,0.001000,0.001000,0.001000,0.001000,0.001000
1002.365385,0.002713,0.001000,0.001000,0.001000,0.001000,0.001000
1002.384615,0.001459,0.001000,0.001000,0.001000,0.001000,0.001000
1002.403846,0.000204,0.001000,0.001000,0.001000,0.001000,0.001000
1002.423077,-0.001050,0.001000,0.001000,0.001000,0.001000,0.001000
1002.442308,-0.002305,0.001000,0.001000,0.001000,0.001000,0.001000
1002.461538,-0.003558,0.001000,0.001000,0.001000,0.001000,0.001000
1002.480769,-0.004808,0.001000,0.001000,0.001000,0.001000,0.001000
1002.500000,-0.006056,0.001000,0.001000,0.001000,0.001000,0.001000
1002.519231,-0.007299,0.001000,0.001000,0.001000,0.001000,0.001000
1002.538462,-0.008538,0.001000,0.001000,0.001000,0.001000,0.001000
1002.557692,-0.009772,0.001000,0.001000,0.001000,0.001000,0.001000
1002.576923,-0.011000,0.001000,0.001000,0.001000,0.001000,0.001000
1002.596154,-0.012220,0.001000,0.001000,0.001000,0.001000,0.001000
1002.615385,-0.013433,0.001000,0.001000,0.001000,0.001000,0.001000
1002.634615,-0.014638,0.001000,0.001000,0.001000,0.001000,0.001000
1002.653846,-0.015833,0.001000,0.001000,0.001000,0.001000,0.001000
1002.673077,-0.017019,0.001000,0.001000,0.001000,0.001000,0.001000
1002.692308,-0.018193,0.001000,0.001000,0.001000,0.001000,0.001000
1002.711538,-0.019356,0.001000,0.001000,0.001000,0.001000,0.001000
1002.730769,-0.020507,0.001000,0.001000,0.001000,0.001000,0.001000
1002.750000,-0.021645,0.001000,0.001000,0.001000,0.001000,0.001000
1002.769231,-0.022770,0.001000,0.001000,0.001000,0.001000,0.001000
1002.788462,-0.023880,0.001000,0.001000,0.001000,0.001000,0.001000
1002.807692,-0.024975,0.001000,0.001000,0.001000,0.001000,0.001000
1002.826923,-0.026054,0.001000,0.001000,0.001000,0.001000,0.001000
1002.846154,-0.027117,0.001000,0.001000,0.001000,0.001000,0.001000
1002.865385,-0.028162,0.001000,0.001000,0.001000,0.001000,0.001000
1002.884615,-0.029190,0.001000,0.001000,0.001000,0.001000,0.001000
1002.903846,-0.030200,0.001000,0.001000,0.001000,0.001000,0.001000
1002.923077,-0.031191,0.001000,0.001000,0.001000,0.001000,0.001000
1002.942308,-0.032162,0.001000,0.001000,0.001000,0.001000,0.001000
1002.961538,-0.033112,0.001000,0.001000,0.001000,0.001000,0.001000
1002.980769,-0.034042,0.001000,0.001000,0.001000,0.001000,0.001000
1003.000000,-0.034950,0.001000,0.001000,0.001000,0.001000,0.001000
1003.019231,-0.035837,0.001000,0.001000,0.001000,0.001000,0.001000
1003.038462,-0.036701,0.001000,0.001000,0.001000,0.001000,0.001000
1003.057692,-0.037541,0.001000,0.001000,0.001000,0.001000,0.001000
1003.076923,-0.038358,0.001000,0.001000,0.001000,0.001000,0.001000
1003.096154,-0.039151,0.001000,0.001000,0.001000,0.001000,0.001000
1003.115385,-0.039919,0.001000,0.001000,0.001000,0.001000,0.001000
1003.134615,-0.040662,0.001000,0.001000,0.001000,0.001000,0.001000
1003.153846,-0.041380,0.001000,0.001000,0.001000,0.001000,0.001000
1003.173077,-0.042071,0.001000,0.001000,0.001000,0.001000,0.001000
1003.192308,-0.042736,0.001000,0.001000,0.001000,0.001000,0.001000
1003.211538,-0.043374,0.001000,0.001000,0.001000,0.001000,0.001000
1003.230769,-0.043985,0.001000,0.001000,0.001000,0.001000,0.001000
1003.250000,-0.044567,0.001000,0.001000,0.001000,0.001000,0.001000
1003.269231,-0.045122,0.001000,0.001000,0.001000,0.001000,0.001000
1003.288462,-0.045649,0.001000,0.001000,0.001000,0.001000,0.001000
1003.307692,-0.046146,0.001000,0.001000,0.001000,0.001000,0.001000
1003.326923,-0.046615,0.001000,0.001000,0.001000,0.001000,0.001000
1003.346154,-0.047054,0.001000,0.001000,0.001000,0.001000,0.001000
1003.365385,-0.047464,0.001000,0.001000,0.001000,0.001000,0.001000
1003.384615,-0.047843,0.001000,0.001000,0.001000,0.001000,0.001000
1003.403846,-0.048193,0.001000,0.001000,0.001000,0.001000,0.001000
1003.423077,-0.048512,0.001000,0.001000,0.001000,0.001000,0.001000
1003.442308,-0.048800,0.001000,0.001000,0.001000,0.001000,0.001000
1003.461538,-0.049058,0.001000,0.001000,0.001000,0.001000,0.001000
1003.480769,-0.049285,0.001000,0.001000,0.001000,0.001000,0.001000
1003.500000,-0.049481,0.001000,0.001000,0.001000,0.001000,0.001000
1003.519231,-0.049646,0.001000,0.001000,0.001000,0.001000,0.001000
1003.538462,-0.049779,0.001000,0.001000,0.001000,0.001000,0.001000
1003.557692,-0.049881,0.001000,0.001000,0.001000,0.001000,0.001000
1003.576923,-0.049952,0.001000,0.001000,0.001000,0.001000,0.001000
1003.596154,-0.049991,0.001000,0.001000,0.001000,0.001000,0.001000
1003.615385,-0.049999,0.001000,0.001000,0.001000,0.001000,0.001000
1003.634615,-0.049975,0.001000,0.001000,0.001000,0.001000,0.001000
1003.653846,-0.049920,0.001000,0.001000,0.001000,0.001000,0.001000
1003.673077,-0.049833,0.001000,0.001000,0.001000,0.001000,0.001000
1003.692308,-0.049715,0.001000,0.001000,0.001000,0.001000,0.001000
1003.711538,-0.049566,0.001000,0.001000,0.001000,0.001000,0.001000
1003.730769,-0.049385,0.001000,0.001000,0.001000,0.001000,0.001000
1003.750000,-0.049173,0.001000,0.001000,0.001000,0.001000,0.001000
1003.769231,-0.048930,0.001000,0.001000,0.001000,0.001000,0.001000
1003.788462,-0.048657,0.001000,0.001000,0.001000,0.001000,0.001000
1003.807692,-0.048353,0.001000,0.001000,0.001000,0.001000,0.001000
1003.826923,-0.048018,0.001000,0.001000,0.001000,0.001000,0.001000
1003.846154,-0.047653,0.001000,0.001000,0.001000,0.001000,0.001000
1003.865385,-0.047258,0.001000,0.001000,0.001000,0.001000,0.001000
1003.884615,-0.046833,0.001000,0.001000,0.001000,0.001000,0.001000
1003.903846,-0.046379,0.001000,0.001000,0.001000,0.001000,0.001000
1003.923077,-0.045895,0.001000,0.001000,0.001000,0.001000,0.001000
1003.942308,-0.045383,0.001000,0.001000,0.001000,0.001000,0.001000
1003.961538,-0.044842,0.001000,0.001000,0.001000,0.001000,0.001000
1003.980769,-0.044273,0.001000,0.001000,0.001000,0.001000,0.001000
1004.000000,-0.043676,0.001000,0.001000,0.001000,0.001000,0.001000
1004.019231,-0.043051,0.001000,0.001000,0.001000,0.001000,0.001000
1004.038462,-0.042399,0.001000,0.001000,0.001000,0.001000,0.001000
1004.057692,-0.041721,0.001000,0.001000,0.001000,0.001000,0.001000
1004.076923,-0.041016,0.001000,0.001000,0.001000,0.001000,0.001000
1004.096154,-0.040286,0.001000,0.001000,0.001000,0.001000,0.001000
1004.115385,-0.039530,0.001000,0.001000,0.001000,0.001000,0.001000
1004.134615,-0.038749,0.001000,0.001000,0.001000,0.001000,0.001000
1004.153846,-0.037944,0.001000,0.001000,0.001000,0.001000,0.001000
1004.173077,-0.037114,0.001000,0.001000,0.001000,0.001000,0.001000
1004.192308,-0.036262,0.001000,0.001000,0.001000,0.001000,0.001000
1004.211538,-0.035386,0.001000,0.001000,0.001000,0.001000,0.001000
1004.230769,-0.034489,0.001000,0.001000,0.001000,0.001000,0.001000
1004.250000,-0.033569,0.001000,0.001000,0.001000,0.001000,0.001000
1004.269231,-0.032629,0.001000,0.001000,0.001000,0.001000,0.001000
1004.288462,-0.031668,0.001000,0.001000,0.001000,0.001000,0.001000
1004.307692,-0.030687,0.001000,0.001000,0.001000,0.001000,0.001000
1004.326923,-0.029686,0.001000,0.001000,0.001000,0.001000,0.001000
1004.346154,-0.028667,0.001000,0.001000,0.001000,0.001000,0.001000
1004.365385,-0.027630,0.001000,0.001000,0.001000,0.001000,0.001000
1004.384615,-0.026575,0.001000,0.001000,0.001000,0.001000,0.001000
1004.403846,-0.025504,0.001000,0.001000,0.001000,0.001000,0.001000
1004.423077,-0.024417,0.001000,0.001000,0.001000,0.001000,0.001000
1004.442308,-0.023314,0.001000,0.001000,0.001000,0.001000,0.001000
1004.461538,-0.022196,0.001000,0.001000,0.001000,0.001000,0.001000
1004.480769,-0.021065,0.001000,0.001000,0.001000,0.001000,0.001000
1004.500000,-0.019920,0.001000,0.001000,0.001000,0.001000,0.001000
1004.519231,-0.018763,0.001000,0.001000,0.001000,0.001000,0.001000
1004.538462,-0.017594,0.001000,0.001000,0.001000,0.001000,0.001000
1004.557692,-0.016414,0.001000,0.001000,0.001000,0.001000,0.001000
1004.576923,-0.015223,0.001000,0.001000,0.001000,0.001000,0.001000
1004.596154,-0.014023,0.001000,0.001000,0.001000,0.001000,0.001000
1004.615385,-0.012814,0.001000,0.001000,0.001000,0.001000,0.001000
1004.634615,-0.011597,0.001000,0.001000,0.001000,0.001000,0.001000
1004.653846,-0.010373,0.001000,0.001000,0.001000,0.001000,0.001000
1004.673077,-0.009142,0.001000,0.001000,0.001000,0.001000,0.001000
1004.692308,-0.007906,0.001000,0.001000,0.001000,0.001000,0.001000
1004.711538,-0.006664,0.001000,0.001000,0.001000,0.001000,0.001000
1004.730769,-0.005418,0.001000,0.001000,0.001000,0.001000,0.001000
1004.750000,-0.004169,0.001000,0.001000,0.001000,0.001000,0.001000
1004.769231,-0.002917,0.001000,0.001000,0.001000,0.001000,0.001000
1004.788462,-0.001664,0.001000,0.001000,0.001000,0.001000,0.001000
1004.807692,-0.000409,0.001000,0.001000,0.001000,0.001000,0.001000
1004.826923,0.000846,0.001000,0.001000,0.001000,0.001000,0.001000
1004.846154,0.002100,0.001000,0.001000,0.001000,0.001000,0.001000
1004.865385,0.003354,0.001000,0.001000,0.001000,0.001000,0.001000
1004.884615,0.004605,0.001000,0.001000,0.001000,0.001000,0.001000
1004.903846,0.005853,0.001000,0.001000,0.001000,0.001000,0.001000
1004.923077,0.007097,0.001000,0.001000,0.001000,0.001000,0.001000
1004.942308,0.008337,0.001000,0.001000,0.001000,0.001000,0.001000
1004.961538,0.009572,0.001000,0.001000,0.001000,0.001000,0.001000
1004.980769,0.010800,0.001000,0.001000,0.001000,0.001000,0.001000
1005.000000,0.012022,0.001000,0.001000,0.001000,0.001000,0.001000
1005.019231,0.013236,0.001000,0.001000,0.001000,0.001000,0.001000
1005.038462,0.014442,0.001000,0.001000,0.001000,0.001000,0.001000
1005.057692,0.015639,0.001000,0.001000,0.001000,0.001000,0.001000
1005.076923,0.016826,0.001000,0.001000,0.001000,0.001000,0.001000
1005.096154,0.018003,0.001000,0.001000,0.001000,0.001000,0.001000
1005.115385,0.019168,0.001000,0.001000,0.001000,0.001000,0.001000
1005.134615,0.020321,0.001000,0.001000,0.001000,0.001000,0.001000
1005.153846,0.021461,0.001000,0.001000,0.001000,0.001000,0.001000
1005.173077,0.022587,0.001000,0.001000,0.001000,0.001000,0.001000
1005.192308,0.023700,0.001000,0.001000,0.001000,0.001000,0.001000
1005.211538,0.024797,0.001000,0.001000,0.001000,0.001000,0.001000
1005.230769,0.025879,0.001000,0.001000,0.001000,0.001000,0.001000
1005.250000,0.026945,0.001000,0.001000,0.001000,0.001000,0.001000
1005.269231,0.027993,0.001000,0.001000,0.001000,0.001000,0.001000
1005.288462,0.029024,0.001000,0.001000,0.001000,0.001000,0.001000
1005.307692,0.030037,0.001000,0.001000,0.001000,0.001000,0.001000
1005.326923,0.031031,0.001000,0.001000,0.001000,0.001000,0.001000
1005.346154,0.032005,0.001000,0.001000,0.001000,0.001000,0.001000
1005.365385,0.032959,0.001000,0.001000,0.001000,0.001000,0.001000
1005.384615,0.033892,0.001000,0.001000,0.001000,0.001000,0.001000
1005.403846,0.034804,0.001000,0.001000,0.001000,0.001000,0.001000
1005.423077,0.035694,0.001000,0.001000,0.001000,0.001000,0.001000
1005.442308,0.036561,0.001000,0.001000,0.001000,0.001000,0.001000
1005.461538,0.037406,0.001000,0.001000,0.001000,0.001000,0.001000
1005.480769,0.038227,0.001000,0.001000,0.001000,0.001000,0.001000
1005.500000,0.039024,0.001000,0.001000,0.001000,0.001000,0.001000
1005.519231,0.039796,0.001000,0.001000,0.001000,0.001000,0.001000
1005.538462,0.040543,0.001000,0.001000,0.001000,0.001000,0.001000
1005.557692,0.041265,0.001000,0.001000,0.001000,0.001000,0.001000
1005.576923,0.041960,0.001000,0.001000,0.001000,0.001000,0.001000
1005.596154,0.042630,0.001000,0.001000,0.001000,0.001000,0.001000
1005.615385,0.043272,0.001000,0.001000,0.001000,0.001000,0.001000
1005.634615,0.043887,0.001000,0.001000,0.001000,0.001000,0.001000
1005.653846,0.044474,0.001000,0.001000,0.001000,0.001000,0.001000
1005.673077,0.045034,0.001000,0.001000,0.001000,0.001000,0.001000
1005.692308,0.045565,0.001000,0.001000,0.001000,0.001000,0.001000
1005.711538,0.046067,0.001000,0.001000,0.001000,0.001000,0.001000
1005.730769,0.046540,0.001000,0.001000,0.001000,0.001000,0.001000
1005.750000,0.046984,0.001000,0.001000,0.001000,0.001000,0.001000
1005.769231,0.047399,0.001000,0.001000,0.001000,0.001000,0.001000
1005.788462,0.047783,0.001000,0.001000,0.001000,0.001000,0.001000
1005.807692,0.048138,0.001000,0.001000,0.001000,0.001000,0.001000
1005.826923,0.048462,0.001000,0.001000,0.001000,0.001000,0.001000
1005.846154,0.048756,0.001000,0.001000,0.001000,0.001000,0.001000
1005.865385,0.049018,0.001000,0.001000,0.001000,0.001000,0.001000
1005.884615,0.049250,0.001000,0.001000,0.001000,0.001000,0.001000
1005.903846,0.049451,0.001000,0.001000,0.001000,0.001000,0.001000
1005.923077,0.049621,0.001000,0.001000,0.001000,0.001000,0.001000
1005.942308,0.049760,0.001000,0.001000,0.001000,0.001000,0.001000
1005.961538,0.049867,0.001000,0.001000,0.001000,0.001000,0.001000
1005.980769,0.049943,0.001000,0.001000,0.001000,0.001000,0.001000
1006.000000,0.049987,0.001000,0.001000,0.001000,0.001000,0.001000
1006.019231,0.050000,0.001000,0.001000,0.001000,0.001000,0.001000
1006.038462,0.049981,0.001000,0.001000,0.001000,0.001000,0.001000
1006.057692,0.049931,0.001000,0.001000,0.001000,0.001000,0.001000
1006.076923,0.049849,0.001000,0.001000,0.001000,0.001000,0.001000
1006.096154,0.049736,0.001000,0.001000,0.001000,0.001000,0.001000
1006.115385,0.049592,0.001000,0.001000,0.001000,0.001000,0.001000
1006.134615,0.049416,0.001000,0.001000,0.001000,0.001000,0.001000
1006.153846,0.049210,0.001000,0.001000,0.001000,0.001000,0.001000
1006.173077,0.048972,0.001000,0.001000,0.001000,0.001000,0.001000
1006.192308,0.048703,0.001000,0.001000,0.001000,0.001000,0.001000
1006.211538,0.048404,0.001000,0.001000,0.001000,0.001000,0.001000
1006.230769,0.048074,0.001000,0.001000,0.001000,0.001000,0.001000
1006.250000,0.047714,0.001000,0.001000,0.001000,0.001000,0.001000
1006.269231,0.047324,0.001000,0.001000,0.001000,0.001000,0.001000
1006.288462,0.046904,0.001000,0.001000,0.001000,0.001000,0.001000
1006.307692,0.046455,0.001000,0.001000,0.001000,0.001000,0.001000
1006.326923,0.045976,0.001000,0.001000,0.001000,0.001000,0.001000
1006.346154,0.045469,0.001000,0.001000,0.001000,0.001000,0.001000
1006.365385,0.044932,0.001000,0.001000,0.001000,0.001000,0.001000
1006.384615,0.044368,0.001000,0.001000,0.001000,0.001000,0.001000
1006.403846,0.043775,0.001000,0.001000,0.001000,0.001000,0.001000
1006.423077,0.043155,0.001000,0.001000,0.001000,0.001000,0.001000
1006.442308,0.042507,0.001000,0.001000,0.001000,0.001000,0.001000
1006.461538,0.041833,0.001000,0.001000,0.001000,0.001000,0.001000
1006.480769,0.041133,0.001000,0.001000,0.001000,0.001000,0.001000
1006.500000,0.040406,0.001000,0.001000,0.001000,0.001000,0.001000
1006.519231,0.039655,0.001000,0.001000,0.001000,0.001000,0.001000
1006.538462,0.038878,0.001000,0.001000,0.001000,0.001000,0.001000
1006.557692,0.038076,0.001000,0.001000,0.001000,0.001000,0.001000
1006.576923,0.037251,0.001000,0.001000,0.001000,0.001000,0.001000
1006.596154,0.036402,0.001000,0.001000,0.001000,0.001000,0.001000
1006.615385,0.035531,0.001000,0.001000,0.001000,0.001000,0.001000
1006.634615,0.034637,0.001000,0.001000,0.001000,0.001000,0.001000
1006.653846,0.033721,0.001000,0.001000,0.001000,0.001000,0.001000
1006.673077,0.032783,0.001000,0.001000,0.001000,0.001000,0.001000
1006.692308,0.031826,0.001000,0.001000,0.001000,0.001000,0.001000
1006.711538,0.030848,0.001000,0.001000,0.001000,0.001000,0.001000
1006.730769,0.029850,0.001000,0.001000,0.001000,0.001000,0.001000
1006.750000,0.028834,0.001000,0.001000,0.001000,0.001000,0.001000
1006.769231,0.027800,0.001000,0.001000,0.001000,0.001000,0.001000
1006.788462,0.026748,0.001000,0.001000,0.001000,0.001000,0.001000
1006.807692,0.025680,0.001000,0.001000,0.001000,0.001000,0.001000
1006.826923,0.024595,0.001000,0.001000,0.001000,0.001000,0.001000
1006.846154,0.023495,0.001000,0.001000,0.001000,0.001000,0.001000
1006.865385,0.022379,0.001000,0.001000,0.001000,0.001000,0.001000
1006.884615,0.021250,0.001000,0.001000,0.001000,0.001000,0.001000
1006.903846,0.020108,0.001000,0.001000,0.001000,0.001000,0.001000
1006.923077,0.018952,0.001000,0.001000,0.001000,0.001000,0.001000
1006.942308,0.017785,0.001000,0.001000,0.001000,0.001000,0.001000
1006.961538,0.016607,0.001000,0.001000,0.001000,0.001000,0.001000
1006.980769,0.015418,0.001000,0.001000,0.001000,0.001000,0.001000
1007.000000,0.014219,0.001000,0.001000,0.001000,0.001000,0.001000
1007.019231,0.013012,0.001000,0.001000,0.001000,0.001000,0.001000
1007.038462,0.011796,0.001000,0.001000,0.001000,0.001000,0.001000
1007.057692,0.010573,0.001000,0.001000,0.001000,0.001000,0.001000
1007.076923,0.009343,0.001000,0.001000,0.001000,0.001000,0.001000
1007.096154,0.008107,0.001000,0.001000,0.001000,0.001000,0.001000
1007.115385,0.006867,0.001000,0.001000,0.001000,0.001000,0.001000
1007.134615,0.005621,0.001000,0.001000,0.001000,0.001000,0.001000
1007.153846,0.004373,0.001000,0.001000,0.001000,0.001000,0.001000
1007.173077,0.003121,0.001000,0.001000,0.001000,0.001000,0.001000
1007.192308,0.001868,0.001000,0.001000,0.001000,0.001000,0.001000
1007.211538,0.000613,0.001000,0.001000,0.001000,0.001000,0.001000
1007.230769,-0.000642,0.001000,0.001000,0.001000,0.001000,0.001000
1007.250000,-0.001896,0.001000,0.001000,0.001000,0.001000,0.001000
1007.269231,-0.003150,0.001000,0.001000,0.001000,0.001000,0.001000
1007.288462,-0.004401,0.001000,0.001000,0.001000,0.001000,0.001000
1007.307692,-0.005650,0.001000,0.001000,0.001000,0.001000,0.001000
1007.326923,-0.006895,0.001000,0.001000,0.001000,0.001000,0.001000
1007.346154,-0.008135,0.001000,0.001000,0.001000,0.001000,0.001000
1007.365385,-0.009371,0.001000,0.001000,0.001000,0.001000,0.001000
1007.384615,-0.010601,0.001000,0.001000,0.001000,0.001000,0.001000
1007.403846,-0.011824,0.001000,0.001000,0.001000,0.001000,0.001000
1007.423077,-0.013039,0.001000,0.001000,0.001000,0.001000,0.001000
1007.442308,-0.014246,0.001000,0.001000,0.001000,0.001000,0.001000
1007.461538,-0.015445,0.001000,0.001000,0.001000,0.001000,0.001000
1007.480769,-0.016633,0.001000,0.001000,0.001000,0.001000,0.001000
1007.500000,-0.017812,0.001000,0.001000,0.001000,0.001000,0.001000
1007.519231,-0.018979,0.001000,0.001000,0.001000,0.001000,0.001000
1007.538462,-0.020134,0.001000,0.001000,0.001000,0.001000,0.001000
1007.557692,-0.021276,0.001000,0.001000,0.001000,0.001000,0.001000
1007.576923,-0.022405,0.001000,0.001000,0.001000,0.001000,0.001000
1007.596154,-0.023519,0.001000,0.001000,0.001000,0.001000,0.001000
1007.615385,-0.024619,0.001000,0.001000,0.001000,0.001000,0.001000
1007.634615,-0.025704,0.001000,0.001000,0.001000,0.001000,0.001000
1007.653846,-0.026772,0.001000,0.001000,0.001000,0.001000,0.001000
1007.673077,-0.027824,0.001000,0.001000,0.001000,0.001000,0.001000
1007.692308,-0.028857,0.001000,0.001000,0.001000,0.001000,0.001000
1007.711538,-0.029873,0.001000,0.001000,0.001000,0.001000,0.001000
1007.730769,-0.030870,0.001000,0.001000,0.001000,0.001000,0.001000
1007.750000,-0.031847,0.001000,0.001000,0.001000,0.001000,0.001000
1007.769231,-0.032805,0.001000,0.001000,0.001000,0.001000,0.001000
1007.788462,-0.033741,0.001000,0.001000,0.001000,0.001000,0.001000
1007.807692,-0.034657,0.001000,0.001000,0.001000,0.001000,0.001000
1007.826923,-0.035550,0.001000,0.001000,0.001000,0.001000,0.001000
1007.846154,-0.036422,0.001000,0.001000,0.001000,0.001000,0.001000
1007.865385,-0.037270,0.001000,0.001000,0.001000,0.001000,0.001000
1007.884615,-0.038095,0.001000,0.001000,0.001000,0.001000,0.001000
1007.903846,-0.038896,0.001000,0.001000,0.001000,0.001000,0.001000
1007.923077,-0.039672,0.001000,0.001000,0.001000,0.001000,0.001000
1007.942308,-0.040423,0.001000,0.001000,0.001000,0.001000,0.001000
1007.961538,-0.041149,0.001000,0.001000,0.001000,0.001000,0.001000
1007.980769,-0.041849,0.001000,0.001000,0.001000,0.001000,0.001000
1008.000000,-0.042522,0.001000,0.001000,0.001000,0.001000,0.001000
1008.019231,-0.043169,0.001000,0.001000,0.001000,0.001000,0.001000
1008.038462,-0.043789,0.001000,0.001000,0.001000,0.001000,0.001000
1008.057692,-0.044381,0.001000,0.001000,0.001000,0.001000,0.001000
1008.076923,-0.044945,0.001000,0.001000,0.001000,0.001000,0.001000
1008.096154,-0.045480,0.001000,0.001000,0.001000,0.001000,0.001000
1008.115385,-0.045987,0.001000,0.001000,0.001000,0.001000,0.001000
1008.134615,-0.046465,0.001000,0.001000,0.001000,0.001000,0.001000
1008.153846,-0.046914,0.001000,0.001000,0.001000,0.001000,0.001000
1008.173077,-0.047333,0.001000,0.001000,0.001000,0.001000,0.001000
1008.192308,-0.047723,0.001000,0.001000,0.001000,0.001000,0.001000
1008.211538,-0.048082,0.001000,0.001000,0.001000,0.001000,0.001000
1008.230769,-0.048411,0.001000,0.001000,0.001000,0.001000,0.001000
1008.250000,-0.048710,0.001000,0.001000,0.001000,0.001000,0.001000
1008.269231,-0.048978,0.001000,0.001000,0.001000,0.001000,0.001000
1008.288462,-0.049215,0.001000,0.001000,0.001000,0.001000,0.001000
1008.307692,-0.049421,0.001000,0.001000,0.001000,0.001000,0.001000
1008.326923,-0.049596,0.001000,0.001000,0.001000,0.001000,0.001000
1008.346154,-0.049739,0.001000,0.001000,0.001000,0.001000,0.001000
1008.365385,-0.049852,0.001000,0.001000,0.001000,0.001000,0.001000
1008.384615,-0.049933,0.001000,0.001000,0.001000,0.001000,0.001000
1008.403846,-0.049982,0.001000,0.001000,0.001000,0.001000,0.001000
1008.423077,-0.050000,0.001000,0.001000,0.001000,0.001000,0.001000
1008.442308,-0.049986,0.001000,0.001000,0.001000,0.001000,0.001000
1008.461538,-0.049941,0.001000,0.001000,0.001000,0.001000,0.001000
1008.480769,-0.049865,0.001000,0.001000,0.001000,0.001000,0.001000
1008.500000,-0.049757,0.001000,0.001000,0.001000,0.001000,0.001000
1008.519231,-0.049618,0.001000,0.001000,0.001000,0.001000,0.001000
1008.538462,-0.049447,0.001000,0.001000,0.001000,0.001000,0.001000
1008.557692,-0.049246,0.001000,0.001000,0.001000,0.001000,0.001000
1008.576923,-0.049013,0.001000,0.001000,0.001000,0.001000,0.001000
1008.596154,-0.048749,0.001000,0.001000,0.001000,0.001000,0.001000
1008.615385,-0.048455,0.001000,0.001000,0.001000,0.001000,0.001000
1008.634615,-0.048130,0.001000,0.001000,0.001000,0.001000,0.001000
1008.653846,-0.047775,0.001000,0.001000,0.001000,0.001000,0.001000
1008.673077,-0.047390,0.001000,0.001000,0.001000,0.001000,0.001000
1008.692308,-0.046975,0.001000,0.001000,0.001000,0.001000,0.001000
1008.711538,-0.046530,0.001000,0.001000,0.001000,0.001000,0.001000
1008.730769,-0.046056,0.001000,0.001000,0.001000,0.001000,0.001000
1008.750000,-0.045553,0.001000,0.001000,0.001000,0.001000,0.001000
1008.769231,-0.045022,0.001000,0.001000,0.001000,0.001000,0.001000
1008.788462,-0.044461,0.001000,0.001000,0.001000,0.001000,0.001000
1008.807692,-0.043873,0.001000,0.001000,0.001000,0.001000,0.001000
1008.826923,-0.043258,0.001000,0.001000,0.001000,0.001000,0.001000
1008.846154,-0.042615,0.001000,0.001000,0.001000,0.001000,0.001000
1008.865385,-0.041945,0.001000,0.001000,0.001000,0.001000,0.001000
1008.884615,-0.041249,0.001000,0.001000,0.001000,0.001000,0.001000
1008.903846,-0.040527,0.001000,0.001000,0.001000,0.001000,0.001000
1008.923077,-0.039779,0.001000,0.001000,0.001000,0.001000,0.001000
1008.942308,-0.039006,0.001000,0.001000,0.001000,0.001000,0.001000
1008.961538,-0.038209,0.001000,0.001000,0.001000,0.001000,0.001000
1008.980769,-0.037387,0.001000,0.001000,0.001000,0.001000,0.001000
1009.000000,-0.036542,0.001000,0.001000,0.001000,0.001000,0.001000
1009.019231,-0.035674,0.001000,0.001000,0.001000,0.001000,0.001000
1009.038462,-0.034784,0.001000,0.001000,0.001000,0.001000,0.001000
1009.057692,-0.033871,0.001000,0.001000,0.001000,0.001000,0.001000
1009.076923,-0.032938,0.001000,0.001000,0.001000,0.001000,0.001000
1009.096154,-0.031983,0.001000,0.001000,0.001000,0.001000,0.001000
1009.115385,-0.031008,0.001000,0.001000,0.001000,0.001000,0.001000
1009.134615,-0.030014,0.001000,0.001000,0.001000,0.001000,0.001000
1009.153846,-0.029001,0.001000,0.001000,0.001000,0.001000,0.001000
1009.173077,-0.027970,0.001000,0.001000,0.001000,0.001000,0.001000
1009.192308,-0.026921,0.001000,0.001000,0.001000,0.001000,0.001000
1009.211538,-0.025855,0.001000,0.001000,0.001000,0.001000,0.001000
1009.230769,-0.024773,0.001000,0.001000,0.001000,0.001000,0.001000
1009.250000,-0.023675,0.001000,0.001000,0.001000,0.001000,0.001000
1009.269231,-0.022562,0.001000,0.001000,0.001000,0.001000,0.001000
1009.288462,-0.021435,0.001000,0.001000,0.001000,0.001000,0.001000
1009.307692,-0.020295,0.001000,0.001000,0.001000,0.001000,0.001000
1009.326923,-0.019141,0.001000,0.001000,0.001000,0.001000,0.001000
1009.346154,-0.017976,0.001000,0.001000,0.001000,0.001000,0.001000
1009.365385,-0.016800,0.001000,0.001000,0.001000,0.001000,0.001000
1009.384615,-0.015612,0.001000,0.001000,0.001000,0.001000,0.001000
1009.403846,-0.014415,0.001000,0.001000,0.001000,0.001000,0.001000
1009.423077,-0.013209,0.001000,0.001000,0.001000,0.001000,0.001000
1009.442308,-0.011995,0.001000,0.001000,0.001000,0.001000,0.001000
1009.461538,-0.010773,0.001000,0.001000,0.001000,0.001000,0.001000
1009.480769,-0.009544,0.001000,0.001000,0.001000,0.001000,0.001000
1009.500000,-0.008309,0.001000,0.001000,0.001000,0.001000,0.001000
1009.519231,-0.007069,0.001000,0.001000,0.001000,0.001000,0.001000
1009.538462,-0.005825,0.001000,0.001000,0.001000,0.001000,0.001000
1009.557692,-0.004576,0.001000,0.001000,0.001000,0.001000,0.001000
1009.576923,-0.003325,0.001000,0.001000,0.001000,0.001000,0.001000
1009.596154,-0.002072,0.001000,0.001000,0.001000,0.001000,0.001000
1009.615385,-0.000818,0.001000,0.001000,0.001000,0.001000,0.001000
1009.634615,0.000437,0.001000,0.001000,0.001000,0.001000,0.001000
1009.653846,0.001692,0.001000,0.001000,0.001000,0.001000,0.001000
1009.673077,0.002945,0.001000,0.001000,0.001000,0.001000,0.001000
1009.692308,0.004197,0.001000,0.001000,0.001000,0.001000,0.001000
1009.711538,0.005446,0.001000,0.001000,0.001000,0.001000,0.001000
1009.730769,0.006692,0.001000,0.001000,0.001000,0.001000,0.001000
1009.750000,0.007933,0.001000,0.001000,0.001000,0.001000,0.001000
1009.769231,0.009170,0.001000,0.001000,0.001000,0.001000,0.001000
1009.788462,0.010401,0.001000,0.001000,0.001000,0.001000,0.001000
1009.807692,0.011625,0.001000,0.001000,0.001000,0.001000,0.001000
1009.826923,0.012842,0.001000,0.001000,0.001000,0.001000,0.001000
1009.846154,0.014050,0.001000,0.001000,0.001000,0.001000,0.001000
1009.865385,0.015250,0.001000,0.001000,0.001000,0.001000,0.001000
1009.884615,0.016440,0.001000,0.001000,0.001000,0.001000,0.001000
1009.903846,0.017620,0.001000,0.001000,0.001000,0.001000,0.001000
1009.923077,0.018789,0.001000,0.001000,0.001000,0.001000,0.001000
1009.942308,0.019946,0.001000,0.001000,0.001000,0.001000,0.001000
1009.961538,0.021091,0.001000,0.001000,0.001000,0.001000,0.001000
1009.980769,0.022222,0.001000,0.001000,0.001000,0.001000,0.001000
1010.000000,0.023339,0.001000,0.001000,0.001000,0.001000,0.001000
1010.019231,0.024441,0.001000,0.001000,0.001000,0.001000,0.001000
1010.038462,0.025528,0.001000,0.001000,0.001000,0.001000,0.001000
1010.057692,0.026599,0.001000,0.001000,0.001000,0.001000,0.001000
1010.076923,0.027653,0.001000,0.001000,0.001000,0.001000,0.001000
1010.096154,0.028690,0.001000,0.001000,0.001000,0.001000,0.001000
1010.115385,0.029709,0.001000,0.001000,0.001000,0.001000,0.001000
1010.134615,0.030709,0.001000,0.001000,0.001000,0.001000,0.001000
1010.153846,0.031690,0.001000,0.001000,0.001000,0.001000,0.001000
1010.173077,0.032650,0.001000,0.001000,0.001000,0.001000,0.001000
1010.192308,0.033590,0.001000,0.001000,0.001000,0.001000,0.001000
1010.211538,0.034509,0.001000,0.001000,0.001000,0.001000,0.001000
1010.230769,0.035406,0.001000,0.001000,0.001000,0.001000,0.001000
1010.250000,0.036281,0.001000,0.001000,0.001000,0.001000,0.001000
1010.269231,0.037133,0.001000,0.001000,0.001000,0.001000,0.001000
1010.288462,0.037962,0.001000,0.001000,0.001000,0.001000,0.001000
1010.307692,0.038767,0.001000,0.001000,0.001000,0.001000,0.001000
1010.326923,0.039547,0.001000,0.001000,0.001000,0.001000,0.001000
1010.346154,0.040302,0.001000,0.001000,0.001000,0.001000,0.001000
1010.365385,0.041032,0.001000,0.001000,0.001000,0.001000,0.001000
1010.384615,0.041737,0.001000,0.001000,0.001000,0.001000,0.001000
1010.403846,0.042414,0.001000,0.001000,0.001000,0.001000,0.001000
1010.423077,0.043066,0.001000,0.001000,0.001000,0.001000,0.001000
1010.442308,0.043690,0.001000,0.001000,0.001000,0.001000,0.001000
1010.461538,0.044286,0.001000,0.001000,0.001000,0.001000,0.001000
1010.480769,0.044855,0.001000,0.001000,0.001000,0.001000,0.001000
1010.500000,0.045395,0.001000,0.001000,0.001000,0.001000,0.001000
1010.519231,0.045907,0.001000,0.001000,0.001000,0.001000,0.001000
1010.538462,0.046389,0.001000,0.001000,0.001000,0.001000,0.001000
1010.557692,0.046843,0.001000,0.001000,0.001000,0.001000,0.001000
1010.576923,0.047267,0.001000,0.001000,0.001000,0.001000,0.001000
1010.596154,0.047661,0.001000,0.001000,0.001000,0.001000,0.001000
1010.615385,0.048026,0.001000,0.001000,0.001000,0.001000,0.001000
1010.634615,0.048360,0.001000,0.001000,0.001000,0.001000,0.001000
1010.653846,0.048663,0.001000,0.001000,0.001000,0.001000,0.001000
1010.673077,0.048936,0.001000,0.001000,0.001000,0.001000,0.001000
1010.692308,0.049178,0.001000,0.001000,0.001000,0.001000,0.001000
1010.711538,0.049389,0.001000,0.001000,0.001000,0.001000,0.001000
1010.730769,0.049569,0.001000,0.001000,0.001000,0.001000,0.001000
1010.750000,0.049718,0.001000,0.001000,0.001000,0.001000,0.001000
1010.769231,0.049835,0.001000,0.001000,0.001000,0.001000,0.001000
1010.788462,0.049921,0.001000,0.001000,0.001000,0.001000,0.001000
1010.807692,0.049976,0.001000,0.001000,0.001000,0.001000,0.001000
1010.826923,0.049999,0.001000,0.001000,0.001000,0.001000,0.001000
1010.846154,0.049991,0.001000,0.001000,0.001000,0.001000,0.001000
1010.865385,0.049951,0.001000,0.001000,0.001000,0.001000,0.001000
1010.884615,0.049879,0.001000,0.001000,0.001000,0.001000,0.001000
1010.903846,0.049777,0.001000,0.001000,0.001000,0.001000,0.001000
1010.923077,0.049643,0.001000,0.001000,0.001000,0.001000,0.001000
1010.942308,0.049477,0.001000,0.001000,0.001000,0.001000,0.001000
1010.961538,0.049281,0.001000,0.001000,0.001000,0.001000,0.001000
1010.980769,0.049053,0.001000,0.001000,0.001000,0.001000,0.001000
1011.000000,0.048794,0.001000,0.001000,0.001000,0.001000,0.001000
1011.019231,0.048505,0.001000,0.001000,0.001000,0.001000,0.001000
1011.038462,0.048185,0.001000,0.001000,0.001000,0.001000,0.001000
1011.057692,0.047835,0.001000,0.001000,0.001000,0.001000,0.001000
1011.076923,0.047455,0.001000,0.001000,0.001000,0.001000,0.001000
1011.096154,0.047044,0.001000,0.001000,0.001000,0.001000,0.001000
1011.115385,0.046605,0.001000,0.001000,0.001000,0.001000,0.001000
1011.134615,0.046135,0.001000,0.001000,0.001000,0.001000,0.001000
1011.153846,0.045637,0.001000,0.001000,0.001000,0.001000,0.001000
1011.173077,0.045110,0.001000,0.001000,0.001000,0.001000,0.001000
1011.192308,0.044555,0.001000,0.001000,0.001000,0.001000,0.001000
1011.211538,0.043971,0.001000,0.001000,0.001000,0.001000,0.001000
1011.230769,0.043360,0.001000,0.001000,0.001000,0.001000,0.001000
1011.250000,0.042721,0.001000,0.001000,0.001000,0.001000,0.001000
1011.269231,0.042056,0.001000,0.001000,0.001000,0.001000,0.001000
1011.288462,0.041364,0.001000,0.001000,0.001000,0.001000,0.001000
1011.307692,0.040646,0.001000,0.001000,0.001000,0.001000,0.001000
1011.326923,0.039902,0.001000,0.001000,0.001000,0.001000,0.001000
1011.346154,0.039134,0.001000,0.001000,0.001000,0.001000,0.001000
1011.365385,0.038340,0.001000,0.001000,0.001000,0.001000,0.001000
1011.384615,0.037523,0.001000,0.001000,0.001000,0.001000,0.001000
1011.403846,0.036681,0.001000,0.001000,0.001000,0.001000,0.001000
1011.423077,0.035817,0.001000,0.001000,0.001000,0.001000,0.001000
1011.442308,0.034930,0.001000,0.001000,0.001000,0.001000,0.001000
1011.461538,0.034021,0.001000,0.001000,0.001000,0.001000,0.001000
1011.480769,0.033091,0.001000,0.001000,0.001000,0.001000,0.001000
1011.500000,0.032140,0.001000,0.001000,0.001000,0.001000,0.001000
1011.519231,0.031169,0.001000,0.001000,0.001000,0.001000,0.001000
1011.538462,0.030178,0.001000,0.001000,0.001000,0.001000,0.001000
1011.557692,0.029168,0.001000,0.001000,0.001000,0.001000,0.001000
1011.576923,0.028139,0.001000,0.001000,0.001000,0.001000,0.001000
1011.596154,0.027093,0.001000,0.001000,0.001000,0.001000,0.001000
1011.615385,0.026030,0.001000,0.001000,0.001000,0.001000,0.001000
1011.634615,0.024950,0.001000,0.001000,0.001000,0.001000,0.001000
1011.653846,0.023855,0.001000,0.001000,0.001000,0.001000,0.001000
1011.673077,0.022744,0.001000,0.001000,0.001000,0.001000,0.001000
1011.692308,0.021620,0.001000,0.001000,0.001000,0.001000,0.001000
1011.711538,0.020481,0.001000,0.001000,0.001000,0.001000,0.001000
1011.730769,0.019330,0.001000,0.001000,0.001000,0.001000,0.001000
1011.750000,0.018167,0.001000,0.001000,0.001000,0.001000,0.001000
1011.769231,0.016992,0.001000,0.001000,0.001000,0.001000,0.001000
1011.788462,0.015806,0.001000,0.001000,0.001000,0.001000,0.001000
1011.807692,0.014611,0.001000,0.001000,0.001000,0.001000,0.001000
1011.826923,0.013406,0.001000,0.001000,0.001000,0.001000,0.001000
1011.846154,0.012193,0.001000,0.001000,0.001000,0.001000,0.001000
1011.865385,0.010972,0.001000,0.001000,0.001000,0.001000,0.001000
1011.884615,0.009745,0.001000,0.001000,0.001000,0.001000,0.001000
1011.903846,0.008511,0.001000,0.001000,0.001000,0.001000,0.001000
1011.923077,0.007271,0.001000,0.001000,0.001000,0.001000,0.001000
1011.942308,0.006028,0.001000,0.001000,0.001000,0.001000,0.001000
1011.961538,0.004780,0.001000,0.001000,0.001000,0.001000,0.001000
1011.980769,0.003529,0.001000,0.001000,0.001000,0.001000,0.001000
1012.000000,0.002277,0.001000,0.001000,0.001000,0.001000,0.001000
1012.019231,0.001022,0.001000,0.001000,0.001000,0.001000,0.001000
1012.038462,-0.000233,0.001000,0.001000,0.001000,0.001000,0.001000
1012.057692,-0.001487,0.001000,0.001000,0.001000,0.001000,0.001000
1012.076923,-0.002741,0.001000,0.001000,0.001000,0.001000,0.001000
1012.096154,-0.003993,0.001000,0.001000,0.001000,0.001000,0.001000
1012.115385,-0.005243,0.001000,0.001000,0.001000,0.001000,0.001000
1012.134615,-0.006489,0.001000,0.001000,0.001000,0.001000,0.001000
1012.153846,-0.007732,0.001000,0.001000,0.001000,0.001000,0.001000
1012.173077,-0.008969,0.001000,0.001000,0.001000,0.001000,0.001000
1012.192308,-0.010201,0.001000,0.001000,0.001000,0.001000,0.001000
1012.211538,-0.011426,0.001000,0.001000,0.001000,0.001000,0.001000
1012.230769,-0.012644,0.001000,0.001000,0.001000,0.001000,0.001000
1012.250000,-0.013854,0.001000,0.001000,0.001000,0.001000,0.001000
1012.269231,-0.015055,0.001000,0.001000,0.001000,0.001000,0.001000
1012.288462,-0.016247,0.001000,0.001000,0.001000,0.001000,0.001000
1012.307692,-0.017429,0.001000,0.001000,0.001000,0.001000,0.001000
1012.326923,-0.018600,0.001000,0.001000,0.001000,0.001000,0.001000
1012.346154,-0.019759,0.001000,0.001000,0.001000,0.001000,0.001000
1012.365385,-0.020905,0.001000,0.001000,0.001000,0.001000,0.001000
1012.384615,-0.022038,0.001000,0.001000,0.001000,0.001000,0.001000
1012.403846,-0.023158,0.001000,0.001000,0.001000,0.001000,0.001000
1012.423077,-0.024263,0.001000,0.001000,0.001000,0.001000,0.001000
1012.442308,-0.025352,0.001000,0.001000,0.001000,0.001000,0.001000
1012.461538,-0.026426,0.001000,0.001000,0.001000,0.001000,0.001000
1012.480769,-0.027483,0.001000,0.001000,0.001000,0.001000,0.001000
1012.500000,-0.028523,0.001000,0.001000,0.001000,0.001000,0.001000
1012.519231,-0.029544,0.001000,0.001000,0.001000,0.001000,0.001000
1012.538462,-0.030547,0.001000,0.001000,0.001000,0.001000,0.001000
1012.557692,-0.031531,0.001000,0.001000,0.001000,0.001000,0.001000
1012.576923,-0.032495,0.001000,0.001000,0.001000,0.001000,0.001000
1012.596154,-0.033439,0.001000,0.001000,0.001000,0.001000,0.001000
1012.615385,-0.034361,0.001000,0.001000,0.001000,0.001000,0.001000
1012.634615,-0.035262,0.001000,0.001000,0.001000,0.001000,0.001000
1012.653846,-0.036140,0.001000,0.001000,0.001000,0.001000,0.001000
1012.673077,-0.036996,0.001000,0.001000,0.001000,0.001000,0.001000
1012.692308,-0.037829,0.001000,0.001000,0.001000,0.001000,0.001000
1012.711538,-0.038637,0.001000,0.001000,0.001000,0.001000,0.001000
1012.730769,-0.039422,0.001000,0.001000,0.001000,0.001000,0.001000
1012.750000,-0.040181,0.001000,0.001000,0.001000,0.001000,0.001000
1012.769231,-0.040915,0.001000,0.001000,0.001000,0.001000,0.001000
1012.788462,-0.041624,0.001000,0.001000,0.001000,0.001000,0.001000
1012.807692,-0.042306,0.001000,0.001000,0.001000,0.001000,0.001000
1012.826923,-0.042961,0.001000,0.001000,0.001000,0.001000,0.001000
1012.846154,-0.043590,0.001000,0.001000,0.001000,0.001000,0.001000
1012.865385,-0.044191,0.001000,0.001000,0.001000,0.001000,0.001000
1012.884615,-0.044764,0.001000,0.001000,0.001000,0.001000,0.001000
1012.903846,-0.045309,0.001000,0.001000,0.001000,0.001000,0.001000
1012.923077,-0.045825,0.001000,0.001000,0.001000,0.001000,0.001000
1012.942308,-0.046313,0.001000,0.001000,0.001000,0.001000,0.001000
1012.961538,-0.046771,0.001000,0.001000,0.001000,0.001000,0.001000
1012.980769,-0.047200,0.001000,0.001000,0.001000,0.001000,0.001000
1013.000000,-0.047599,0.001000,0.001000,0.001000,0.001000,0.001000
1013.019231,-0.047968,0.001000,0.001000,0.001000,0.001000,0.001000
1013.038462,-0.048307,0.001000,0.001000,0.001000,0.001000,0.001000
1013.057692,-0.048616,0.001000,0.001000,0.001000,0.001000,0.001000
1013.076923,-0.048894,0.001000,0.001000,0.001000,0.001000,0.001000
1013.096154,-0.049141,0.001000,0.001000,0.001000,0.001000,0.001000
1013.115385,-0.049357,0.001000,0.001000,0.001000,0.001000,0.001000
1013.134615,-0.049542,0.001000,0.001000,0.001000,0.001000,0.001000
1013.153846,-0.049696,0.001000,0.001000,0.001000,0.001000,0.001000
1013.173077,-0.049818,0.001000,0.001000,0.001000,0.001000,0.001000
1013.192308,-0.049910,0.001000,0.001000,0.001000,0.001000,0.001000
1013.211538,-0.049969,0.001000,0.001000,0.001000,0.001000,0.001000
1013.230769,-0.049998,0.001000,0.001000,0.001000,0.001000,0.001000
1013.250000,-0.049994,0.001000,0.001000,0.001000,0.001000,0.001000
1013.269231,-0.049959,0.001000,0.001000,0.001000,0.001000,0.001000
1013.288462,-0.049893,0.001000,0.001000,0.001000,0.001000,0.001000
1013.307692,-0.049796,0.001000,0.001000,0.001000,0.001000,0.001000
1013.326923,-0.049667,0.001000,0.001000,0.001000,0.001000,0.001000
1013.346154,-0.049506,0.001000,0.001000,0.001000,0.001000,0.001000
1013.365385,-0.049315,0.001000,0.001000,0.001000,0.001000,0.001000
1013.384615,-0.049092,0.001000,0.001000,0.001000,0.001000,0.001000
1013.403846,-0.048839,0.001000,0.001000,0.001000,0.001000,0.001000
1013.423077,-0.048554,0.001000,0.001000,0.001000,0.001000,0.001000
1013.442308,-0.048239,0.001000,0.001000,0.001000,0.001000,0.001000
1013.461538,-0.047894,0.001000,0.001000,0.001000,0.001000,0.001000
1013.480769,-0.047519,0.001000,0.001000,0.001000,0.001000,0.001000
1013.500000,-0.047113,0.001000,0.001000,0.001000,0.001000,0.001000
1013.519231,-0.046678,0.001000,0.001000,0.001000,0.001000,0.001000
1013.538462,-0.046214,0.001000,0.001000,0.001000,0.001000,0.001000
1013.557692,-0.045720,0.001000,0.001000,0.001000,0.001000,0.001000
1013.576923,-0.045198,0.001000,0.001000,0.001000,0.001000,0.001000
1013.596154,-0.044647,0.001000,0.001000,0.001000,0.001000,0.001000
1013.615385,-0.044068,0.001000,0.001000,0.001000,0.001000,0.001000
1013.634615,-0.043461,0.001000,0.001000,0.001000,0.001000,0.001000
1013.653846,-0.042827,0.001000,0.001000,0.001000,0.001000,0.001000
1013.673077,-0.042166,0.001000,0.001000,0.001000,0.001000,0.001000
1013.692308,-0.041478,0.001000,0.001000,0.001000,0.001000,0.001000
1013.711538,-0.040765,0.001000,0.001000,0.001000,0.001000,0.001000
1013.730769,-0.040025,0.001000,0.001000,0.001000,0.001000,0.001000
1013.750000,-0.039261,0.001000,0.001000,0.001000,0.001000,0.001000
1013.769231,-0.038471,0.001000,0.001000,0.001000,0.001000,0.001000
1013.788462,-0.037657,0.001000,0.001000,0.001000,0.001000,0.001000
1013.807692,-0.036820,0.001000,0.001000,0.001000,0.001000,0.001000
1013.826923,-0.035960,0.001000,0.001000,0.001000,0.001000,0.001000
1013.846154,-0.035076,0.001000,0.001000,0.001000,0.001000,0.001000
1013.865385,-0.034171,0.001000,0.001000,0.001000,0.001000,0.001000
1013.884615,-0.033244,0.001000,0.001000,0.001000,0.001000,0.001000
1013.903846,-0.032296,0.001000,0.001000,0.001000,0.001000,0.001000
1013.923077,-0.031328,0.001000,0.001000,0.001000,0.001000,0.001000
1013.942308,-0.030340,0.001000,0.001000,0.001000,0.001000,0.001000
1013.961538,-0.029333,0.001000,0.001000,0.001000,0.001000,0.001000
1013.980769,-0.028308,0.001000,0.001000,0.001000,0.001000,0.001000
1014.000000,-0.027265,0.001000,0.001000,0.001000,0.001000,0.001000
1014.019231,-0.026204,0.001000,0.001000,0.001000,0.001000,0.001000
1014.038462,-0.025127,0.001000,0.001000,0.001000,0.001000,0.001000
1014.057692,-0.024034,0.001000,0.001000,0.001000,0.001000,0.001000
1014.076923,-0.022926,0.001000,0.001000,0.001000,0.001000,0.001000
1014.096154,-0.021804,0.001000,0.001000,0.001000,0.001000,0.001000
1014.115385,-0.020668,0.001000,0.001000,0.001000,0.001000,0.001000
1014.134615,-0.019519,0.001000,0.001000,0.001000,0.001000,0.001000
1014.153846,-0.018357,0.001000,0.001000,0.001000,0.001000,0.001000
1014.173077,-0.017184,0.001000,0.001000,0.001000,0.001000,0.001000
1014.192308,-0.016000,0.001000,0.001000,0.001000,0.001000,0.001000
1014.211538,-0.014806,0.001000,0.001000,0.001000,0.001000,0.001000
1014.230769,-0.013603,0.001000,0.001000,0.001000,0.001000,0.001000
1014.250000,-0.012391,0.001000,0.001000,0.001000,0.001000,0.001000
1014.269231,-0.011172,0.001000,0.001000,0.001000,0.001000,0.001000
1014.288462,-0.009945,0.001000,0.001000,0.001000,0.001000,0.001000
1014.307692,-0.008712,0.001000,0.001000,0.001000,0.001000,0.001000
1014.326923,-0.007474,0.001000,0.001000,0.001000,0.001000,0.001000
1014.346154,-0.006231,0.001000,0.001000,0.001000,0.001000,0.001000
1014.365385,-0.004984,0.001000,0.001000,0.001000,0.001000,0.001000
1014.384615,-0.003733,0.001000,0.001000,0.001000,0.001000,0.001000
1014.403846,-0.002481,0.001000,0.001000,0.001000,0.001000,0.001000
1014.423077,-0.001227,0.001000,0.001000,0.001000,0.001000,0.001000
1014.442308,0.000028,0.001000,0.001000,0.001000,0.001000,0.001000
1014.461538,0.001283,0.001000,0.001000,0.001000,0.001000,0.001000
1014.480769,0.002537,0.001000,0.001000,0.001000,0.001000,0.001000
1014.500000,0.003790,0.001000,0.001000,0.001000,0.001000,0.001000
1014.519231,0.005040,0.001000,0.001000,0.001000,0.001000,0.001000
1014.538462,0.006287,0.001000,0.001000,0.001000,0.001000,0.001000
1014.557692,0.007529,0.001000,0.001000,0.001000,0.001000,0.001000
1014.576923,0.008768,0.001000,0.001000,0.001000,0.001000,0.001000
1014.596154,0.010000,0.001000,0.001000,0.001000,0.001000,0.001000
1014.615385,0.011227,0.001000,0.001000,0.001000,0.001000,0.001000
1014.634615,0.012446,0.001000,0.001000,0.001000,0.001000,0.001000
1014.653846,0.013657,0.001000,0.001000,0.001000,0.001000,0.001000
1014.673077,0.014860,0.001000,0.001000,0.001000,0.001000,0.001000
1014.692308,0.016054,0.001000,0.001000,0.001000,0.001000,0.001000
1014.711538,0.017237,0.001000,0.001000,0.001000,0.001000,0.001000
1014.730769,0.018410,0.001000,0.001000,0.001000,0.001000,0.001000
1014.750000,0.019571,0.001000,0.001000,0.001000,0.001000,0.001000
1014.769231,0.020719,0.001000,0.001000,0.001000,0.001000,0.001000
1014.788462,0.021855,0.001000,0.001000,0.001000,0.001000,0.001000
1014.807692,0.022976,0.001000,0.001000,0.001000,0.001000,0.001000
1014.826923,0.024084,0.001000,0.001000,0.001000,0.001000,0.001000
1014.846154,0.025176,0.001000,0.001000,0.001000,0.001000,0.001000
1014.865385,0.026252,0.001000,0.001000,0.001000,0.001000,0.001000
1014.884615,0.027312,0.001000,0.001000,0.001000,0.001000,0.001000
1014.903846,0.028354,0.001000,0.001000,0.001000,0.001000,0.001000
1014.923077,0.029379,0.001000,0.001000,0.001000,0.001000,0.001000
1014.942308,0.030385,0.001000,0.001000,0.001000,0.001000,0.001000
1014.961538,0.031372,0.001000,0.001000,0.001000,0.001000,0.001000
1014.980769,0.032339,0.001000,0.001000,0.001000,0.001000,0.001000
1015.000000,0.033286,0.001000,0.001000,0.001000,0.001000,0.001000
1015.019231,0.034212,0.001000,0.001000,0.001000,0.001000,0.001000
1015.038462,0.035116,0.001000,0.001000,0.001000,0.001000,0.001000
1015.057692,0.035999,0.001000,0.001000,0.001000,0.001000,0.001000
1015.076923,0.036858,0.001000,0.001000,0.001000,0.001000,0.001000
1015.096154,0.037695,0.001000,0.001000,0.001000,0.001000,0.001000
1015.115385,0.038507,0.001000,0.001000,0.001000,0.001000,0.001000
1015.134615,0.039295,0.001000,0.001000,0.001000,0.001000,0.001000
1015.153846,0.040059,0.001000,0.001000,0.001000,0.001000,0.001000
1015.173077,0.040797,0.001000,0.001000,0.001000,0.001000,0.001000
1015.192308,0.041510,0.001000,0.001000,0.001000,0.001000,0.001000
1015.211538,0.042196,0.001000,0.001000,0.001000,0.001000,0.001000
1015.230769,0.042856,0.001000,0.001000,0.001000,0.001000,0.001000
1015.250000,0.043489,0.001000,0.001000,0.001000,0.001000,0.001000
1015.269231,0.044095,0.001000,0.001000,0.001000,0.001000,0.001000
1015.288462,0.044672,0.001000,0.001000,0.001000,0.001000,0.001000
1015.307692,0.045222,0.001000,0.001000,0.001000,0.001000,0.001000
1015.326923,0.045743,0.001000,0.001000,0.001000,0.001000,0.001000
1015.346154,0.046235,0.001000,0.001000,0.001000,0.001000,0.001000
1015.365385,0.046698,0.001000,0.001000,0.001000,0.001000,0.001000
1015.384615,0.047132,0.001000,0.001000,0.001000,0.001000,0.001000
1015.403846,0.047536,0.001000,0.001000,0.001000,0.001000,0.001000
1015.423077,0.047910,0.001000,0.001000,0.001000,0.001000,0.001000
1015.442308,0.048254,0.001000,0.001000,0.001000,0.001000,0.001000
1015.461538,0.048568,0.001000,0.001000,0.001000,0.001000,0.001000
1015.480769,0.048851,0.001000,0.001000,0.001000,0.001000,0.001000
1015.500000,0.049103,0.001000,0.001000,0.001000,0.001000,0.001000
1015.519231,0.049324,0.001000,0.001000,0.001000,0.001000,0.001000
1015.538462,0.049514,0.001000,0.001000,0.001000,0.001000,0.001000
1015.557692,0.049673,0.001000,0.001000,0.001000,0.001000,0.001000
1015.576923,0.049801,0.001000,0.001000,0.001000,0.001000,0.001000
1015.596154,0.049897,0.001000,0.001000,0.001000,0.001000,0.001000
1015.615385,0.049962,0.001000,0.001000,0.001000,0.001000,0.001000
1015.634615,0.049995,0.001000,0.001000,0.001000,0.001000,0.001000
1015.653846,0.049997,0.001000,0.001000,0.001000,0.001000,0.001000
1015.673077,0.049967,0.001000,0.001000,0.001000,0.001000,0.001000
1015.692308,0.049906,0.001000,0.001000,0.001000,0.001000,0.001000
1015.711538,0.049814,0.001000,0.001000,0.001000,0.001000,0.001000
1015.730769,0.049690,0.001000,0.001000,0.001000,0.001000,0.001000
1015.750000,0.049534,0.001000,0.001000,0.001000,0.001000,0.001000
1015.769231,0.049348,0.001000,0.001000,0.001000,0.001000,0.001000
1015.788462,0.049130,0.001000,0.001000,0.001000,0.001000,0.001000
1015.807692,0.048882,0.001000,0.001000,0.001000,0.001000,0.001000
1015.826923,0.048603,0.001000,0.001000,0.001000,0.001000,0.001000
1015.846154,0.048293,0.001000,0.001000,0.001000,0.001000,0.001000
1015.865385,0.047952,0.001000,0.001000,0.001000,0.001000,0.001000
1015.884615,0.047582,0.001000,0.001000,0.001000,0.001000,0.001000
1015.903846,0.047181,0.001000,0.001000,0.001000,0.001000,0.001000
1015.923077,0.046751,0.001000,0.001000,0.001000,0.001000,0.001000
1015.942308,0.046292,0.001000,0.001000,0.001000,0.001000,0.001000
1015.961538,0.045803,0.001000,0.001000,0.001000,0.001000,0.001000
1015.980769,0.045285,0.001000,0.001000,0.001000,0.001000,0.001000
1016.000000,0.044739,0.001000,0.001000,0.001000,0.001000,0.001000
1016.019231,0.044164,0.001000,0.001000,0.001000,0.001000,0.001000
1016.038462,0.043562,0.001000,0.001000,0.001000,0.001000,0.001000
1016.057692,0.042932,0.001000,0.001000,0.001000,0.001000,0.001000
1016.076923,0.042276,0.001000,0.001000,0.001000,0.001000,0.001000
1016.096154,0.041592,0.001000,0.001000,0.001000,0.001000,0.001000
1016.115385,0.040883,0.001000,0.001000,0.001000,0.001000,0.001000
1016.134615,0.040147,0.001000,0.001000,0.001000,0.001000,0.001000
1016.153846,0.039387,0.001000,0.001000,0.001000,0.001000,0.001000
1016.173077,0.038601,0.001000,0.001000,0.001000,0.001000,0.001000
1016.192308,0.037792,0.001000,0.001000,0.001000,0.001000,0.001000
1016.211538,0.036958,0.001000,0.001000,0.001000,0.001000,0.001000
1016.230769,0.036101,0.001000,0.001000,0.001000,0.001000,0.001000
1016.250000,0.035222,0.001000,0.001000,0.001000,0.001000,0.001000
1016.269231,0.034320,0.001000,0.001000,0.001000,0.001000,0.001000
1016.288462,0.033397,0.001000,0.001000,0.001000,0.001000,0.001000
1016.307692,0.032452,0.001000,0.001000,0.001000,0.001000,0.001000
1016.326923,0.031487,0.001000,0.001000,0.001000,0.001000,0.001000
1016.346154,0.030503,0.001000,0.001000,0.001000,0.001000,0.001000
1016.365385,0.029499,0.001000,0.001000,0.001000,0.001000,0.001000
1016.384615,0.028476,0.001000,0.001000,0.001000,0.001000,0.001000
1016.403846,0.027436,0.001000,0.001000,0.001000,0.001000,0.001000
1016.423077,0.026378,0.001000,0.001000,0.001000,0.001000,0.001000
1016.442308,0.025304,0.001000,0.001000,0.001000,0.001000,0.001000
1016.461538,0.024213,0.001000,0.001000,0.001000,0.001000,0.001000
1016.480769,0.023108,0.001000,0.001000,0.001000,0.001000,0.001000
1016.500000,0.021988,0.001000,0.001000,0.001000,0.001000,0.001000
1016.519231,0.020854,0.001000,0.001000,0.001000,0.001000,0.001000
1016.538462,0.019707,0.001000,0.001000,0.001000,0.001000,0.001000
1016.557692,0.018547,0.001000,0.001000,0.001000,0.001000,0.001000
1016.576923,0.017376,0.001000,0.001000,0.001000,0.001000,0.001000
1016.596154,0.016194,0.001000,0.001000,0.001000,0.001000,0.001000
1016.615385,0.015002,0.001000,0.001000,0.001000,0.001000,0.001000
1016.634615,0.013800,0.001000,0.001000,0.001000,0.001000,0.001000
1016.653846,0.012589,0.001000,0.001000,0.001000,0.001000,0.001000
1016.673077,0.011371,0.001000,0.001000,0.001000,0.001000,0.001000
1016.692308,0.010145,0.001000,0.001000,0.001000,0.001000,0.001000
1016.711538,0.008913,0.001000,0.001000,0.001000,0.001000,0.001000
1016.730769,0.007676,0.001000,0.001000,0.001000,0.001000,0.001000
1016.750000,0.006433,0.001000,0.001000,0.001000,0.001000,0.001000
1016.769231,0.005187,0.001000,0.001000,0.001000,0.001000,0.001000
1016.788462,0.003937,0.001000,0.001000,0.001000,0.001000,0.001000
1016.807692,0.002685,0.001000,0.001000,0.001000,0.001000,0.001000
1016.826923,0.001431,0.001000,0.001000,0.001000,0.001000,0.001000
1016.846154,0.000176,0.001000,0.001000,0.001000,0.001000,0.001000
1016.865385,-0.001079,0.001000,0.001000,0.001000,0.001000,0.001000
1016.884615,-0.002333,0.001000,0.001000,0.001000,0.001000,0.001000
1016.903846,-0.003586,0.001000,0.001000,0.001000,0.001000,0.001000
1016.923077,-0.004836,0.001000,0.001000,0.001000,0.001000,0.001000
1016.942308,-0.006084,0.001000,0.001000,0.001000,0.001000,0.001000
1016.961538,-0.007327,0.001000,0.001000,0.001000,0.001000,0.001000
1016.980769,-0.008566,0.001000,0.001000,0.001000,0.001000,0.001000
1017.000000,-0.009800,0.001000,0.001000,0.001000,0.001000,0.001000
1017.019231,-0.011027,0.001000,0.001000,0.001000,0.001000,0.001000
1017.038462,-0.012248,0.001000,0.001000,0.001000,0.001000,0.001000
1017.057692,-0.013461,0.001000,0.001000,0.001000,0.001000,0.001000
1017.076923,-0.014665,0.001000,0.001000,0.001000,0.001000,0.001000
1017.096154,-0.015860,0.001000,0.001000,0.001000,0.001000,0.001000
1017.115385,-0.017045,0.001000,0.001000,0.001000,0.001000,0.001000
1017.134615,-0.018219,0.001000,0.001000,0.001000,0.001000,0.001000
1017.153846,-0.019382,0.001000,0.001000,0.001000,0.001000,0.001000
1017.173077,-0.020533,0.001000,0.001000,0.001000,0.001000,0.001000
1017.192308,-0.021671,0.001000,0.001000,0.001000,0.001000,0.001000
1017.211538,-0.022795,0.001000,0.001000,0.001000,0.001000,0.001000
1017.230769,-0.023904,0.001000,0.001000,0.001000,0.001000,0.001000
1017.250000,-0.024999,0.001000,0.001000,0.001000,0.001000,0.001000
1017.269231,-0.026078,0.001000,0.001000,0.001000,0.001000,0.001000
1017.288462,-0.027140,0.001000,0.001000,0.001000,0.001000,0.001000
1017.307692,-0.028186,0.001000,0.001000,0.001000,0.001000,0.001000
1017.326923,-0.029213,0.001000,0.001000,0.001000,0.001000,0.001000
1017.346154,-0.030223,0.001000,0.001000,0.001000,0.001000,0.001000
1017.365385,-0.031213,0.001000,0.001000,0.001000,0.001000,0.001000
1017.384615,-0.032183,0.001000,0.001000,0.001000,0.001000,0.001000
1017.403846,-0.033133,0.001000,0.001000,0.001000,0.001000,0.001000
1017.423077,-0.034063,0.001000,0.001000,0.001000,0.001000,0.001000
1017.442308,-0.034971,0.001000,0.001000,0.001000,0.001000,0.001000
1017.461538,-0.035857,0.001000,0.001000,0.001000,0.001000,0.001000
1017.480769,-0.036720,0.001000,0.001000,0.001000,0.001000,0.001000
1017.500000,-0.037560,0.001000,0.001000,0.001000,0.001000,0.001000
1017.519231,-0.038376,0.001000,0.001000,0.001000,0.001000,0.001000
1017.538462,-0.039169,0.001000,0.001000,0.001000,0.001000,0.001000
1017.557692,-0.039936,0.001000,0.001000,0.001000,0.001000,0.001000
1017.576923,-0.040679,0.001000,0.001000,0.001000,0.001000,0.001000
1017.596154,-0.041396,0.001000,0.001000,0.001000,0.001000,0.001000
1017.615385,-0.042086,0.001000,0.001000,0.001000,0.001000,0.001000
1017.634615,-0.042751,0.001000,0.001000,0.001000,0.001000,0.001000
1017.653846,-0.043388,0.001000,0.001000,0.001000,0.001000,0.001000
1017.673077,-0.043998,0.001000,0.001000,0.001000,0.001000,0.001000
1017.692308,-0.044580,0.001000,0.001000,0.001000,0.001000,0.001000
1017.711538,-0.045134,0.001000,0.001000,0.001000,0.001000,0.001000
1017.730769,-0.045660,0.001000,0.001000,0.001000,0.001000,0.001000
1017.750000,-0.046157,0.001000,0.001000,0.001000,0.001000,0.001000
1017.769231,-0.046625,0.001000,0.001000,0.001000,0.001000,0.001000
1017.788462,-0.047064,0.001000,0.001000,0.001000,0.001000,0.001000
1017.807692,-0.047472,0.001000,0.001000,0.001000,0.001000,0.001000
1017.826923,-0.047851,0.001000,0.001000,0.001000,0.001000,0.001000
1017.846154,-0.048200,0.001000,0.001000,0.001000,0.001000,0.001000
1017.865385,-0.048519,0.001000,0.001000,0.001000,0.001000,0.001000
1017.884615,-0.048807,0.001000,0.001000,0.001000,0.001000,0.001000
1017.903846,-0.049064,0.001000,0.001000,0.001000,0.001000,0.001000
1017.923077,-0.049290,0.001000,0.001000,0.001000,0.001000,0.001000
1017.942308,-0.049485,0.001000,0.001000,0.001000,0.001000,0.001000
1017.961538,-0.049649,0.001000,0.001000,0.001000,0.001000,0.001000
1017.980769,-0.049782,0.001000,0.001000,0.001000,0.001000,0.001000
1018.000000,-0.049883,0.001000,0.001000,0.001000,0.001000,0.001000
1018.019231,-0.049953,0.001000,0.001000,0.001000,0.001000,0.001000
1018.038462,-0.049992,0.001000,0.001000,0.001000,0.001000,0.001000
1018.057692,-0.049999,0.001000,0.001000,0.001000,0.001000,0.001000
1018.076923,-0.049974,0.001000,0.001000,0.001000,0.001000,0.001000
1018.096154,-0.049918,0.001000,0.001000,0.001000,0.001000,0.001000
1018.115385,-0.049831,0.001000,0.001000,0.001000,0.001000,0.001000
1018.134615,-0.049712,0.001000,0.001000,0.001000,0.001000,0.001000
1018.153846,-0.049562,0.001000,0.001000,0.001000,0.001000,0.001000
1018.173077,-0.049380,0.001000,0.001000,0.001000,0.001000,0.001000
1018.192308,-0.049168,0.001000,0.001000,0.001000,0.001000,0.001000
1018.211538,-0.048925,0.001000,0.001000,0.001000,0.001000,0.001000
1018.230769,-0.048650,0.001000,0.001000,0.001000,0.001000,0.001000
1018.250000,-0.048345,0.001000,0.001000,0.001000,0.001000,0.001000
1018.269231,-0.048010,0.001000,0.001000,0.001000,0.001000,0.001000
1018.288462,-0.047644,0.001000,0.001000,0.001000,0.001000,0.001000
1018.307692,-0.047249,0.001000,0.001000,0.001000,0.001000,0.001000
1018.326923,-0.046823,0.001000,0.001000,0.001000,0.001000,0.001000
1018.346154,-0.046368,0.001000,0.001000,0.001000,0.001000,0.001000
1018.365385,-0.045884,0.001000,0.001000,0.001000,0.001000,0.001000
1018.384615,-0.045371,0.001000,0.001000,0.001000,0.001000,0.001000
1018.403846,-0.044830,0.001000,0.001000,0.001000,0.001000,0.001000
1018.423077,-0.044260,0.001000,0.001000,0.001000,0.001000,0.001000
1018.442308,-0.043662,0.001000,0.001000,0.001000,0.001000,0.001000
1018.461538,-0.043037,0.001000,0.001000,0.001000,0.001000,0.001000
1018.480769,-0.042385,0.001000,0.001000,0.001000,0.001000,0.001000
1018.500000,-0.041705,0.001000,0.001000,0.001000,0.001000,0.001000
1018.519231,-0.041000,0.001000,0.001000,0.001000,0.001000,0.001000
1018.538462,-0.040269,0.001000,0.001000,0.001000,0.001000,0.001000
1018.557692,-0.039512,0.001000,0.001000,0.001000,0.001000,0.001000
1018.576923,-0.038731,0.001000,0.001000,0.001000,0.001000,0.001000
1018.596154,-0.037925,0.001000,0.001000,0.001000,0.001000,0.001000
1018.615385,-0.037096,0.001000,0.001000,0.001000,0.001000,0.001000
1018.634615,-0.036242,0.001000,0.001000,0.001000,0.001000,0.001000
1018.653846,-0.035367,0.001000,0.001000,0.001000,0.001000,0.001000
1018.673077,-0.034468,0.001000,0.001000,0.001000,0.001000,0.001000
1018.692308,-0.033548,0.001000,0.001000,0.001000,0.001000,0.001000
1018.711538,-0.032607,0.001000,0.001000,0.001000,0.001000,0.001000
1018.730769,-0.031646,0.001000,0.001000,0.001000,0.001000,0.001000
1018.750000,-0.030664,0.001000,0.001000,0.001000,0.001000,0.001000
1018.769231,-0.029664,0.001000,0.001000,0.001000,0.001000,0.001000
1018.788462,-0.028644,0.001000,0.001000,0.001000,0.001000,0.001000
1018.807692,-0.027606,0.001000,0.001000,0.001000,0.001000,0.001000
1018.826923,-0.026551,0.001000,0.001000,0.001000,0.001000,0.001000
1018.846154,-0.025480,0.001000,0.001000,0.001000,0.001000,0.001000
1018.865385,-0.024392,0.001000,0.001000,0.001000,0.001000,0.001000
1018.884615,-0.023289,0.001000,0.001000,0.001000,0.001000,0.001000
1018.903846,-0.022171,0.001000,0.001000,0.001000,0.001000,0.001000
1018.923077,-0.021039,0.001000,0.001000,0.001000,0.001000,0.001000
1018.942308,-0.019894,0.001000,0.001000,0.001000,0.001000,0.001000
1018.961538,-0.018737,0.001000,0.001000,0.001000,0.001000,0.001000
1018.980769,-0.017568,0.001000,0.001000,0.001000,0.001000,0.001000
1019.000000,-0.016387,0.001000,0.001000,0.001000,0.001000,0.001000
1019.019231,-0.015196,0.001000,0.001000,0.001000,0.001000,0.001000
1019.038462,-0.013996,0.001000,0.001000,0.001000,0.001000,0.001000
1019.057692,-0.012787,0.001000,0.001000,0.001000,0.001000,0.001000
1019.076923,-0.011570,0.001000,0.001000,0.001000,0.001000,0.001000
1019.096154,-0.010345,0.001000,0.001000,0.001000,0.001000,0.001000
1019.115385,-0.009114,0.001000,0.001000,0.001000,0.001000,0.001000
1019.134615,-0.007878,0.001000,0.001000,0.001000,0.001000,0.001000
1019.153846,-0.006636,0.001000,0.001000,0.001000,0.001000,0.001000
1019.173077,-0.005390,0.001000,0.001000,0.001000,0.001000,0.001000
1019.192308,-0.004141,0.001000,0.001000,0.001000,0.001000,0.001000
1019.211538,-0.002889,0.001000,0.001000,0.001000,0.001000,0.001000
1019.230769,-0.001635,0.001000,0.001000,0.001000,0.001000,0.001000
1019.250000,-0.000381,0.001000,0.001000,0.001000,0.001000,0.001000
1019.269231,0.000874,0.001000,0.001000,0.001000,0.001000,0.001000
1019.288462,0.002129,0.001000,0.001000,0.001000,0.001000,0.001000
1019.307692,0.003382,0.001000,0.001000,0.001000,0.001000,0.001000
1019.326923,0.004633,0.001000,0.001000,0.001000,0.001000,0.001000
1019.346154,0.005881,0.001000,0.001000,0.001000,0.001000,0.001000
1019.365385,0.007125,0.001000,0.001000,0.001000,0.001000,0.001000
1019.384615,0.008365,0.001000,0.001000,0.001000,0.001000,0.001000
1019.403846,0.009599,0.001000,0.001000,0.001000,0.001000,0.001000
1019.423077,0.010828,0.001000,0.001000,0.001000,0.001000,0.001000
1019.442308,0.012049,0.001000,0.001000,0.001000,0.001000,0.001000
1019.461538,0.013264,0.001000,0.001000,0.001000,0.001000,0.001000
1019.480769,0.014469,0.001000,0.001000,0.001000,0.001000,0.001000
1019.500000,0.015666,0.001000,0.001000,0.001000,0.001000,0.001000
1019.519231,0.016853,0.001000,0.001000,0.001000,0.001000,0.001000
1019.538462,0.018029,0.001000,0.001000,0.001000,0.001000,0.001000
1019.557692,0.019194,0.001000,0.001000,0.001000,0.001000,0.001000
1019.576923,0.020346,0.001000,0.001000,0.001000,0.001000,0.001000
1019.596154,0.021486,0.001000,0.001000,0.001000,0.001000,0.001000
1019.615385,0.022612,0.001000,0.001000,0.001000,0.001000,0.001000
1019.634615,0.023725,0.001000,0.001000,0.001000,0.001000,0.001000
1019.653846,0.024822,0.001000,0.001000,0.001000,0.001000,0.001000
1019.673077,0.025903,0.001000,0.001000,0.001000,0.001000,0.001000
1019.692308,0.026968,0.001000,0.001000,0.001000,0.001000,0.001000
1019.711538,0.028017,0.001000,0.001000,0.001000,0.001000,0.001000
1019.730769,0.029047,0.001000,0.001000,0.001000,0.001000,0.001000
1019.750000,0.030059,0.001000,0.001000,0.001000,0.001000,0.001000
1019.769231,0.031053,0.001000,0.001000,0.001000,0.001000,0.001000
1019.788462,0.032026,0.001000,0.001000,0.001000,0.001000,0.001000
1019.807692,0.032980,0.001000,0.001000,0.001000,0.001000,0.001000
1019.826923,0.033913,0.001000,0.001000,0.001000,0.001000,0.001000
1019.846154,0.034824,0.001000,0.001000,0.001000,0.001000,0.001000
1019.865385,0.035714,0.001000,0.001000,0.001000,0.001000,0.001000
1019.884615,0.036581,0.001000,0.001000,0.001000,0.001000,0.001000
1019.903846,0.037425,0.001000,0.001000,0.001000,0.001000,0.001000
1019.923077,0.038245,0.001000,0.001000,0.001000,0.001000,0.001000
1019.942308,0.039041,0.001000,0.001000,0.001000,0.001000,0.001000
1019.961538,0.039813,0.001000,0.001000,0.001000,0.001000,0.001000
1019.980769,0.040560,0.001000,0.001000,0.001000,0.001000,0.001000
1020.000000,0.041281,0.001000,0.001000,0.001000,0.001000,0.001000
1020.019231,0.041976,0.001000,0.001000,0.001000,0.001000,0.001000
1020.038462,0.042644,0.001000,0.001000,0.001000,0.001000,0.001000
1020.057692,0.043286,0.001000,0.001000,0.001000,0.001000,0.001000
1020.076923,0.043900,0.001000,0.001000,0.001000,0.001000,0.001000
1020.096154,0.044487,0.001000,0.001000,0.001000,0.001000,0.001000
1020.115385,0.045046,0.001000,0.001000,0.001000,0.001000,0.001000
1020.134615,0.045576,0.001000,0.001000,0.001000,0.001000,0.001000
1020.153846,0.046078,0.001000,0.001000,0.001000,0.001000,0.001000
1020.173077,0.046551,0.001000,0.001000,0.001000,0.001000,0.001000
1020.192308,0.046994,0.001000,0.001000,0.001000,0.001000,0.001000
1020.211538,0.047408,0.001000,0.001000,0.001000,0.001000,0.001000
1020.230769,0.047792,0.001000,0.001000,0.001000,0.001000,0.001000
1020.250000,0.048145,0.001000,0.001000,0.001000,0.001000,0.001000
1020.269231,0.048469,0.001000,0.001000,0.001000,0.001000,0.001000
1020.288462,0.048762,0.001000,0.001000,0.001000,0.001000,0.001000
1020.307692,0.049024,0.001000,0.001000,0.001000,0.001000,0.001000
1020.326923,0.049255,0.001000,0.001000,0.001000,0.001000,0.001000
1020.346154,0.049456,0.001000,0.001000,0.001000,0.001000,0.001000
1020.365385,0.049625,0.001000,0.001000,0.001000,0.001000,0.001000
1020.384615,0.049762,0.001000,0.001000,0.001000,0.001000,0.001000
1020.403846,0.049869,0.001000,0.001000,0.001000,0.001000,0.001000
1020.423077,0.049944,0.001000,0.001000,0.001000,0.001000,0.001000
1020.442308,0.049988,0.001000,0.001000,0.001000,0.001000,0.001000
1020.461538,0.050000,0.001000,0.001000,0.001000,0.001000,0.001000
1020.480769,0.049980,0.001000,0.001000,0.001000,0.001000,0.001000
1020.500000,0.049930,0.001000,0.001000,0.001000,0.001000,0.001000
1020.519231,0.049847,0.001000,0.001000,0.001000,0.001000,0.001000
1020.538462,0.049734,0.001000,0.001000,0.001000,0.001000,0.001000
1020.557692,0.049588,0.001000,0.001000,0.001000,0.001000,0.001000
1020.576923,0.049412,0.001000,0.001000,0.001000,0.001000,0.001000
1020.596154,0.049205,0.001000,0.001000,0.001000,0.001000,0.001000
1020.615385,0.048966,0.001000,0.001000,0.001000,0.001000,0.001000
1020.634615,0.048697,0.001000,0.001000,0.001000,0.001000,0.001000
1020.653846,0.048397,0.001000,0.001000,0.001000,0.001000,0.001000
1020.673077,0.048067,0.001000,0.001000,0.001000,0.001000,0.001000
1020.692308,0.047706,0.001000,0.001000,0.001000,0.001000,0.001000
1020.711538,0.047315,0.001000,0.001000,0.001000,0.001000,0.001000
1020.730769,0.046895,0.001000,0.001000,0.001000,0.001000,0.001000
1020.750000,0.046445,0.001000,0.001000,0.001000,0.001000,0.001000
1020.769231,0.045965,0.001000,0.001000,0.001000,0.001000,0.001000
1020.788462,0.045457,0.001000,0.001000,0.001000,0.001000,0.001000
1020.807692,0.044920,0.001000,0.001000,0.001000,0.001000,0.001000
1020.826923,0.044355,0.001000,0.001000,0.001000,0.001000,0.001000
1020.846154,0.043761,0.001000,0.001000,0.001000,0.001000,0.001000
1020.865385,0.043141,0.001000,0.001000,0.001000,0.001000,0.001000
1020.884615,0.042493,0.001000,0.001000,0.001000,0.001000,0.001000
1020.903846,0.041818,0.001000,0.001000,0.001000,0.001000,0.001000
1020.923077,0.041117,0.001000,0.001000,0.001000,0.001000,0.001000
1020.942308,0.040390,0.001000,0.001000,0.001000,0.001000,0.001000
1020.961538,0.039637,0.001000,0.001000,0.001000,0.001000,0.001000
1020.980769,0.038860,0.001000,0.001000,0.001000,0.001000,0.001000
1021.000000,0.038058,0.001000,0.001000,0.001000,0.001000,0.001000
1021.019231,0.037232,0.001000,0.001000,0.001000,0.001000,0.001000
1021.038462,0.036383,0.001000,0.001000,0.001000,0.001000,0.001000
1021.057692,0.035511,0.001000,0.001000,0.001000,0.001000,0.001000
1021.076923,0.034616,0.001000,0.001000,0.001000,0.001000,0.001000
1021.096154,0.033700,0.001000,0.001000,0.001000,0.001000,0.001000
1021.115385,0.032762,0.001000,0.001000,0.001000,0.001000,0.001000
1021.134615,0.031804,0.001000,0.001000,0.001000,0.001000,0.001000
1021.153846,0.030826,0.001000,0.001000,0.001000,0.001000,0.001000
1021.173077,0.029828,0.001000,0.001000,0.001000,0.001000,0.001000
1021.192308,0.028811,0.001000,0.001000,0.001000,0.001000,0.001000
1021.211538,0.027777,0.001000,0.001000,0.001000,0.001000,0.001000
1021.230769,0.026725,0.001000,0.001000,0.001000,0.001000,0.001000
1021.250000,0.025656,0.001000,0.001000,0.001000,0.001000,0.001000
1021.269231,0.024570,0.001000,0.001000,0.001000,0.001000,0.001000
1021.288462,0.023470,0.001000,0.001000,0.001000,0.001000,0.001000
1021.307692,0.022354,0.001000,0.001000,0.001000,0.001000,0.001000
1021.326923,0.021225,0.001000,0.001000,0.001000,0.001000,0.001000
1021.346154,0.020082,0.001000,0.001000,0.001000,0.001000,0.001000
1021.365385,0.018926,0.001000,0.001000,0.001000,0.001000,0.001000
1021.384615,0.017759,0.001000,0.001000,0.001000,0.001000,0.001000
1021.403846,0.016580,0.001000,0.001000,0.001000,0.001000,0.001000
1021.423077,0.015391,0.001000,0.001000,0.001000,0.001000,0.001000
1021.442308,0.014192,0.001000,0.001000,0.001000,0.001000,0.001000
1021.461538,0.012985,0.001000,0.001000,0.001000,0.001000,0.001000
1021.480769,0.011769,0.001000,0.001000,0.001000,0.001000,0.001000
1021.500000,0.010545,0.001000,0.001000,0.001000,0.001000,0.001000
1021.519231,0.009315,0.001000,0.001000,0.001000,0.001000,0.001000
1021.538462,0.008080,0.001000,0.001000,0.001000,0.001000,0.001000
1021.557692,0.006839,0.001000,0.001000,0.001000,0.001000,0.001000
1021.576923,0.005593,0.001000,0.001000,0.001000,0.001000,0.001000
1021.596154,0.004345,0.001000,0.001000,0.001000,0.001000,0.001000
1021.615385,0.003093,0.001000,0.001000,0.001000,0.001000,0.001000
1021.634615,0.001840,0.001000,0.001000,0.001000,0.001000,0.001000
1021.653846,0.000585,0.001000,0.001000,0.001000,0.001000,0.001000
1021.673077,-0.000670,0.001000,0.001000,0.001000,0.001000,0.001000
1021.692308,-0.001924,0.001000,0.001000,0.001000,0.001000,0.001000
1021.711538,-0.003178,0.001000,0.001000,0.001000,0.001000,0.001000
1021.730769,-0.004429,0.001000,0.001000,0.001000,0.001000,0.001000
1021.750000,-0.005678,0.001000,0.001000,0.001000,0.001000,0.001000
1021.769231,-0.006923,0.001000,0.001000,0.001000,0.001000,0.001000
1021.788462,-0.008163,0.001000,0.001000,0.001000,0.001000,0.001000
1021.807692,-0.009399,0.001000,0.001000,0.001000,0.001000,0.001000
1021.826923,-0.010628,0.001000,0.001000,0.001000,0.001000,0.001000
1021.846154,-0.011851,0.001000,0.001000,0.001000,0.001000,0.001000
1021.865385,-0.013066,0.001000,0.001000,0.001000,0.001000,0.001000
1021.884615,-0.014273,0.001000,0.001000,0.001000,0.001000,0.001000
1021.903846,-0.015472,0.001000,0.001000,0.001000,0.001000,0.001000
1021.923077,-0.016660,0.001000,0.001000,0.001000,0.001000,0.001000
1021.942308,-0.017838,0.001000,0.001000,0.001000,0.001000,0.001000
1021.961538,-0.019005,0.001000,0.001000,0.001000,0.001000,0.001000
1021.980769,-0.020159,0.001000,0.001000,0.001000,0.001000,0.001000
1022.000000,-0.021301,0.001000,0.001000,0.001000,0.001000,0.001000
1022.019231,-0.022430,0.001000,0.001000,0.001000,0.001000,0.001000
1022.038462,-0.023544,0.001000,0.001000,0.001000,0.001000,0.001000
1022.057692,-0.024644,0.001000,0.001000,0.001000,0.001000,0.001000
1022.076923,-0.025728,0.001000,0.001000,0.001000,0.001000,0.001000
1022.096154,-0.026796,0.001000,0.001000,0.001000,0.001000,0.001000
1022.115385,-0.027847,0.001000,0.001000,0.001000,0.001000,0.001000
1022.134615,-0.028880,0.001000,0.001000,0.001000,0.001000,0.001000
1022.153846,-0.029896,0.001000,0.001000,0.001000,0.001000,0.001000
1022.173077,-0.030892,0.001000,0.001000,0.001000,0.001000,0.001000
1022.192308,-0.031869,0.001000,0.001000,0.001000,0.001000,0.001000
1022.211538,-0.032826,0.001000,0.001000,0.001000,0.001000,0.001000
1022.230769,-0.033762,0.001000,0.001000,0.001000,0.001000,0.001000
1022.250000,-0.034677,0.001000,0.001000,0.001000,0.001000,0.001000
1022.269231,-0.035570,0.001000,0.001000,0.001000,0.001000,0.001000
1022.288462,-0.036441,0.001000,0.001000,0.001000,0.001000,0.001000
1022.307692,-0.037289,0.001000,0.001000,0.001000,0.001000,0.001000
1022.326923,-0.038113,0.001000,0.001000,0.001000,0.001000,0.001000
1022.346154,-0.038913,0.001000,0.001000,0.001000,0.001000,0.001000
1022.365385,-0.039689,0.001000,0.001000,0.001000,0.001000,0.001000
1022.384615,-0.040440,0.001000,0.001000,0.001000,0.001000,0.001000
1022.403846,-0.041165,0.001000,0.001000,0.001000,0.001000,0.001000
1022.423077,-0.041864,0.001000,0.001000,0.001000,0.001000,0.001000
1022.442308,-0.042537,0.001000,0.001000,0.001000,0.001000,0.001000
1022.461538,-0.043183,0.001000,0.001000,0.001000,0.001000,0.001000
1022.480769,-0.043802,0.001000,0.001000,0.001000,0.001000,0.001000
1022.500000,-0.044394,0.001000,0.001000,0.001000,0.001000,0.001000
1022.519231,-0.044957,0.001000,0.001000,0.001000,0.001000,0.001000
1022.538462,-0.045492,0.001000,0.001000,0.001000,0.001000,0.001000
1022.557692,-0.045998,0.001000,0.001000,0.001000,0.001000,0.001000
1022.576923,-0.046476,0.001000,0.001000,0.001000,0.001000,0.001000
1022.596154,-0.046924,0.001000,0.001000,0.001000,0.001000,0.001000
1022.615385,-0.047342,0.001000,0.001000,0.001000,0.001000,0.001000
1022.634615,-0.047731,0.001000,0.001000,0.001000,0.001000,0.001000
1022.653846,-0.048090,0.001000,0.001000,0.001000,0.001000,0.001000
1022.673077,-0.048418,0.001000,0.001000,0.001000,0.001000,0.001000
1022.692308,-0.048716,0.001000,0.001000,0.001000,0.001000,0.001000
1022.711538,-0.048983,0.001000,0.001000,0.001000,0.001000,0.001000
1022.730769,-0.049220,0.001000,0.001000,0.001000,0.001000,0.001000
1022.750000,-0.049425,0.001000,0.001000,0.001000,0.001000,0.001000
1022.769231,-0.049599,0.001000,0.001000,0.001000,0.001000,0.001000
1022.788462,-0.049742,0.001000,0.001000,0.001000,0.001000,0.001000
1022.807692,-0.049854,0.001000,0.001000,0.001000,0.001000,0.001000
1022.826923,-0.049934,0.001000,0.001000,0.001000,0.001000,0.001000
1022.846154,-0.049983,0.001000,0.001000,0.001000,0.001000,0.001000
1022.865385,-0.050000,0.001000,0.001000,0.001000,0.001000,0.001000
1022.884615,-0.049986,0.001000,0.001000,0.001000,0.001000,0.001000
1022.903846,-0.049940,0.001000,0.001000,0.001000,0.001000,0.001000
1022.923077,-0.049863,0.001000,0.001000,0.001000,0.001000,0.001000
1022.942308,-0.049754,0.001000,0.001000,0.001000,0.001000,0.001000
1022.961538,-0.049614,0.001000,0.001000,0.001000,0.001000,0.001000
1022.980769,-0.049443,0.001000,0.001000,0.001000,0.001000,0.001000
1023.000000,-0.049241,0.001000,0.001000,0.001000,0.001000,0.001000
1023.019231,-0.049007,0.001000,0.001000,0.001000,0.001000,0.001000
1023.038462,-0.048743,0.001000,0.001000,0.001000,0.001000,0.001000
1023.057692,-0.048448,0.001000,0.001000,0.001000,0.001000,0.001000
1023.076923,-0.048123,0.001000,0.001000,0.001000,0.001000,0.001000
1023.096154,-0.047767,0.001000,0.001000,0.001000,0.001000,0.001000
1023.115385,-0.047381,0.001000,0.001000,0.001000,0.001000,0.001000
1023.134615,-0.046965,0.001000,0.001000,0.001000,0.001000,0.001000
1023.153846,-0.046520,0.001000,0.001000,0.001000,0.001000,0.001000
1023.173077,-0.046045,0.001000,0.001000,0.001000,0.001000,0.001000
1023.192308,-0.045542,0.001000,0.001000,0.001000,0.001000,0.001000
1023.211538,-0.045009,0.001000,0.001000,0.001000,0.001000,0.001000
1023.230769,-0.044449,0.001000,0.001000,0.001000,0.001000,0.001000
1023.250000,-0.043860,0.001000,0.001000,0.001000,0.001000,0.001000
1023.269231,-0.043244,0.001000,0.001000,0.001000,0.001000,0.001000
1023.288462,-0.042600,0.001000,0.001000,0.001000,0.001000,0.001000
1023.307692,-0.041930,0.001000,0.001000,0.001000,0.001000,0.001000
1023.326923,-0.041233,0.001000,0.001000,0.001000,0.001000,0.001000
1023.346154,-0.040510,0.001000,0.001000,0.001000,0.001000,0.001000
1023.365385,-0.039762,0.001000,0.001000,0.001000,0.001000,0.001000
1023.384615,-0.038988,0.001000,0.001000,0.001000,0.001000,0.001000
1023.403846,-0.038190,0.001000,0.001000,0.001000,0.001000,0.001000
1023.423077,-0.037368,0.001000,0.001000,0.001000,0.001000,0.001000
1023.442308,-0.036523,0.001000,0.001000,0.001000,0.001000,0.001000
1023.461538,-0.035654,0.001000,0.001000,0.001000,0.001000,0.001000
1023.480769,-0.034763,0.001000,0.001000,0.001000,0.001000,0.001000
1023.500000,-0.033851,0.001000,0.001000,0.001000,0.001000,0.001000
1023.519231,-0.032916,0.001000,0.001000,0.001000,0.001000,0.001000
1023.538462,-0.031961,0.001000,0.001000,0.001000,0.001000,0.001000
1023.557692,-0.030986,0.001000,0.001000,0.001000,0.001000,0.001000
1023.576923,-0.029992,0.001000,0.001000,0.001000,0.001000,0.001000
1023.596154,-0.028978,0.001000,0.001000,0.001000,0.001000,0.001000
1023.615385,-0.027946,0.001000,0.001000,0.001000,0.001000,0.001000
1023.634615,-0.026897,0.001000,0.001000,0.001000,0.001000,0.001000
1023.653846,-0.025831,0.001000,0.001000,0.001000,0.001000,0.001000
1023.673077,-0.024748,0.001000,0.001000,0.001000,0.001000,0.001000
1023.692308,-0.023650,0.001000,0.001000,0.001000,0.001000,0.001000
1023.711538,-0.022537,0.001000,0.001000,0.001000,0.001000,0.001000
1023.730769,-0.021410,0.001000,0.001000,0.001000,0.001000,0.001000
1023.750000,-0.020269,0.001000,0.001000,0.001000,0.001000,0.001000
1023.769231,-0.019115,0.001000,0.001000,0.001000,0.001000,0.001000
1023.788462,-0.017950,0.001000,0.001000,0.001000,0.001000,0.001000
1023.807692,-0.016773,0.001000,0.001000,0.001000,0.001000,0.001000
1023.826923,-0.015586,0.001000,0.001000,0.001000,0.001000,0.001000
1023.846154,-0.014388,0.001000,0.001000,0.001000,0.001000,0.001000
1023.865385,-0.013182,0.001000,0.001000,0.001000,0.001000,0.001000
1023.884615,-0.011967,0.001000,0.001000,0.001000,0.001000,0.001000
1023.903846,-0.010745,0.001000,0.001000,0.001000,0.001000,0.001000
1023.923077,-0.009516,0.001000,0.001000,0.001000,0.001000,0.001000
1023.942308,-0.008281,0.001000,0.001000,0.001000,0.001000,0.001000
1023.961538,-0.007041,0.001000,0.001000,0.001000,0.001000,0.001000
1023.980769,-0.005797,0.001000,0.001000,0.001000,0.001000,0.001000
1024.000000,-0.004548,0.001000,0.001000,0.001000,0.001000,0.001000
1024.019231,-0.003297,0.001000,0.001000,0.001000,0.001000,0.001000
1024.038462,-0.002044,0.001000,0.001000,0.001000,0.001000,0.001000
1024.057692,-0.000790,0.001000,0.001000,0.001000,0.001000,0.001000
1024.076923,0.000465,0.001000,0.001000,0.001000,0.001000,0.001000
1024.096154,0.001720,0.001000,0.001000,0.001000,0.001000,0.001000
1024.115385,0.002974,0.001000,0.001000,0.001000,0.001000,0.001000
1024.134615,0.004225,0.001000,0.001000,0.001000,0.001000,0.001000
1024.153846,0.005474,0.001000,0.001000,0.001000,0.001000,0.001000
1024.173077,0.006720,0.001000,0.001000,0.001000,0.001000,0.001000
1024.192308,0.007961,0.001000,0.001000,0.001000,0.001000,0.001000
1024.211538,0.009198,0.001000,0.001000,0.001000,0.001000,0.001000
1024.230769,0.010428,0.001000,0.001000,0.001000,0.001000,0.001000
1024.250000,0.011652,0.001000,0.001000,0.001000,0.001000,0.001000
1024.269231,0.012869,0.001000,0.001000,0.001000,0.001000,0.001000
1024.288462,0.014077,0.001000,0.001000,0.001000,0.001000,0.001000
1024.307692,0.015277,0.001000,0.001000,0.001000,0.001000,0.001000
1024.326923,0.016467,0.001000,0.001000,0.001000,0.001000,0.001000
1024.346154,0.017647,0.001000,0.001000,0.001000,0.001000,0.001000
1024.365385,0.018815,0.001000,0.001000,0.001000,0.001000,0.001000
1024.384615,0.019972,0.001000,0.001000,0.001000,0.001000,0.001000
1024.403846,0.021116,0.001000,0.001000,0.001000,0.001000,0.001000
1024.423077,0.022247,0.001000,0.001000,0.001000,0.001000,0.001000
1024.442308,0.023364,0.001000,0.001000,0.001000,0.001000,0.001000
1024.461538,0.024466,0.001000,0.001000,0.001000,0.001000,0.001000
1024.480769,0.025553,0.001000,0.001000,0.001000,0.001000,0.001000
1024.500000,0.026623,0.001000,0.001000,0.001000,0.001000,0.001000
1024.519231,0.027677,0.001000,0.001000,0.001000,0.001000,0.001000
1024.538462,0.028713,0.001000,0.001000,0.001000,0.001000,0.001000
1024.557692,0.029732,0.001000,0.001000,0.001000,0.001000,0.001000
1024.576923,0.030731,0.001000,0.001000,0.001000,0.001000,0.001000
1024.596154,0.031711,0.001000,0.001000,0.001000,0.001000,0.001000
1024.615385,0.032672,0.001000,0.001000,0.001000,0.001000,0.001000
1024.634615,0.033611,0.001000,0.001000,0.001000,0.001000,0.001000
1024.653846,0.034530,0.001000,0.001000,0.001000,0.001000,0.001000
1024.673077,0.035426,0.001000,0.001000,0.001000,0.001000,0.001000
1024.692308,0.036301,0.001000,0.001000,0.001000,0.001000,0.001000
1024.711538,0.037152,0.001000,0.001000,0.001000,0.001000,0.001000
1024.730769,0.037980,0.001000,0.001000,0.001000,0.001000,0.001000
1024.750000,0.038785,0.001000,0.001000,0.001000,0.001000,0.001000
1024.769231,0.039564,0.001000,0.001000,0.001000,0.001000,0.001000
1024.788462,0.040319,0.001000,0.001000,0.001000,0.001000,0.001000
1024.807692,0.041048,0.001000,0.001000,0.001000,0.001000,0.001000
1024.826923,0.041752,0.001000,0.001000,0.001000,0.001000,0.001000
1024.846154,0.042429,0.001000,0.001000,0.001000,0.001000,0.001000
1024.865385,0.043080,0.001000,0.001000,0.001000,0.001000,0.001000
1024.884615,0.043703,0.001000,0.001000,0.001000,0.001000,0.001000
1024.903846,0.044299,0.001000,0.001000,0.001000,0.001000,0.001000
1024.923077,0.044867,0.001000,0.001000,0.001000,0.001000,0.001000
1024.942308,0.045407,0.001000,0.001000,0.001000,0.001000,0.001000
1024.961538,0.045918,0.001000,0.001000,0.001000,0.001000,0.001000
1024.980769,0.046400,0.001000,0.001000,0.001000,0.001000,0.001000
1025.000000,0.046853,0.001000,0.001000,0.001000,0.001000,0.001000
1025.019231,0.047276,0.001000,0.001000,0.001000,0.001000,0.001000
1025.038462,0.047670,0.001000,0.001000,0.001000,0.001000,0.001000
1025.057692,0.048034,0.001000,0.001000,0.001000,0.001000,0.001000
1025.076923,0.048367,0.001000,0.001000,0.001000,0.001000,0.001000
1025.096154,0.048670,0.001000,0.001000,0.001000,0.001000,0.001000
1025.115385,0.048942,0.001000,0.001000,0.001000,0.001000,0.001000
1025.134615,0.049183,0.001000,0.001000,0.001000,0.001000,0.001000
1025.153846,0.049394,0.001000,0.001000,0.001000,0.001000,0.001000
1025.173077,0.049573,0.001000,0.001000,0.001000,0.001000,0.001000
1025.192308,0.049721,0.001000,0.001000,0.001000,0.001000,0.001000
1025.211538,0.049838,0.001000,0.001000,0.001000,0.001000,0.001000
1025.230769,0.049923,0.001000,0.001000,0.001000,0.001000,0.001000
1025.250000,0.049977,0.001000,0.001000,0.001000,0.001000,0.001000
1025.269231,0.049999,0.001000,0.001000,0.001000,0.001000,0.001000
1025.288462,0.049990,0.001000,0.001000,0.001000,0.001000,0.001000
1025.307692,0.049950,0.001000,0.001000,0.001000,0.001000,0.001000
1025.326923,0.049878,0.001000,0.001000,0.001000,0.001000,0.001000
1025.346154,0.049774,0.001000,0.001000,0.001000,0.001000,0.001000
1025.365385,0.049639,0.001000,0.001000,0.001000,0.001000,0.001000
1025.384615,0.049473,0.001000,0.001000,0.001000,0.001000,0.001000
1025.403846,0.049276,0.001000,0.001000,0.001000,0.001000,0.001000
1025.423077,0.049047,0.001000,0.001000,0.001000,0.001000,0.001000
1025.442308,0.048788,0.001000,0.001000,0.001000,0.001000,0.001000
1025.461538,0.048498,0.001000,0.001000,0.001000,0.001000,0.001000
1025.480769,0.048178,0.001000,0.001000,0.001000,0.001000,0.001000
1025.500000,0.047827,0.001000,0.001000,0.001000,0.001000,0.001000
1025.519231,0.047446,0.001000,0.001000,0.001000,0.001000,0.001000
1025.538462,0.047035,0.001000,0.001000,0.001000,0.001000,0.001000
1025.557692,0.046594,0.001000,0.001000,0.001000,0.001000,0.001000
1025.576923,0.046125,0.001000,0.001000,0.001000,0.001000,0.001000
1025.596154,0.045626,0.001000,0.001000,0.001000,0.001000,0.001000
1025.615385,0.045098,0.001000,0.001000,0.001000,0.001000,0.001000
1025.634615,0.044542,0.001000,0.001000,0.001000,0.001000,0.001000
1025.653846,0.043958,0.001000,0.001000,0.001000,0.001000,0.001000
1025.673077,0.043346,0.001000,0.001000,0.001000,0.001000,0.001000
1025.692308,0.042707,0.001000,0.001000,0.001000,0.001000,0.001000
1025.711538,0.042041,0.001000,0.001000,0.001000,0.001000,0.001000
1025.730769,0.041348,0.001000,0.001000,0.001000,0.001000,0.001000
1025.750000,0.040630,0.001000,0.001000,0.001000,0.001000,0.001000
1025.769231,0.039885,0.001000,0.001000,0.001000,0.001000,0.001000
1025.788462,0.039116,0.001000,0.001000,0.001000,0.001000,0.001000
1025.807692,0.038322,0.001000,0.001000,0.001000,0.001000,0.001000
1025.826923,0.037504,0.001000,0.001000,0.001000,0.001000,0.001000
1025.846154,0.036662,0.001000,0.001000,0.001000,0.001000,0.001000
1025.865385,0.035797,0.001000,0.001000,0.001000,0.001000,0.001000
1025.884615,0.034910,0.001000,0.001000,0.001000,0.001000,0.001000
1025.903846,0.034001,0.001000,0.001000,0.001000,0.001000,0.001000
1025.923077,0.033070,0.001000,0.001000,0.001000,0.001000,0.001000
1025.942308,0.032118,0.001000,0.001000,0.001000,0.001000,0.001000
1025.961538,0.031147,0.001000,0.001000,0.001000,0.001000,0.001000
1025.980769,0.030155,0.001000,0.001000,0.001000,0.001000,0.001000
1026.000000,0.029145,0.001000,0.001000,0.001000,0.001000,0.001000
1026.019231,0.028116,0.001000,0.001000,0.001000,0.001000,0.001000
1026.038462,0.027069,0.001000,0.001000,0.001000,0.001000,0.001000
1026.057692,0.026006,0.001000,0.001000,0.001000,0.001000,0.001000
1026.076923,0.024926,0.001000,0.001000,0.001000,0.001000,0.001000
1026.096154,0.023830,0.001000,0.001000,0.001000,0.001000,0.001000
1026.115385,0.022719,0.001000,0.001000,0.001000,0.001000,0.001000
1026.134615,0.021594,0.001000,0.001000,0.001000,0.001000,0.001000
1026.153846,0.020456,0.001000,0.001000,0.001000,0.001000,0.001000
1026.173077,0.019304,0.001000,0.001000,0.001000,0.001000,0.001000
1026.192308,0.018141,0.001000,0.001000,0.001000,0.001000,0.001000
1026.211538,0.016965,0.001000,0.001000,0.001000,0.001000,0.001000
1026.230769,0.015780,0.001000,0.001000,0.001000,0.001000,0.001000
1026.250000,0.014584,0.001000,0.001000,0.001000,0.001000,0.001000
1026.269231,0.013379,0.001000,0.001000,0.001000,0.001000,0.001000
1026.288462,0.012166,0.001000,0.001000,0.001000,0.001000,0.001000
1026.307692,0.010945,0.001000,0.001000,0.001000,0.001000,0.001000
1026.326923,0.009717,0.001000,0.001000,0.001000,0.001000,0.001000
1026.346154,0.008483,0.001000,0.001000,0.001000,0.001000,0.001000
1026.365385,0.007244,0.001000,0.001000,0.001000,0.001000,0.001000
1026.384615,0.006000,0.001000,0.001000,0.001000,0.001000,0.001000
1026.403846,0.004752,0.001000,0.001000,0.001000,0.001000,0.001000
1026.423077,0.003501,0.001000,0.001000,0.001000,0.001000,0.001000
1026.442308,0.002248,0.001000,0.001000,0.001000,0.001000,0.001000
1026.461538,0.000994,0.001000,0.001000,0.001000,0.001000,0.001000
1026.480769,-0.000261,0.001000,0.001000,0.001000,0.001000,0.001000
1026.500000,-0.001516,0.001000,0.001000,0.001000,0.001000,0.001000
1026.519231,-0.002769,0.001000,0.001000,0.001000,0.001000,0.001000
1026.538462,-0.004022,0.001000,0.001000,0.001000,0.001000,0.001000
1026.557692,-0.005271,0.001000,0.001000,0.001000,0.001000,0.001000
1026.576923,-0.006517,0.001000,0.001000,0.001000,0.001000,0.001000
1026.596154,-0.007759,0.001000,0.001000,0.001000,0.001000,0.001000
1026.615385,-0.008997,0.001000,0.001000,0.001000,0.001000,0.001000
1026.634615,-0.010228,0.001000,0.001000,0.001000,0.001000,0.001000
1026.653846,-0.011453,0.001000,0.001000,0.001000,0.001000,0.001000
1026.673077,-0.012671,0.001000,0.001000,0.001000,0.001000,0.001000
1026.692308,-0.013881,0.001000,0.001000,0.001000,0.001000,0.001000
1026.711538,-0.015082,0.001000,0.001000,0.001000,0.001000,0.001000
1026.730769,-0.016274,0.001000,0.001000,0.001000,0.001000,0.001000
1026.750000,-0.017455,0.001000,0.001000,0.001000,0.001000,0.001000
1026.769231,-0.018626,0.001000,0.001000,0.001000,0.001000,0.001000
1026.788462,-0.019784,0.001000,0.001000,0.001000,0.001000,0.001000
1026.807692,-0.020931,0.001000,0.001000,0.001000,0.001000,0.001000
1026.826923,-0.022064,0.001000,0.001000,0.001000,0.001000,0.001000
1026.846154,-0.023183,0.001000,0.001000,0.001000,0.001000,0.001000
1026.865385,-0.024287,0.001000,0.001000,0.001000,0.001000,0.001000
1026.884615,-0.025377,0.001000,0.001000,0.001000,0.001000,0.001000
1026.903846,-0.026450,0.001000,0.001000,0.001000,0.001000,0.001000
1026.923077,-0.027506,0.001000,0.001000,0.001000,0.001000,0.001000
1026.942308,-0.028546,0.001000,0.001000,0.001000,0.001000,0.001000
1026.961538,-0.029567,0.001000,0.001000,0.001000,0.001000,0.001000
1026.980769,-0.030570,0.001000,0.001000,0.001000,0.001000,0.001000
1027.000000,-0.031553,0.001000,0.001000,0.001000,0.001000,0.001000
1027.019231,-0.032516,0.001000,0.001000,0.001000,0.001000,0.001000
1027.038462,-0.033459,0.001000,0.001000,0.001000,0.001000,0.001000
1027.057692,-0.034381,0.001000,0.001000,0.001000,0.001000,0.001000
1027.076923,-0.035282,0.001000,0.001000,0.001000,0.001000,0.001000
1027.096154,-0.036160,0.001000,0.001000,0.001000,0.001000,0.001000
1027.115385,-0.037015,0.001000,0.001000,0.001000,0.001000,0.001000
1027.134615,-0.037847,0.001000,0.001000,0.001000,0.001000,0.001000
1027.153846,-0.038655,0.001000,0.001000,0.001000,0.001000,0.001000
1027.173077,-0.039439,0.001000,0.001000,0.001000,0.001000,0.001000
1027.192308,-0.040198,0.001000,0.001000,0.001000,0.001000,0.001000
1027.211538,-0.040931,0.001000,0.001000,0.001000,0.001000,0.001000
1027.230769,-0.041639,0.001000,0.001000,0.001000,0.001000,0.001000
1027.250000,-0.042321,0.001000,0.001000,0.001000,0.001000,0.001000
1027.269231,-0.042976,0.001000,0.001000,0.001000,0.001000,0.001000
1027.288462,-0.043604,0.001000,0.001000,0.001000,0.001000,0.001000
1027.307692,-0.044204,0.001000,0.001000,0.001000,0.001000,0.001000
1027.326923,-0.044776,0.001000,0.001000,0.001000,0.001000,0.001000
1027.346154,-0.045321,0.001000,0.001000,0.001000,0.001000,0.001000
1027.365385,-0.045837,0.001000,0.001000,0.001000,0.001000,0.001000
1027.384615,-0.046323,0.001000,0.001000,0.001000,0.001000,0.001000
1027.403846,-0.046781,0.001000,0.001000,0.001000,0.001000,0.001000
1027.423077,-0.047209,0.001000,0.001000,0.001000,0.001000,0.001000
1027.442308,-0.047608,0.001000,0.001000,0.001000,0.001000,0.001000
1027.461538,-0.047976,0.001000,0.001000,0.001000,0.001000,0.001000
1027.480769,-0.048315,0.001000,0.001000,0.001000,0.001000,0.001000
1027.500000,-0.048622,0.001000,0.001000,0.001000,0.001000,0.001000
1027.519231,-0.048900,0.001000,0.001000,0.001000,0.001000,0.001000
1027.538462,-0.049146,0.001000,0.001000,0.001000,0.001000,0.001000
1027.557692,-0.049362,0.001000,0.001000,0.001000,0.001000,0.001000
1027.576923,-0.049546,0.001000,0.001000,0.001000,0.001000,0.001000
1027.596154,-0.049699,0.001000,0.001000,0.001000,0.001000,0.001000
1027.615385,-0.049821,0.001000,0.001000,0.001000,0.001000,0.001000
1027.634615,-0.049911,0.001000,0.001000,0.001000,0.001000,0.001000
1027.653846,-0.049970,0.001000,0.001000,0.001000,0.001000,0.001000
1027.673077,-0.049998,0.001000,0.001000,0.001000,0.001000,0.001000
1027.692308,-0.049994,0.001000,0.001000,0.001000,0.001000,0.001000
1027.711538,-0.049958,0.001000,0.001000,0.001000,0.001000,0.001000
1027.730769,-0.049891,0.001000,0.001000,0.001000,0.001000,0.001000
1027.750000,-0.049793,0.001000,0.001000,0.001000,0.001000,0.001000
1027.769231,-0.049663,0.001000,0.001000,0.001000,0.001000,0.001000
1027.788462,-0.049502,0.001000,0.001000,0.001000,0.001000,0.001000
1027.807692,-0.049310,0.001000,0.001000,0.001000,0.001000,0.001000
1027.826923,-0.049087,0.001000,0.001000,0.001000,0.001000,0.001000
1027.846154,-0.048833,0.001000,0.001000,0.001000,0.001000,0.001000
1027.865385,-0.048548,0.001000,0.001000,0.001000,0.001000,0.001000
1027.884615,-0.048232,0.001000,0.001000,0.001000,0.001000,0.001000
1027.903846,-0.047886,0.001000,0.001000,0.001000,0.001000,0.001000
1027.923077,-0.047510,0.001000,0.001000,0.001000,0.001000,0.001000
1027.942308,-0.047104,0.001000,0.001000,0.001000,0.001000,0.001000
1027.961538,-0.046668,0.001000,0.001000,0.001000,0.001000,0.001000
1027.980769,-0.046203,0.001000,0.001000,0.001000,0.001000,0.001000
1028.000000,-0.045709,0.001000,0.001000,0.001000,0.001000,0.001000
1028.019231,-0.045186,0.001000,0.001000,0.001000,0.001000,0.001000
1028.038462,-0.044634,0.001000,0.001000,0.001000,0.001000,0.001000
1028.057692,-0.044055,0.001000,0.001000,0.001000,0.001000,0.001000
1028.076923,-0.043447,0.001000,0.001000,0.001000,0.001000,0.001000
1028.096154,-0.042813,0.001000,0.001000,0.001000,0.001000,0.001000
1028.115385,-0.042151,0.001000,0.001000,0.001000,0.001000,0.001000
1028.134615,-0.041463,0.001000,0.001000,0.001000,0.001000,0.001000
1028.153846,-0.040748,0.001000,0.001000,0.001000,0.001000,0.001000
1028.173077,-0.040008,0.001000,0.001000,0.001000,0.001000,0.001000
1028.192308,-0.039243,0.001000,0.001000,0.001000,0.001000,0.001000
1028.211538,-0.038453,0.001000,0.001000,0.001000,0.001000,0.001000
1028.230769,-0.037639,0.001000,0.001000,0.001000,0.001000,0.001000
1028.250000,-0.036801,0.001000,0.001000,0.001000,0.001000,0.001000
1028.269231,-0.035940,0.001000,0.001000,0.001000,0.001000,0.001000
1028.288462,-0.035056,0.001000,0.001000,0.001000,0.001000,0.001000
1028.307692,-0.034150,0.001000,0.001000,0.001000,0.001000,0.001000
1028.326923,-0.033223,0.001000,0.001000,0.001000,0.001000,0.001000
1028.346154,-0.032275,0.001000,0.001000,0.001000,0.001000,0.001000
1028.365385,-0.031306,0.001000,0.001000,0.001000,0.001000,0.001000
1028.384615,-0.030318,0.001000,0.001000,0.001000,0.001000,0.001000
1028.403846,-0.029310,0.001000,0.001000,0.001000,0.001000,0.001000
1028.423077,-0.028285,0.001000,0.001000,0.001000,0.001000,0.001000
1028.442308,-0.027241,0.001000,0.001000,0.001000,0.001000,0.001000
1028.461538,-0.026180,0.001000,0.001000,0.001000,0.001000,0.001000
1028.480769,-0.025103,0.001000,0.001000,0.001000,0.001000,0.001000
1028.500000,-0.024010,0.001000,0.001000,0.001000,0.001000,0.001000
1028.519231,-0.022901,0.001000,0.001000,0.001000,0.001000,0.001000
1028.538462,-0.021779,0.001000,0.001000,0.001000,0.001000,0.001000
1028.557692,-0.020642,0.001000,0.001000,0.001000,0.001000,0.001000
1028.576923,-0.019493,0.001000,0.001000,0.001000,0.001000,0.001000
1028.596154,-0.018331,0.001000,0.001000,0.001000,0.001000,0.001000
1028.615385,-0.017158,0.001000,0.001000,0.001000,0.001000,0.001000
1028.634615,-0.015974,0.001000,0.001000,0.001000,0.001000,0.001000
1028.653846,-0.014779,0.001000,0.001000,0.001000,0.001000,0.001000
1028.673077,-0.013576,0.001000,0.001000,0.001000,0.001000,0.001000
1028.692308,-0.012364,0.001000,0.001000,0.001000,0.001000,0.001000
1028.711538,-0.011144,0.001000,0.001000,0.001000,0.001000,0.001000
1028.730769,-0.009917,0.001000,0.001000,0.001000,0.001000,0.001000
1028.750000,-0.008684,0.001000,0.001000,0.001000,0.001000,0.001000
1028.769231,-0.007446,0.001000,0.001000,0.001000,0.001000,0.001000
1028.788462,-0.006203,0.001000,0.001000,0.001000,0.001000,0.001000
1028.807692,-0.004955,0.001000,0.001000,0.001000,0.001000,0.001000
1028.826923,-0.003705,0.001000,0.001000,0.001000,0.001000,0.001000
1028.846154,-0.002453,0.001000,0.001000,0.001000,0.001000,0.001000
1028.865385,-0.001198,0.001000,0.001000,0.001000,0.001000,0.001000
1028.884615,0.000056,0.001000,0.001000,0.001000,0.001000,0.001000
1028.903846,0.001311,0.001000,0.001000,0.001000,0.001000,0.001000
1028.923077,0.002565,0.001000,0.001000,0.001000,0.001000,0.001000
1028.942308,0.003818,0.001000,0.001000,0.001000,0.001000,0.001000
1028.961538,0.005068,0.001000,0.001000,0.001000,0.001000,0.001000
1028.980769,0.006315,0.001000,0.001000,0.001000,0.001000,0.001000
1029.000000,0.007557,0.001000,0.001000,0.001000,0.001000,0.001000
1029.019231,0.008795,0.001000,0.001000,0.001000,0.001000,0.001000
1029.038462,0.010028,0.001000,0.001000,0.001000,0.001000,0.001000
1029.057692,0.011254,0.001000,0.001000,0.001000,0.001000,0.001000
1029.076923,0.012473,0.001000,0.001000,0.001000,0.001000,0.001000
1029.096154,0.013685,0.001000,0.001000,0.001000,0.001000,0.001000
1029.115385,0.014887,0.001000,0.001000,0.001000,0.001000,0.001000
1029.134615,0.016080,0.001000,0.001000,0.001000,0.001000,0.001000
1029.153846,0.017264,0.001000,0.001000,0.001000,0.001000,0.001000
1029.173077,0.018436,0.001000,0.001000,0.001000,0.001000,0.001000
1029.192308,0.019597,0.001000,0.001000,0.001000,0.001000,0.001000
1029.211538,0.020745,0.001000,0.001000,0.001000,0.001000,0.001000
1029.230769,0.021880,0.001000,0.001000,0.001000,0.001000,0.001000
1029.250000,0.023001,0.001000,0.001000,0.001000,0.001000,0.001000
1029.269231,0.024108,0.001000,0.001000,0.001000,0.001000,0.001000
1029.288462,0.025200,0.001000,0.001000,0.001000,0.001000,0.001000
1029.307692,0.026276,0.001000,0.001000,0.001000,0.001000,0.001000
1029.326923,0.027335,0.001000,0.001000,0.001000,0.001000,0.001000
1029.346154,0.028378,0.001000,0.001000,0.001000,0.001000,0.001000
1029.365385,0.029402,0.001000,0.001000,0.001000,0.001000,0.001000
1029.384615,0.030408,0.001000,0.001000,0.001000,0.001000,0.001000
1029.403846,0.031394,0.001000,0.001000,0.001000,0.001000,0.001000
1029.423077,0.032361,0.001000,0.001000,0.001000,0.001000,0.001000
1029.442308,0.033307,0.001000,0.001000,0.001000,0.001000,0.001000
1029.461538,0.034233,0.001000,0.001000,0.001000,0.001000,0.001000
1029.480769,0.035137,0.001000,0.001000,0.001000,0.001000,0.001000
1029.500000,0.036018,0.001000,0.001000,0.001000,0.001000,0.001000
1029.519231,0.036877,0.001000,0.001000,0.001000,0.001000,0.001000
1029.538462,0.037713,0.001000,0.001000,0.001000,0.001000,0.001000
1029.557692,0.038525,0.001000,0.001000,0.001000,0.001000,0.001000
1029.576923,0.039313,0.001000,0.001000,0.001000,0.001000,0.001000
1029.596154,0.040076,0.001000,0.001000,0.001000,0.001000,0.001000
1029.615385,0.040814,0.001000,0.001000,0.001000,0.001000,0.001000
1029.634615,0.041526,0.001000,0.001000,0.001000,0.001000,0.001000
1029.653846,0.042212,0.001000,0.001000,0.001000,0.001000,0.001000
1029.673077,0.042871,0.001000,0.001000,0.001000,0.001000,0.001000
1029.692308,0.043503,0.001000,0.001000,0.001000,0.001000,0.001000
1029.711538,0.044108,0.001000,0.001000,0.001000,0.001000,0.001000
1029.730769,0.044685,0.001000,0.001000,0.001000,0.001000,0.001000
1029.750000,0.045234,0.001000,0.001000,0.001000,0.001000,0.001000
1029.769231,0.045754,0.001000,0.001000,0.001000,0.001000,0.001000
1029.788462,0.046246,0.001000,0.001000,0.001000,0.001000,0.001000
1029.807692,0.046709,0.001000,0.001000,0.001000,0.001000,0.001000
1029.826923,0.047142,0.001000,0.001000,0.001000,0.001000,0.001000
1029.846154,0.047545,0.001000,0.001000,0.001000,0.001000,0.001000
1029.865385,0.047918,0.001000,0.001000,0.001000,0.001000,0.001000
1029.884615,0.048262,0.001000,0.001000,0.001000,0.001000,0.001000
1029.903846,0.048574,0.001000,0.001000,0.001000,0.001000,0.001000
1029.923077,0.048857,0.001000,0.001000,0.001000,0.001000,0.001000
1029.942308,0.049108,0.001000,0.001000,0.001000,0.001000,0.001000
1029.961538,0.049329,0.001000,0.001000,0.001000,0.001000,0.001000
1029.980769,0.049518,0.001000,0.001000,0.001000,0.001000,0.001000
1030.000000,0.000000,0.001000,0.001000,0.001000,0.001000,0.001000
1030.019231,0.001137,0.001000,0.001000,0.001000,0.001000,0.001000
1030.038462,0.002273,0.001000,0.001000,0.001000,0.001000,0.001000
1030.057692,0.003407,0.001000,0.001000,0.001000,0.001000,0.001000
1030.076923,0.004540,0.001000,0.001000,0.001000,0.001000,0.001000
1030.096154,0.005671,0.001000,0.001000,0.001000,0.001000,0.001000
1030.115385,0.006799,0.001000,0.001000,0.001000,0.001000,0.001000
1030.134615,0.007923,0.001000,0.001000,0.001000,0.001000,0.001000
1030.153846,0.009043,0.001000,0.001000,0.001000,0.001000,0.001000
1030.173077,0.010159,0.001000,0.001000,0.001000,0.001000,0.001000
1030.192308,0.011269,0.001000,0.001000,0.001000,0.001000,0.001000
1030.211538,0.012374,0.001000,0.001000,0.001000,0.001000,0.001000
1030.230769,0.013472,0.001000,0.001000,0.001000,0.001000,0.001000
1030.250000,0.014563,0.001000,0.001000,0.001000,0.001000,0.001000
1030.269231,0.015646,0.001000,0.001000,0.001000,0.001000,0.001000
1030.288462,0.016722,0.001000,0.001000,0.001000,0.001000,0.001000
1030.307692,0.017788,0.001000,0.001000,0.001000,0.001000,0.001000
1030.326923,0.018846,0.001000,0.001000,0.001000,0.001000,0.001000
1030.346154,0.019894,0.001000,0.001000,0.001000,0.001000,0.001000
1030.365385,0.020932,0.001000,0.001000,0.001000,0.001000,0.001000
1030.384615,0.021958,0.001000,0.001000,0.001000,0.001000,0.001000
1030.403846,0.022974,0.001000,0.001000,0.001000,0.001000,0.001000
1030.423077,0.023977,0.001000,0.001000,0.001000,0.001000,0.001000
1030.442308,0.024968,0.001000,0.001000,0.001000,0.001000,0.001000
1030.461538,0.025947,0.001000,0.001000,0.001000,0.001000,0.001000
1030.480769,0.026912,0.001000,0.001000,0.001000,0.001000,0.001000
1030.500000,0.027863,0.001000,0.001000,0.001000,0.001000,0.001000
1030.519231,0.028799,0.001000,0.001000,0.001000,0.001000,0.001000
1030.538462,0.029721,0.001000,0.001000,0.001000,0.001000,0.001000
1030.557692,0.030627,0.001000,0.001000,0.001000,0.001000,0.001000
1030.576923,0.031518,0.001000,0.001000,0.001000,0.001000,0.001000
1030.596154,0.032392,0.001000,0.001000,0.001000,0.001000,0.001000
1030.615385,0.033249,0.001000,0.001000,0.001000,0.001000,0.001000
1030.634615,0.034089,0.001000,0.001000,0.001000,0.001000,0.001000
1030.653846,0.034912,0.001000,0.001000,0.001000,0.001000,0.001000
1030.673077,0.035717,0.001000,0.001000,0.001000,0.001000,0.001000
1030.692308,0.036503,0.001000,0.001000,0.001000,0.001000,0.001000
1030.711538,0.037270,0.001000,0.001000,0.001000,0.001000,0.001000
1030.730769,0.038018,0.001000,0.001000,0.001000,0.001000,0.001000
1030.750000,0.038747,0.001000,0.001000,0.001000,0.001000,0.001000
1030.769231,0.039455,0.001000,0.001000,0.001000,0.001000,0.001000
1030.788462,0.040143,0.001000,0.001000,0.001000,0.001000,0.001000
1030.807692,0.040810,0.001000,0.001000,0.001000,0.001000,0.001000
1030.826923,0.041456,0.001000,0.001000,0.001000,0.001000,0.001000
1030.846154,0.042081,0.001000,0.001000,0.001000,0.001000,0.001000
1030.865385,0.042684,0.001000,0.001000,0.001000,0.001000,0.001000
1030.884615,0.043265,0.001000,0.001000,0.001000,0.001000,0.001000
1030.903846,0.043823,0.001000,0.001000,0.001000,0.001000,0.001000
1030.923077,0.044359,0.001000,0.001000,0.001000,0.001000,0.001000
1030.942308,0.044872,0.001000,0.001000,0.001000,0.001000,0.001000
1030.961538,0.045362,0.001000,0.001000,0.001000,0.001000,0.001000
1030.980769,0.045828,0.001000,0.001000,0.001000,0.001000,0.001000
1031.000000,0.046271,0.001000,0.001000,0.001000,0.001000,0.001000
1031.019231,0.046690,0.001000,0.001000,0.001000,0.001000,0.001000
1031.038462,0.047084,0.001000,0.001000,0.001000,0.001000,0.001000
1031.057692,0.047455,0.001000,0.001000,0.001000,0.001000,0.001000
1031.076923,0.047800,0.001000,0.001000,0.001000,0.001000,0.001000
1031.096154,0.048121,0.001000,0.001000,0.001000,0.001000,0.001000
1031.115385,0.048418,0.001000,0.001000,0.001000,0.001000,0.001000
1031.134615,0.048689,0.001000,0.001000,0.001000,0.001000,0.001000
1031.153846,0.048935,0.001000,0.001000,0.001000,0.001000,0.001000
1031.173077,0.049156,0.001000,0.001000,0.001000,0.001000,0.001000
1031.192308,0.049351,0.001000,0.001000,0.001000,0.001000,0.001000
1031.211538,0.049521,0.001000,0.001000,0.001000,0.001000,0.001000
1031.230769,0.049665,0.001000,0.001000,0.001000,0.001000,0.001000
1031.250000,0.049783,0.001000,0.001000,0.001000,0.001000,0.001000
1031.269231,0.049876,0.001000,0.001000,0.001000,0.001000,0.001000
1031.288462,0.049943,0.001000,0.001000,0.001000,0.001000,0.001000
1031.307692,0.049984,0.001000,0.001000,0.001000,0.001000,0.001000
1031.326923,0.050000,0.001000,0.001000,0.001000,0.001000,0.001000
1031.346154,0.049989,0.001000,0.001000,0.001000,0.001000,0.001000
1031.365385,0.049953,0.001000,0.001000,0.001000,0.001000,0.001000
1031.384615,0.049891,0.001000,0.001000,0.001000,0.001000,0.001000
1031.403846,0.049803,0.001000,0.001000,0.001000,0.001000,0.001000
1031.423077,0.049690,0.001000,0.001000,0.001000,0.001000,0.001000
1031.442308,0.049550,0.001000,0.001000,0.001000,0.001000,0.001000
1031.461538,0.049385,0.001000,0.001000,0.001000,0.001000,0.001000
1031.480769,0.049195,0.001000,0.001000,0.001000,0.001000,0.001000
1031.500000,0.048979,0.001000,0.001000,0.001000,0.001000,0.001000
1031.519231,0.048738,0.001000,0.001000,0.001000,0.001000,0.001000
1031.538462,0.048472,0.001000,0.001000,0.001000,0.001000,0.001000
1031.557692,0.048180,0.001000,0.001000,0.001000,0.001000,0.001000
1031.576923,0.047864,0.001000,0.001000,0.001000,0.001000,0.001000
1031.596154,0.047523,0.001000,0.001000,0.001000,0.001000,0.001000
1031.615385,0.047157,0.001000,0.001000,0.001000,0.001000,0.001000
1031.634615,0.046767,0.001000,0.001000,0.001000,0.001000,0.001000
1031.653846,0.046353,0.001000,0.001000,0.001000,0.001000,0.001000
1031.673077,0.045915,0.001000,0.001000,0.001000,0.001000,0.001000
1031.692308,0.045453,0.001000,0.001000,0.001000,0.001000,0.001000
1031.711538,0.044968,0.001000,0.001000,0.001000,0.001000,0.001000
1031.730769,0.044460,0.001000,0.001000,0.001000,0.001000,0.001000
1031.750000,0.043928,0.001000,0.001000,0.001000,0.001000,0.001000
1031.769231,0.043374,0.001000,0.001000,0.001000,0.001000,0.001000
1031.788462,0.042797,0.001000,0.001000,0.001000,0.001000,0.001000
1031.807692,0.042198,0.001000,0.001000,0.001000,0.001000,0.001000
1031.826923,0.041578,0.001000,0.001000,0.001000,0.001000,0.001000
1031.846154,0.040936,0.001000,0.001000,0.001000,0.001000,0.001000
1031.865385,0.040273,0.001000,0.001000,0.001000,0.001000,0.001000
1031.884615,0.039589,0.001000,0.001000,0.001000,0.001000,0.001000
1031.903846,0.038884,0.001000,0.001000,0.001000,0.001000,0.001000
1031.923077,0.038160,0.001000,0.001000,0.001000,0.001000,0.001000
1031.942308,0.037415,0.001000,0.001000,0.001000,0.001000,0.001000
1031.961538,0.036652,0.001000,0.001000,0.001000,0.001000,0.001000
1031.980769,0.035869,0.001000,0.001000,0.001000,0.001000,0.001000
1032.000000,0.035068,0.001000,0.001000,0.001000,0.001000,0.001000
1032.019231,0.034249,0.001000,0.001000,0.001000,0.001000,0.001000
1032.038462,0.033412,0.001000,0.001000,0.001000,0.001000,0.001000
1032.057692,0.032558,0.001000,0.001000,0.001000,0.001000,0.001000
1032.076923,0.031687,0.001000,0.001000,0.001000,0.001000,0.001000
1032.096154,0.030799,0.001000,0.001000,0.001000,0.001000,0.001000
1032.115385,0.029896,0.001000,0.001000,0.001000,0.001000,0.001000
1032.134615,0.028977,0.001000,0.001000,0.001000,0.001000,0.001000
1032.153846,0.028044,0.001000,0.001000,0.001000,0.001000,0.001000
1032.173077,0.027095,0.001000,0.001000,0.001000,0.001000,0.001000
1032.192308,0.026133,0.001000,0.001000,0.001000,0.001000,0.001000
1032.211538,0.025157,0.001000,0.001000,0.001000,0.001000,0.001000
1032.230769,0.024169,0.001000,0.001000,0.001000,0.001000,0.001000
1032.250000,0.023167,0.001000,0.001000,0.001000,0.001000,0.001000
1032.269231,0.022154,0.001000,0.001000,0.001000,0.001000,0.001000
1032.288462,0.021130,0.001000,0.001000,0.001000,0.001000,0.001000
1032.307692,0.020094,0.001000,0.001000,0.001000,0.001000,0.001000
1032.326923,0.019048,0.001000,0.001000,0.001000,0.001000,0.001000
1032.346154,0.017992,0.001000,0.001000,0.001000,0.001000,0.001000
1032.365385,0.016927,0.001000,0.001000,0.001000,0.001000,0.001000
1032.384615,0.015853,0.001000,0.001000,0.001000,0.001000,0.001000
1032.403846,0.014771,0.001000,0.001000,0.001000,0.001000,0.001000
1032.423077,0.013682,0.001000,0.001000,0.001000,0.001000,0.001000
1032.442308,0.012585,0.001000,0.001000,0.001000,0.001000,0.001000
1032.461538,0.011482,0.001000,0.001000,0.001000,0.001000,0.001000
1032.480769,0.010373,0.001000,0.001000,0.001000,0.001000,0.001000
1032.500000,0.009258,0.001000,0.001000,0.001000,0.001000,0.001000
1032.519231,0.008139,0.001000,0.001000,0.001000,0.001000,0.001000
1032.538462,0.007015,0.001000,0.001000,0.001000,0.001000,0.001000
1032.557692,0.005888,0.001000,0.001000,0.001000,0.001000,0.001000
1032.576923,0.004758,0.001000,0.001000,0.001000,0.001000,0.001000
1032.596154,0.003625,0.001000,0.001000,0.001000,0.001000,0.001000
1032.615385,0.002491,0.001000,0.001000,0.001000,0.001000,0.001000
1032.634615,0.001355,0.001000,0.001000,0.001000,0.001000,0.001000
1032.653846,0.000218,0.001000,0.001000,0.001000,0.001000,0.001000
1032.673077,-0.000918,0.001000,0.001000,0.001000,0.001000,0.001000
1032.692308,-0.002054,0.001000,0.001000,0.001000,0.001000,0.001000
1032.711538,-0.003189,0.001000,0.001000,0.001000,0.001000,0.001000
1032.730769,-0.004323,0.001000,0.001000,0.001000,0.001000,0.001000
1032.750000,-0.005454,0.001000,0.001000,0.001000,0.001000,0.001000
1032.769231,-0.006583,0.001000,0.001000,0.001000,0.001000,0.001000
1032.788462,-0.007708,0.001000,0.001000,0.001000,0.001000,0.001000
1032.807692,-0.008829,0.001000,0.001000,0.001000,0.001000,0.001000
1032.826923,-0.009945,0.001000,0.001000,0.001000,0.001000,0.001000
1032.846154,-0.011056,0.001000,0.001000,0.001000,0.001000,0.001000
1032.865385,-0.012162,0.001000,0.001000,0.001000,0.001000,0.001000
1032.884615,-0.013261,0.001000,0.001000,0.001000,0.001000,0.001000
1032.903846,-0.014354,0.001000,0.001000,0.001000,0.001000,0.001000
1032.923077,-0.015439,0.001000,0.001000,0.001000,0.001000,0.001000
1032.942308,-0.016516,0.001000,0.001000,0.001000,0.001000,0.001000
1032.961538,-0.017584,0.001000,0.001000,0.001000,0.001000,0.001000
1032.980769,-0.018644,0.001000,0.001000,0.001000,0.001000,0.001000
1033.000000,-0.019693,0.001000,0.001000,0.001000,0.001000,0.001000
1033.019231,-0.020733,0.001000,0.001000,0.001000,0.001000,0.001000
1033.038462,-0.021762,0.001000,0.001000,0.001000,0.001000,0.001000
1033.057692,-0.022780,0.001000,0.001000,0.001000,0.001000,0.001000
1033.076923,-0.023785,0.001000,0.001000,0.001000,0.001000,0.001000
1033.096154,-0.024779,0.001000,0.001000,0.001000,0.001000,0.001000
1033.115385,-0.025760,0.001000,0.001000,0.001000,0.001000,0.001000
1033.134615,-0.026727,0.001000,0.001000,0.001000,0.001000,0.001000
1033.153846,-0.027681,0.001000,0.001000,0.001000,0.001000,0.001000
1033.173077,-0.028620,0.001000,0.001000,0.001000,0.001000,0.001000
1033.192308,-0.029545,0.001000,0.001000,0.001000,0.001000,0.001000
1033.211538,-0.030454,0.001000,0.001000,0.001000,0.001000,0.001000
1033.230769,-0.031348,0.001000,0.001000,0.001000,0.001000,0.001000
1033.250000,-0.032225,0.001000,0.001000,0.001000,0.001000,0.001000
1033.269231,-0.033086,0.001000,0.001000,0.001000,0.001000,0.001000
1033.288462,-0.033929,0.001000,0.001000,0.001000,0.001000,0.001000
1033.307692,-0.034755,0.001000,0.001000,0.001000,0.001000,0.001000
1033.326923,-0.035564,0.001000,0.001000,0.001000,0.001000,0.001000
1033.346154,-0.036353,0.001000,0.001000,0.001000,0.001000,0.001000
1033.365385,-0.037124,0.001000,0.001000,0.001000,0.001000,0.001000
1033.384615,-0.037876,0.001000,0.001000,0.001000,0.001000,0.001000
1033.403846,-0.038608,0.001000,0.001000,0.001000,0.001000,0.001000
1033.423077,-0.039320,0.001000,0.001000,0.001000,0.001000,0.001000
1033.442308,-0.040012,0.001000,0.001000,0.001000,0.001000,0.001000
1033.461538,-0.040684,0.001000,0.001000,0.001000,0.001000,0.001000
1033.480769,-0.041334,0.001000,0.001000,0.001000,0.001000,0.001000
1033.500000,-0.041963,0.001000,0.001000,0.001000,0.001000,0.001000
1033.519231,-0.042570,0.001000,0.001000,0.001000,0.001000,0.001000
1033.538462,-0.043155,0.001000,0.001000,0.001000,0.001000,0.001000
1033.557692,-0.043718,0.001000,0.001000,0.001000,0.001000,0.001000
1033.576923,-0.044258,0.001000,0.001000,0.001000,0.001000,0.001000
1033.596154,-0.044775,0.001000,0.001000,0.001000,0.001000,0.001000
1033.615385,-0.045270,0.001000,0.001000,0.001000,0.001000,0.001000
1033.634615,-0.045741,0.001000,0.001000,0.001000,0.001000,0.001000
1033.653846,-0.046188,0.001000,0.001000,0.001000,0.001000,0.001000
1033.673077,-0.046611,0.001000,0.001000,0.001000,0.001000,0.001000
1033.692308,-0.047010,0.001000,0.001000,0.001000,0.001000,0.001000
1033.711538,-0.047385,0.001000,0.001000,0.001000,0.001000,0.001000
1033.730769,-0.047736,0.001000,0.001000,0.001000,0.001000,0.001000
1033.750000,-0.048062,0.001000,0.001000,0.001000,0.001000,0.001000
1033.769231,-0.048363,0.001000,0.001000,0.001000,0.001000,0.001000
1033.788462,-0.048639,0.001000,0.001000,0.001000,0.001000,0.001000
1033.807692,-0.048890,0.001000,0.001000,0.001000,0.001000,0.001000
1033.826923,-0.049115,0.001000,0.001000,0.001000,0.001000,0.001000
1033.846154,-0.049315,0.001000,0.001000,0.001000,0.001000,0.001000
1033.865385,-0.049490,0.001000,0.001000,0.001000,0.001000,0.001000
1033.884615,-0.049639,0.001000,0.001000,0.001000,0.001000,0.001000
1033.903846,-0.049763,0.001000,0.001000,0.001000,0.001000,0.001000
1033.923077,-0.049860,0.001000,0.001000,0.001000,0.001000,0.001000
1033.942308,-0.049932,0.001000,0.001000,0.001000,0.001000,0.001000
1033.961538,-0.049979,0.001000,0.001000,0.001000,0.001000,0.001000
1033.980769,-0.049999,0.001000,0.001000,0.001000,0.001000,0.001000
1034.000000,-0.049993,0.001000,0.001000,0.001000,0.001000,0.001000
1034.019231,-0.049962,0.001000,0.001000,0.001000,0.001000,0.001000
1034.038462,-0.049905,0.001000,0.001000,0.001000,0.001000,0.001000
1034.057692,-0.049822,0.001000,0.001000,0.001000,0.001000,0.001000
1034.076923,-0.049713,0.001000,0.001000,0.001000,0.001000,0.001000
1034.096154,-0.049579,0.001000,0.001000,0.001000,0.001000,0.001000
1034.115385,-0.049419,0.001000,0.001000,0.001000,0.001000,0.001000
1034.134615,-0.049234,0.001000,0.001000,0.001000,0.001000,0.001000
1034.153846,-0.049023,0.001000,0.001000,0.001000,0.001000,0.001000
1034.173077,-0.048786,0.001000,0.001000,0.001000,0.001000,0.001000
1034.192308,-0.048525,0.001000,0.001000,0.001000,0.001000,0.001000
1034.211538,-0.048238,0.001000,0.001000,0.001000,0.001000,0.001000
1034.230769,-0.047927,0.001000,0.001000,0.001000,0.001000,0.001000
1034.250000,-0.047590,0.001000,0.001000,0.001000,0.001000,0.001000
1034.269231,-0.047230,0.001000,0.001000,0.001000,0.001000,0.001000
1034.288462,-0.046844,0.001000,0.001000,0.001000,0.001000,0.001000
1034.307692,-0.046435,0.001000,0.001000,0.001000,0.001000,0.001000
1034.326923,-0.046001,0.001000,0.001000,0.001000,0.001000,0.001000
1034.346154,-0.045544,0.001000,0.001000,0.001000,0.001000,0.001000
1034.365385,-0.045063,0.001000,0.001000,0.001000,0.001000,0.001000
1034.384615,-0.044559,0.001000,0.001000,0.001000,0.001000,0.001000
1034.403846,-0.044032,0.001000,0.001000,0.001000,0.001000,0.001000
1034.423077,-0.043482,0.001000,0.001000,0.001000,0.001000,0.001000
1034.442308,-0.042910,0.001000,0.001000,0.001000,0.001000,0.001000
1034.461538,-0.042315,0.001000,0.001000,0.001000,0.001000,0.001000
1034.480769,-0.041699,0.001000,0.001000,0.001000,0.001000,0.001000
1034.500000,-0.041061,0.001000,0.001000,0.001000,0.001000,0.001000
1034.519231,-0.040402,0.001000,0.001000,0.001000,0.001000,0.001000
1034.538462,-0.039722,0.001000,0.001000,0.001000,0.001000,0.001000
1034.557692,-0.039021,0.001000,0.001000,0.001000,0.001000,0.001000
1034.576923,-0.038300,0.001000,0.001000,0.001000,0.001000,0.001000
1034.596154,-0.037560,0.001000,0.001000,0.001000,0.001000,0.001000
1034.615385,-0.036800,0.001000,0.001000,0.001000,0.001000,0.001000
1034.634615,-0.036021,0.001000,0.001000,0.001000,0.001000,0.001000
1034.653846,-0.035223,0.001000,0.001000,0.001000,0.001000,0.001000
1034.673077,-0.034408,0.001000,0.001000,0.001000,0.001000,0.001000
