timestamp,ax,ay,az,gx,gy,gz
1000.000000,0.000000,0.001000,0.001000,0.001000,0.001000,0.001000
1000.019231,0.001158,0.001000,0.001000,0.001000,0.001000,0.001000
1000.038462,0.002315,0.001000,0.001000,0.001000,0.001000,0.001000
1000.057692,0.003471,0.001000,0.001000,0.001000,0.001000,0.001000
1000.076923,0.004625,0.001000,0.001000,0.001000,0.001000,0.001000
1000.096154,0.005777,0.001000,0.001000,0.001000,0.001000,0.001000
1000.115385,0.006926,0.001000,0.001000,0.001000,0.001000,0.001000
1000.134615,0.008070,0.001000,0.001000,0.001000,0.001000,0.001000
1000.153846,0.009211,0.001000,0.001000,0.001000,0.001000,0.001000
1000.173077,0.010347,0.001000,0.001000,0.001000,0.001000,0.001000
1000.192308,0.011477,0.001000,0.001000,0.001000,0.001000,0.001000
1000.211538,0.012601,0.001000,0.001000,0.001000,0.001000,0.001000
1000.230769,0.013718,0.001000,0.001000,0.001000,0.001000,0.001000
1000.250000,0.014827,0.001000,0.001000,0.001000,0.001000,0.001000
1000.269231,0.015929,0.001000,0.001000,0.001000,0.001000,0.001000
1000.288462,0.017023,0.001000,0.001000,0.001000,0.001000,0.001000
1000.307692,0.018107,0.001000,0.001000,0.001000,0.001000,0.001000
1000.326923,0.019181,0.001000,0.001000,0.001000,0.001000,0.001000
1000.346154,0.020245,0.001000,0.001000,0.001000,0.001000,0.001000
1000.365385,0.021299,0.001000,0.001000,0.001000,0.001000,0.001000
1000.384615,0.022340,0.001000,0.001000,0.001000,0.001000,0.001000
1000.403846,0.023370,0.001000,0.001000,0.001000,0.001000,0.001000
1000.423077,0.024388,0.001000,0.001000,0.001000,0.001000,0.001000
1000.442308,0.025392,0.001000,0.001000,0.001000,0.001000,0.001000
1000.461538,0.026383,0.001000,0.001000,0.001000,0.001000,0.001000
1000.480769,0.027359,0.001000,0.001000,0.001000,0.001000,0.001000
1000.500000,0.028321,0.001000,0.001000,0.001000,0.001000,0.001000
1000.519231,0.029268,0.001000,0.001000,0.001000,0.001000,0.001000
1000.538462,0.030198,0.001000,0.001000,0.001000,0.001000,0.001000
1000.557692,0.031113,0.001000,0.001000,0.001000,0.001000,0.001000
1000.576923,0.032011,0.001000,0.001000,0.001000,0.001000,0.001000
1000.596154,0.032892,0.001000,0.001000,0.001000,0.001000,0.001000
1000.615385,0.033755,0.001000,0.001000,0.001000,0.001000,0.001000
1000.634615,0.034601,0.001000,0.001000,0.001000,0.001000,0.001000
1000.653846,0.035427,0.001000,0.001000,0.001000,0.001000,0.001000
1000.673077,0.036235,0.001000,0.001000,0.001000,0.001000,0.001000
1000.692308,0.037023,0.001000,0.001000,0.001000,0.001000,0.001000
1000.711538,0.037791,0.001000,0.001000,0.001000,0.001000,0.001000
1000.730769,0.038539,0.001000,0.001000,0.001000,0.001000,0.001000
1000.750000,0.039267,0.001000,0.001000,0.001000,0.001000,0.001000
1000.769231,0.039973,0.001000,0.001000,0.001000,0.001000,0.001000
1000.788462,0.040658,0.001000,0.001000,0.001000,0.001000,0.001000
1000.807692,0.041321,0.001000,0.001000,0.001000,0.001000,0.001000
1000.826923,0.041962,0.001000,0.001000,0.001000,0.001000,0.001000
1000.846154,0.042580,0.001000,0.001000,0.001000,0.001000,0.001000
1000.865385,0.043175,0.001000,0.001000,0.001000,0.001000,0.001000
1000.884615,0.043748,0.001000,0.001000,0.001000,0.001000,0.001000
1000.903846,0.044297,0.001000,0.001000,0.001000,0.001000,0.001000
1000.923077,0.044822,0.001000,0.001000,0.001000,0.001000,0.001000
1000.942308,0.045323,0.001000,0.001000,0.001000,0.001000,0.001000
1000.961538,0.045800,0.001000,0.001000,0.001000,0.001000,0.001000
1000.980769,0.046252,0.001000,0.001000,0.001000,0.001000,0.001000
1001.000000,0.046680,0.001000,0.001000,0.001000,0.001000,0.001000
1001.019231,0.047082,0.001000,0.001000,0.001000,0.001000,0.001000
1001.038462,0.047459,0.001000,0.001000,0.001000,0.001000,0.001000
1001.057692,0.047811,0.001000,0.001000,0.001000,0.001000,0.001000
1001.076923,0.048137,0.001000,0.001000,0.001000,0.001000,0.001000
1001.096154,0.048437,0.001000,0.001000,0.001000,0.001000,0.001000
1001.115385,0.048711,0.001000,0.001000,0.001000,0.001000,0.001000
1001.134615,0.048959,0.001000,0.001000,0.001000,0.001000,0.001000
1001.153846,0.049181,0.001000,0.001000,0.001000,0.001000,0.001000
1001.173077,0.049377,0.001000,0.001000,0.001000,0.001000,0.001000
1001.192308,0.049546,0.001000,0.001000,0.001000,0.001000,0.001000
1001.211538,0.049688,0.001000,0.001000,0.001000,0.001000,0.001000
1001.230769,0.049804,0.001000,0.001000,0.001000,0.001000,0.001000
1001.250000,0.049893,0.001000,0.001000,0.001000,0.001000,0.001000
1001.269231,0.049955,0.001000,0.001000,0.001000,0.001000,0.001000
1001.288462,0.049991,0.001000,0.001000,0.001000,0.001000,0.001000
1001.307692,0.050000,0.001000,0.001000,0.001000,0.001000,0.001000
1001.326923,0.049981,0.001000,0.001000,0.001000,0.001000,0.001000
1001.346154,0.049937,0.001000,0.001000,0.001000,0.001000,0.001000
1001.365385,0.049865,0.001000,0.001000,0.001000,0.001000,0.001000
1001.384615,0.049766,0.001000,0.001000,0.001000,0.001000,0.001000
1001.403846,0.049641,0.001000,0.001000,0.001000,0.001000,0.001000
1001.423077,0.049489,0.001000,0.001000,0.001000,0.001000,0.001000
1001.442308,0.049311,0.001000,0.001000,0.001000,0.001000,0.001000
1001.461538,0.049106,0.001000,0.001000,0.001000,0.001000,0.001000
1001.480769,0.048875,0.001000,0.001000,0.001000,0.001000,0.001000
1001.500000,0.048618,0.001000,0.001000,0.001000,0.001000,0.001000
1001.519231,0.048335,0.001000,0.001000,0.001000,0.001000,0.001000
1001.538462,0.048025,0.001000,0.001000,0.001000,0.001000,0.001000
1001.557692,0.047690,0.001000,0.001000,0.001000,0.001000,0.001000
1001.576923,0.047330,0.001000,0.001000,0.001000,0.001000,0.001000
1001.596154,0.046944,0.001000,0.001000,0.001000,0.001000,0.001000
1001.615385,0.046532,0.001000,0.001000,0.001000,0.001000,0.001000
1001.634615,0.046096,0.001000,0.001000,0.001000,0.001000,0.001000
1001.653846,0.045635,0.001000,0.001000,0.001000,0.001000,0.001000
1001.673077,0.045150,0.001000,0.001000,0.001000,0.001000,0.001000
1001.692308,0.044640,0.001000,0.001000,0.001000,0.001000,0.001000
1001.711538,0.044107,0.001000,0.001000,0.001000,0.001000,0.001000
1001.730769,0.043550,0.001000,0.001000,0.001000,0.001000,0.001000
1001.750000,0.042969,0.001000,0.001000,0.001000,0.001000,0.001000
1001.769231,0.042365,0.001000,0.001000,0.001000,0.001000,0.001000
1001.788462,0.041739,0.001000,0.001000,0.001000,0.001000,0.001000
1001.807692,0.041090,0.001000,0.001000,0.001000,0.001000,0.001000
1001.826923,0.040420,0.001000,0.001000,0.001000,0.001000,0.001000
1001.846154,0.039727,0.001000,0.001000,0.001000,0.001000,0.001000
1001.865385,0.039014,0.001000,0.001000,0.001000,0.001000,0.001000
1001.884615,0.038279,0.001000,0.001000,0.001000,0.001000,0.001000
1001.903846,0.037524,0.001000,0.001000,0.001000,0.001000,0.001000
1001.923077,0.036748,0.001000,0.001000,0.001000,0.001000,0.001000
1001.942308,0.035953,0.001000,0.001000,0.001000,0.001000,0.001000
1001.961538,0.035139,0.001000,0.001000,0.001000,0.001000,0.001000
1001.980769,0.034306,0.001000,0.001000,0.001000,0.001000,0.001000
1002.000000,0.033454,0.001000,0.001000,0.001000,0.001000,0.001000
1002.019231,0.032585,0.001000,0.001000,0.001000,0.001000,0.001000
1002.038462,0.031698,0.001000,0.001000,0.001000,0.001000,0.001000
1002.057692,0.030794,0.001000,0.001000,0.001000,0.001000,0.001000
1002.076923,0.029873,0.001000,0.001000,0.001000,0.001000,0.001000
1002.096154,0.028937,0.001000,0.001000,0.001000,0.001000,0.001000
1002.115385,0.027985,0.001000,0.001000,0.001000,0.001000,0.001000
1002.134615,0.027018,0.001000,0.001000,0.001000,0.001000,0.001000
1002.153846,0.026036,0.001000,0.001000,0.001000,0.001000,0.001000
1002.173077,0.025041,0.001000,0.001000,0.001000,0.001000,0.001000
1002.192308,0.024032,0.001000,0.001000,0.001000,0.001000,0.001000
1002.211538,0.023010,0.001000,0.001000,0.001000,0.001000,0.001000
1002.230769,0.021976,0.001000,0.001000,0.001000,0.001000,0.001000
1002.250000,0.020930,0.001000,0.001000,0.001000,0.001000,0.001000
1002.269231,0.019873,0.001000,0.001000,0.001000,0.001000,0.001000
1002.288462,0.018805,0.001000,0.001000,0.001000,0.001000,0.001000
1002.307692,0.017727,0.001000,0.001000,0.001000,0.001000,0.001000
1002.326923,0.016640,0.001000,0.001000,0.001000,0.001000,0.001000
1002.346154,0.015543,0.001000,0.001000,0.001000,0.001000,0.001000
1002.365385,0.014439,0.001000,0.001000,0.001000,0.001000,0.001000
1002.384615,0.013326,0.001000,0.001000,0.001000,0.001000,0.001000
1002.403846,0.012207,0.001000,0.001000,0.001000,0.001000,0.001000
1002.423077,0.011081,0.001000,0.001000,0.001000,0.001000,0.001000
1002.442308,0.009949,0.001000,0.001000,0.001000,0.001000,0.001000
1002.461538,0.008811,0.001000,0.001000,0.001000,0.001000,0.001000
1002.480769,0.007669,0.001000,0.001000,0.001000,0.001000,0.001000
1002.500000,0.006523,0.001000,0.001000,0.001000,0.001000,0.001000
1002.519231,0.005373,0.001000,0.001000,0.001000,0.001000,0.001000
1002.538462,0.004220,0.001000,0.001000,0.001000,0.001000,0.001000
1002.557692,0.003066,0.001000,0.001000,0.001000,0.001000,0.001000
1002.576923,0.001909,0.001000,0.001000,0.001000,0.001000,0.001000
1002.596154,0.000751,0.001000,0.001000,0.001000,0.001000,0.001000
1002.615385,-0.000407,0.001000,0.001000,0.001000,0.001000,0.001000
1002.634615,-0.001564,0.001000,0.001000,0.001000,0.001000,0.001000
1002.653846,-0.002721,0.001000,0.001000,0.001000,0.001000,0.001000
1002.673077,-0.003877,0.001000,0.001000,0.001000,0.001000,0.001000
1002.692308,-0.005030,0.001000,0.001000,0.001000,0.001000,0.001000
1002.711538,-0.006181,0.001000,0.001000,0.001000,0.001000,0.001000
1002.730769,-0.007328,0.001000,0.001000,0.001000,0.001000,0.001000
1002.750000,-0.008471,0.001000,0.001000,0.001000,0.001000,0.001000
1002.769231,-0.009610,0.001000,0.001000,0.001000,0.001000,0.001000
1002.788462,-0.010744,0.001000,0.001000,0.001000,0.001000,0.001000
1002.807692,-0.011872,0.001000,0.001000,0.001000,0.001000,0.001000
1002.826923,-0.012993,0.001000,0.001000,0.001000,0.001000,0.001000
1002.846154,-0.014108,0.001000,0.001000,0.001000,0.001000,0.001000
1002.865385,-0.015215,0.001000,0.001000,0.001000,0.001000,0.001000
1002.884615,-0.016314,0.001000,0.001000,0.001000,0.001000,0.001000
1002.903846,-0.017404,0.001000,0.001000,0.001000,0.001000,0.001000
1002.923077,-0.018485,0.001000,0.001000,0.001000,0.001000,0.001000
1002.942308,-0.019556,0.001000,0.001000,0.001000,0.001000,0.001000
1002.961538,-0.020616,0.001000,0.001000,0.001000,0.001000,0.001000
1002.980769,-0.021666,0.001000,0.001000,0.001000,0.001000,0.001000
1003.000000,-0.022703,0.001000,0.001000,0.001000,0.001000,0.001000
1003.019231,-0.023729,0.001000,0.001000,0.001000,0.001000,0.001000
1003.038462,-0.024742,0.001000,0.001000,0.001000,0.001000,0.001000
1003.057692,-0.025741,0.001000,0.001000,0.001000,0.001000,0.001000
1003.076923,-0.026727,0.001000,0.001000,0.001000,0.001000,0.001000
1003.096154,-0.027698,0.001000,0.001000,0.001000,0.001000,0.001000
1003.115385,-0.028655,0.001000,0.001000,0.001000,0.001000,0.001000
1003.134615,-0.029596,0.001000,0.001000,0.001000,0.001000,0.001000
1003.153846,-0.030521,0.001000,0.001000,0.001000,0.001000,0.001000
1003.173077,-0.031430,0.001000,0.001000,0.001000,0.001000,0.001000
1003.192308,-0.032322,0.001000,0.001000,0.001000,0.001000,0.001000
1003.211538,-0.033197,0.001000,0.001000,0.001000,0.001000,0.001000
1003.230769,-0.034054,0.001000,0.001000,0.001000,0.001000,0.001000
1003.250000,-0.034893,0.001000,0.001000,0.001000,0.001000,0.001000
1003.269231,-0.035713,0.001000,0.001000,0.001000,0.001000,0.001000
1003.288462,-0.036514,0.001000,0.001000,0.001000,0.001000,0.001000
1003.307692,-0.037295,0.001000,0.001000,0.001000,0.001000,0.001000
1003.326923,-0.038056,0.001000,0.001000,0.001000,0.001000,0.001000
1003.346154,-0.038797,0.001000,0.001000,0.001000,0.001000,0.001000
1003.365385,-0.039517,0.001000,0.001000,0.001000,0.001000,0.001000
1003.384615,-0.040216,0.001000,0.001000,0.001000,0.001000,0.001000
1003.403846,-0.040893,0.001000,0.001000,0.001000,0.001000,0.001000
1003.423077,-0.041548,0.001000,0.001000,0.001000,0.001000,0.001000
1003.442308,-0.042181,0.001000,0.001000,0.001000,0.001000,0.001000
1003.461538,-0.042792,0.001000,0.001000,0.001000,0.001000,0.001000
1003.480769,-0.043379,0.001000,0.001000,0.001000,0.001000,0.001000
1003.500000,-0.043943,0.001000,0.001000,0.001000,0.001000,0.001000
1003.519231,-0.044484,0.001000,0.001000,0.001000,0.001000,0.001000
1003.538462,-0.045001,0.001000,0.001000,0.001000,0.001000,0.001000
1003.557692,-0.045493,0.001000,0.001000,0.001000,0.001000,0.001000
1003.576923,-0.045961,0.001000,0.001000,0.001000,0.001000,0.001000
1003.596154,-0.046405,0.001000,0.001000,0.001000,0.001000,0.001000
1003.615385,-0.046824,0.001000,0.001000,0.001000,0.001000,0.001000
1003.634615,-0.047217,0.001000,0.001000,0.001000,0.001000,0.001000
1003.653846,-0.047585,0.001000,0.001000,0.001000,0.001000,0.001000
1003.673077,-0.047928,0.001000,0.001000,0.001000,0.001000,0.001000
1003.692308,-0.048245,0.001000,0.001000,0.001000,0.001000,0.001000
1003.711538,-0.048536,0.001000,0.001000,0.001000,0.001000,0.001000
1003.730769,-0.048801,0.001000,0.001000,0.001000,0.001000,0.001000
1003.750000,-0.049040,0.001000,0.001000,0.001000,0.001000,0.001000
1003.769231,-0.049253,0.001000,0.001000,0.001000,0.001000,0.001000
1003.788462,-0.049439,0.001000,0.001000,0.001000,0.001000,0.001000
1003.807692,-0.049599,0.001000,0.001000,0.001000,0.001000,0.001000
1003.826923,-0.049732,0.001000,0.001000,0.001000,0.001000,0.001000
1003.846154,-0.049838,0.001000,0.001000,0.001000,0.001000,0.001000
1003.865385,-0.049918,0.001000,0.001000,0.001000,0.001000,0.001000
1003.884615,-0.049971,0.001000,0.001000,0.001000,0.001000,0.001000
1003.903846,-0.049997,0.001000,0.001000,0.001000,0.001000,0.001000
1003.923077,-0.049996,0.001000,0.001000,0.001000,0.001000,0.001000
1003.942308,-0.049969,0.001000,0.001000,0.001000,0.001000,0.001000
1003.961538,-0.049914,0.001000,0.001000,0.001000,0.001000,0.001000
1003.980769,-0.049833,0.001000,0.001000,0.001000,0.001000,0.001000
1004.000000,-0.049725,0.001000,0.001000,0.001000,0.001000,0.001000
1004.019231,-0.049591,0.001000,0.001000,0.001000,0.001000,0.001000
1004.038462,-0.049430,0.001000,0.001000,0.001000,0.001000,0.001000
1004.057692,-0.049242,0.001000,0.001000,0.001000,0.001000,0.001000
1004.076923,-0.049028,0.001000,0.001000,0.001000,0.001000,0.001000
1004.096154,-0.048788,0.001000,0.001000,0.001000,0.001000,0.001000
1004.115385,-0.048521,0.001000,0.001000,0.001000,0.001000,0.001000
1004.134615,-0.048229,0.001000,0.001000,0.001000,0.001000,0.001000
1004.153846,-0.047911,0.001000,0.001000,0.001000,0.001000,0.001000
1004.173077,-0.047567,0.001000,0.001000,0.001000,0.001000,0.001000
1004.192308,-0.047197,0.001000,0.001000,0.001000,0.001000,0.001000
1004.211538,-0.046802,0.001000,0.001000,0.001000,0.001000,0.001000
1004.230769,-0.046382,0.001000,0.001000,0.001000,0.001000,0.001000
1004.250000,-0.045937,0.001000,0.001000,0.001000,0.001000,0.001000
1004.269231,-0.045468,0.001000,0.001000,0.001000,0.001000,0.001000
1004.288462,-0.044974,0.001000,0.001000,0.001000,0.001000,0.001000
1004.307692,-0.044456,0.001000,0.001000,0.001000,0.001000,0.001000
1004.326923,-0.043914,0.001000,0.001000,0.001000,0.001000,0.001000
1004.346154,-0.043348,0.001000,0.001000,0.001000,0.001000,0.001000
1004.365385,-0.042760,0.001000,0.001000,0.001000,0.001000,0.001000
1004.384615,-0.042148,0.001000,0.001000,0.001000,0.001000,0.001000
1004.403846,-0.041514,0.001000,0.001000,0.001000,0.001000,0.001000
1004.423077,-0.040857,0.001000,0.001000,0.001000,0.001000,0.001000
1004.442308,-0.040179,0.001000,0.001000,0.001000,0.001000,0.001000
1004.461538,-0.039479,0.001000,0.001000,0.001000,0.001000,0.001000
1004.480769,-0.038758,0.001000,0.001000,0.001000,0.001000,0.001000
1004.500000,-0.038016,0.001000,0.001000,0.001000,0.001000,0.001000
1004.519231,-0.037254,0.001000,0.001000,0.001000,0.001000,0.001000
1004.538462,-0.036472,0.001000,0.001000,0.001000,0.001000,0.001000
1004.557692,-0.035670,0.001000,0.001000,0.001000,0.001000,0.001000
1004.576923,-0.034849,0.001000,0.001000,0.001000,0.001000,0.001000
1004.596154,-0.034009,0.001000,0.001000,0.001000,0.001000,0.001000
1004.615385,-0.033151,0.001000,0.001000,0.001000,0.001000,0.001000
1004.634615,-0.032275,0.001000,0.001000,0.001000,0.001000,0.001000
1004.653846,-0.031383,0.001000,0.001000,0.001000,0.001000,0.001000
1004.673077,-0.030473,0.001000,0.001000,0.001000,0.001000,0.001000
1004.692308,-0.029547,0.001000,0.001000,0.001000,0.001000,0.001000
1004.711538,-0.028605,0.001000,0.001000,0.001000,0.001000,0.001000
1004.730769,-0.027647,0.001000,0.001000,0.001000,0.001000,0.001000
1004.750000,-0.026675,0.001000,0.001000,0.001000,0.001000,0.001000
1004.769231,-0.025688,0.001000,0.001000,0.001000,0.001000,0.001000
1004.788462,-0.024688,0.001000,0.001000,0.001000,0.001000,0.001000
1004.807692,-0.023675,0.001000,0.001000,0.001000,0.001000,0.001000
1004.826923,-0.022648,0.001000,0.001000,0.001000,0.001000,0.001000
1004.846154,-0.021610,0.001000,0.001000,0.001000,0.001000,0.001000
1004.865385,-0.020560,0.001000,0.001000,0.001000,0.001000,0.001000
1004.884615,-0.019499,0.001000,0.001000,0.001000,0.001000,0.001000
1004.903846,-0.018428,0.001000,0.001000,0.001000,0.001000,0.001000
1004.923077,-0.017346,0.001000,0.001000,0.001000,0.001000,0.001000
1004.942308,-0.016256,0.001000,0.001000,0.001000,0.001000,0.001000
1004.961538,-0.015156,0.001000,0.001000,0.001000,0.001000,0.001000
1004.980769,-0.014049,0.001000,0.001000,0.001000,0.001000,0.001000
1005.000000,-0.012934,0.001000,0.001000,0.001000,0.001000,0.001000
1005.019231,-0.011812,0.001000,0.001000,0.001000,0.001000,0.001000
1005.038462,-0.010684,0.001000,0.001000,0.001000,0.001000,0.001000
1005.057692,-0.009550,0.001000,0.001000,0.001000,0.001000,0.001000
1005.076923,-0.008411,0.001000,0.001000,0.001000,0.001000,0.001000
1005.096154,-0.007267,0.001000,0.001000,0.001000,0.001000,0.001000
1005.115385,-0.006119,0.001000,0.001000,0.001000,0.001000,0.001000
1005.134615,-0.004969,0.001000,0.001000,0.001000,0.001000,0.001000
1005.153846,-0.003815,0.001000,0.001000,0.001000,0.001000,0.001000
1005.173077,-0.002660,0.001000,0.001000,0.001000,0.001000,0.001000
1005.192308,-0.001503,0.001000,0.001000,0.001000,0.001000,0.001000
1005.211538,-0.000345,0.001000,0.001000,0.001000,0.001000,0.001000
1005.230769,0.000813,0.001000,0.001000,0.001000,0.001000,0.001000
1005.250000,0.001971,0.001000,0.001000,0.001000,0.001000,0.001000
1005.269231,0.003127,0.001000,0.001000,0.001000,0.001000,0.001000
1005.288462,0.004282,0.001000,0.001000,0.001000,0.001000,0.001000
1005.307692,0.005434,0.001000,0.001000,0.001000,0.001000,0.001000
1005.326923,0.006584,0.001000,0.001000,0.001000,0.001000,0.001000
1005.346154,0.007730,0.001000,0.001000,0.001000,0.001000,0.001000
1005.365385,0.008872,0.001000,0.001000,0.001000,0.001000,0.001000
1005.384615,0.010009,0.001000,0.001000,0.001000,0.001000,0.001000
1005.403846,0.011141,0.001000,0.001000,0.001000,0.001000,0.001000
1005.423077,0.012266,0.001000,0.001000,0.001000,0.001000,0.001000
1005.442308,0.013386,0.001000,0.001000,0.001000,0.001000,0.001000
1005.461538,0.014498,0.001000,0.001000,0.001000,0.001000,0.001000
1005.480769,0.015602,0.001000,0.001000,0.001000,0.001000,0.001000
1005.500000,0.016698,0.001000,0.001000,0.001000,0.001000,0.001000
1005.519231,0.017785,0.001000,0.001000,0.001000,0.001000,0.001000
1005.538462,0.018862,0.001000,0.001000,0.001000,0.001000,0.001000
1005.557692,0.019929,0.001000,0.001000,0.001000,0.001000,0.001000
1005.576923,0.020986,0.001000,0.001000,0.001000,0.001000,0.001000
1005.596154,0.022031,0.001000,0.001000,0.001000,0.001000,0.001000
1005.615385,0.023065,0.001000,0.001000,0.001000,0.001000,0.001000
1005.634615,0.024086,0.001000,0.001000,0.001000,0.001000,0.001000
1005.653846,0.025094,0.001000,0.001000,0.001000,0.001000,0.001000
1005.673077,0.026089,0.001000,0.001000,0.001000,0.001000,0.001000
1005.692308,0.027070,0.001000,0.001000,0.001000,0.001000,0.001000
1005.711538,0.028036,0.001000,0.001000,0.001000,0.001000,0.001000
1005.730769,0.028987,0.001000,0.001000,0.001000,0.001000,0.001000
1005.750000,0.029923,0.001000,0.001000,0.001000,0.001000,0.001000
1005.769231,0.030842,0.001000,0.001000,0.001000,0.001000,0.001000
1005.788462,0.031746,0.001000,0.001000,0.001000,0.001000,0.001000
1005.807692,0.032632,0.001000,0.001000,0.001000,0.001000,0.001000
1005.826923,0.033500,0.001000,0.001000,0.001000,0.001000,0.001000
1005.846154,0.034351,0.001000,0.001000,0.001000,0.001000,0.001000
1005.865385,0.035183,0.001000,0.001000,0.001000,0.001000,0.001000
1005.884615,0.035996,0.001000,0.001000,0.001000,0.001000,0.001000
1005.903846,0.036790,0.001000,0.001000,0.001000,0.001000,0.001000
1005.923077,0.037564,0.001000,0.001000,0.001000,0.001000,0.001000
1005.942308,0.038318,0.001000,0.001000,0.001000,0.001000,0.001000
1005.961538,0.039052,0.001000,0.001000,0.001000,0.001000,0.001000
1005.980769,0.039765,0.001000,0.001000,0.001000,0.001000,0.001000
1006.000000,0.040456,0.001000,0.001000,0.001000,0.001000,0.001000
1006.019231,0.041125,0.001000,0.001000,0.001000,0.001000,0.001000
1006.038462,0.041773,0.001000,0.001000,0.001000,0.001000,0.001000
1006.057692,0.042398,0.001000,0.001000,0.001000,0.001000,0.001000
1006.076923,0.043000,0.001000,0.001000,0.001000,0.001000,0.001000
1006.096154,0.043580,0.001000,0.001000,0.001000,0.001000,0.001000
1006.115385,0.044136,0.001000,0.001000,0.001000,0.001000,0.001000
1006.134615,0.044668,0.001000,0.001000,0.001000,0.001000,0.001000
1006.153846,0.045176,0.001000,0.001000,0.001000,0.001000,0.001000
1006.173077,0.045660,0.001000,0.001000,0.001000,0.001000,0.001000
1006.192308,0.046120,0.001000,0.001000,0.001000,0.001000,0.001000
1006.211538,0.046555,0.001000,0.001000,0.001000,0.001000,0.001000
1006.230769,0.046965,0.001000,0.001000,0.001000,0.001000,0.001000
1006.250000,0.047349,0.001000,0.001000,0.001000,0.001000,0.001000
1006.269231,0.047709,0.001000,0.001000,0.001000,0.001000,0.001000
1006.288462,0.048042,0.001000,0.001000,0.001000,0.001000,0.001000
1006.307692,0.048350,0.001000,0.001000,0.001000,0.001000,0.001000
1006.326923,0.048632,0.001000,0.001000,0.001000,0.001000,0.001000
1006.346154,0.048888,0.001000,0.001000,0.001000,0.001000,0.001000
1006.365385,0.049118,0.001000,0.001000,0.001000,0.001000,0.001000
1006.384615,0.049321,0.001000,0.001000,0.001000,0.001000,0.001000
1006.403846,0.049498,0.001000,0.001000,0.001000,0.001000,0.001000
1006.423077,0.049649,0.001000,0.001000,0.001000,0.001000,0.001000
1006.442308,0.049772,0.001000,0.001000,0.001000,0.001000,0.001000
1006.461538,0.049869,0.001000,0.001000,0.001000,0.001000,0.001000
1006.480769,0.049940,0.001000,0.001000,0.001000,0.001000,0.001000
1006.500000,0.049983,0.001000,0.001000,0.001000,0.001000,0.001000
1006.519231,0.050000,0.001000,0.001000,0.001000,0.001000,0.001000
1006.538462,0.049990,0.001000,0.001000,0.001000,0.001000,0.001000
1006.557692,0.049953,0.001000,0.001000,0.001000,0.001000,0.001000
1006.576923,0.049889,0.001000,0.001000,0.001000,0.001000,0.001000
1006.596154,0.049799,0.001000,0.001000,0.001000,0.001000,0.001000
1006.615385,0.049681,0.001000,0.001000,0.001000,0.001000,0.001000
1006.634615,0.049537,0.001000,0.001000,0.001000,0.001000,0.001000
1006.653846,0.049367,0.001000,0.001000,0.001000,0.001000,0.001000
1006.673077,0.049170,0.001000,0.001000,0.001000,0.001000,0.001000
1006.692308,0.048947,0.001000,0.001000,0.001000,0.001000,0.001000
1006.711538,0.048697,0.001000,0.001000,0.001000,0.001000,0.001000
1006.730769,0.048422,0.001000,0.001000,0.001000,0.001000,0.001000
1006.750000,0.048120,0.001000,0.001000,0.001000,0.001000,0.001000
1006.769231,0.047793,0.001000,0.001000,0.001000,0.001000,0.001000
1006.788462,0.047440,0.001000,0.001000,0.001000,0.001000,0.001000
1006.807692,0.047061,0.001000,0.001000,0.001000,0.001000,0.001000
1006.826923,0.046657,0.001000,0.001000,0.001000,0.001000,0.001000
1006.846154,0.046229,0.001000,0.001000,0.001000,0.001000,0.001000
1006.865385,0.045775,0.001000,0.001000,0.001000,0.001000,0.001000
1006.884615,0.045297,0.001000,0.001000,0.001000,0.001000,0.001000
1006.903846,0.044795,0.001000,0.001000,0.001000,0.001000,0.001000
1006.923077,0.044268,0.001000,0.001000,0.001000,0.001000,0.001000
1006.942308,0.043718,0.001000,0.001000,0.001000,0.001000,0.001000
1006.961538,0.043144,0.001000,0.001000,0.001000,0.001000,0.001000
1006.980769,0.042548,0.001000,0.001000,0.001000,0.001000,0.001000
1007.000000,0.041928,0.001000,0.001000,0.001000,0.001000,0.001000
1007.019231,0.041286,0.001000,0.001000,0.001000,0.001000,0.001000
1007.038462,0.040622,0.001000,0.001000,0.001000,0.001000,0.001000
1007.057692,0.039936,0.001000,0.001000,0.001000,0.001000,0.001000
1007.076923,0.039228,0.001000,0.001000,0.001000,0.001000,0.001000
1007.096154,0.038500,0.001000,0.001000,0.001000,0.001000,0.001000
1007.115385,0.037751,0.001000,0.001000,0.001000,0.001000,0.001000
1007.134615,0.036981,0.001000,0.001000,0.001000,0.001000,0.001000
1007.153846,0.036192,0.001000,0.001000,0.001000,0.001000,0.001000
1007.173077,0.035384,0.001000,0.001000,0.001000,0.001000,0.001000
1007.192308,0.034556,0.001000,0.001000,0.001000,0.001000,0.001000
1007.211538,0.033710,0.001000,0.001000,0.001000,0.001000,0.001000
1007.230769,0.032846,0.001000,0.001000,0.001000,0.001000,0.001000
1007.250000,0.031964,0.001000,0.001000,0.001000,0.001000,0.001000
1007.269231,0.031065,0.001000,0.001000,0.001000,0.001000,0.001000
1007.288462,0.030149,0.001000,0.001000,0.001000,0.001000,0.001000
1007.307692,0.029218,0.001000,0.001000,0.001000,0.001000,0.001000
1007.326923,0.028270,0.001000,0.001000,0.001000,0.001000,0.001000
1007.346154,0.027308,0.001000,0.001000,0.001000,0.001000,0.001000
1007.365385,0.026330,0.001000,0.001000,0.001000,0.001000,0.001000
1007.384615,0.025339,0.001000,0.001000,0.001000,0.001000,0.001000
1007.403846,0.024334,0.001000,0.001000,0.001000,0.001000,0.001000
1007.423077,0.023316,0.001000,0.001000,0.001000,0.001000,0.001000
1007.442308,0.022285,0.001000,0.001000,0.001000,0.001000,0.001000
1007.461538,0.021243,0.001000,0.001000,0.001000,0.001000,0.001000
1007.480769,0.020189,0.001000,0.001000,0.001000,0.001000,0.001000
1007.500000,0.019124,0.001000,0.001000,0.001000,0.001000,0.001000
1007.519231,0.018049,0.001000,0.001000,0.001000,0.001000,0.001000
1007.538462,0.016965,0.001000,0.001000,0.001000,0.001000,0.001000
1007.557692,0.015871,0.001000,0.001000,0.001000,0.001000,0.001000
1007.576923,0.014769,0.001000,0.001000,0.001000,0.001000,0.001000
1007.596154,0.013658,0.001000,0.001000,0.001000,0.001000,0.001000
1007.615385,0.012541,0.001000,0.001000,0.001000,0.001000,0.001000
1007.634615,0.011417,0.001000,0.001000,0.001000,0.001000,0.001000
1007.653846,0.010286,0.001000,0.001000,0.001000,0.001000,0.001000
1007.673077,0.009150,0.001000,0.001000,0.001000,0.001000,0.001000
1007.692308,0.008010,0.001000,0.001000,0.001000,0.001000,0.001000
1007.711538,0.006865,0.001000,0.001000,0.001000,0.001000,0.001000
1007.730769,0.005716,0.001000,0.001000,0.001000,0.001000,0.001000
1007.750000,0.004564,0.001000,0.001000,0.001000,0.001000,0.001000
1007.769231,0.003410,0.001000,0.001000,0.001000,0.001000,0.001000
1007.788462,0.002254,0.001000,0.001000,0.001000,0.001000,0.001000
1007.807692,0.001096,0.001000,0.001000,0.001000,0.001000,0.001000
1007.826923,-0.000062,0.001000,0.001000,0.001000,0.001000,0.001000
1007.846154,-0.001219,0.001000,0.001000,0.001000,0.001000,0.001000
1007.865385,-0.002377,0.001000,0.001000,0.001000,0.001000,0.001000
1007.884615,-0.003533,0.001000,0.001000,0.001000,0.001000,0.001000
1007.903846,-0.004687,0.001000,0.001000,0.001000,0.001000,0.001000
1007.923077,-0.005838,0.001000,0.001000,0.001000,0.001000,0.001000
1007.942308,-0.006987,0.001000,0.001000,0.001000,0.001000,0.001000
1007.961538,-0.008131,0.001000,0.001000,0.001000,0.001000,0.001000
1007.980769,-0.009271,0.001000,0.001000,0.001000,0.001000,0.001000
1008.000000,-0.010407,0.001000,0.001000,0.001000,0.001000,0.001000
1008.019231,-0.011537,0.001000,0.001000,0.001000,0.001000,0.001000
1008.038462,-0.012660,0.001000,0.001000,0.001000,0.001000,0.001000
1008.057692,-0.013777,0.001000,0.001000,0.001000,0.001000,0.001000
1008.076923,-0.014886,0.001000,0.001000,0.001000,0.001000,0.001000
1008.096154,-0.015988,0.001000,0.001000,0.001000,0.001000,0.001000
1008.115385,-0.017080,0.001000,0.001000,0.001000,0.001000,0.001000
1008.134615,-0.018164,0.001000,0.001000,0.001000,0.001000,0.001000
1008.153846,-0.019238,0.001000,0.001000,0.001000,0.001000,0.001000
1008.173077,-0.020302,0.001000,0.001000,0.001000,0.001000,0.001000
1008.192308,-0.021354,0.001000,0.001000,0.001000,0.001000,0.001000
1008.211538,-0.022395,0.001000,0.001000,0.001000,0.001000,0.001000
1008.230769,-0.023425,0.001000,0.001000,0.001000,0.001000,0.001000
1008.250000,-0.024441,0.001000,0.001000,0.001000,0.001000,0.001000
1008.269231,-0.025445,0.001000,0.001000,0.001000,0.001000,0.001000
1008.288462,-0.026435,0.001000,0.001000,0.001000,0.001000,0.001000
1008.307692,-0.027411,0.001000,0.001000,0.001000,0.001000,0.001000
1008.326923,-0.028372,0.001000,0.001000,0.001000,0.001000,0.001000
1008.346154,-0.029317,0.001000,0.001000,0.001000,0.001000,0.001000
1008.365385,-0.030248,0.001000,0.001000,0.001000,0.001000,0.001000
1008.384615,-0.031161,0.001000,0.001000,0.001000,0.001000,0.001000
1008.403846,-0.032059,0.001000,0.001000,0.001000,0.001000,0.001000
1008.423077,-0.032939,0.001000,0.001000,0.001000,0.001000,0.001000
1008.442308,-0.033801,0.001000,0.001000,0.001000,0.001000,0.001000
1008.461538,-0.034645,0.001000,0.001000,0.001000,0.001000,0.001000
1008.480769,-0.035471,0.001000,0.001000,0.001000,0.001000,0.001000
1008.500000,-0.036277,0.001000,0.001000,0.001000,0.001000,0.001000
1008.519231,-0.037064,0.001000,0.001000,0.001000,0.001000,0.001000
1008.538462,-0.037831,0.001000,0.001000,0.001000,0.001000,0.001000
1008.557692,-0.038578,0.001000,0.001000,0.001000,0.001000,0.001000
1008.576923,-0.039305,0.001000,0.001000,0.001000,0.001000,0.001000
1008.596154,-0.040010,0.001000,0.001000,0.001000,0.001000,0.001000
1008.615385,-0.040693,0.001000,0.001000,0.001000,0.001000,0.001000
1008.634615,-0.041355,0.001000,0.001000,0.001000,0.001000,0.001000
1008.653846,-0.041995,0.001000,0.001000,0.001000,0.001000,0.001000
1008.673077,-0.042612,0.001000,0.001000,0.001000,0.001000,0.001000
1008.692308,-0.043207,0.001000,0.001000,0.001000,0.001000,0.001000
1008.711538,-0.043778,0.001000,0.001000,0.001000,0.001000,0.001000
1008.730769,-0.044325,0.001000,0.001000,0.001000,0.001000,0.001000
1008.750000,-0.044849,0.001000,0.001000,0.001000,0.001000,0.001000
1008.769231,-0.045349,0.001000,0.001000,0.001000,0.001000,0.001000
1008.788462,-0.045825,0.001000,0.001000,0.001000,0.001000,0.001000
1008.807692,-0.046275,0.001000,0.001000,0.001000,0.001000,0.001000
1008.826923,-0.046702,0.001000,0.001000,0.001000,0.001000,0.001000
1008.846154,-0.047103,0.001000,0.001000,0.001000,0.001000,0.001000
1008.865385,-0.047478,0.001000,0.001000,0.001000,0.001000,0.001000
1008.884615,-0.047829,0.001000,0.001000,0.001000,0.001000,0.001000
1008.903846,-0.048153,0.001000,0.001000,0.001000,0.001000,0.001000
1008.923077,-0.048452,0.001000,0.001000,0.001000,0.001000,0.001000
1008.942308,-0.048725,0.001000,0.001000,0.001000,0.001000,0.001000
1008.961538,-0.048972,0.001000,0.001000,0.001000,0.001000,0.001000
1008.980769,-0.049192,0.001000,0.001000,0.001000,0.001000,0.001000
1009.000000,-0.049386,0.001000,0.001000,0.001000,0.001000,0.001000
1009.019231,-0.049554,0.001000,0.001000,0.001000,0.001000,0.001000
1009.038462,-0.049695,0.001000,0.001000,0.001000,0.001000,0.001000
1009.057692,-0.049809,0.001000,0.001000,0.001000,0.001000,0.001000
1009.076923,-0.049897,0.001000,0.001000,0.001000,0.001000,0.001000
1009.096154,-0.049958,0.001000,0.001000,0.001000,0.001000,0.001000
1009.115385,-0.049992,0.001000,0.001000,0.001000,0.001000,0.001000
1009.134615,-0.049999,0.001000,0.001000,0.001000,0.001000,0.001000
1009.153846,-0.049980,0.001000,0.001000,0.001000,0.001000,0.001000
1009.173077,-0.049933,0.001000,0.001000,0.001000,0.001000,0.001000
1009.192308,-0.049860,0.001000,0.001000,0.001000,0.001000,0.001000
1009.211538,-0.049760,0.001000,0.001000,0.001000,0.001000,0.001000
1009.230769,-0.049634,0.001000,0.001000,0.001000,0.001000,0.001000
1009.250000,-0.049481,0.001000,0.001000,0.001000,0.001000,0.001000
1009.269231,-0.049301,0.001000,0.001000,0.001000,0.001000,0.001000
1009.288462,-0.049095,0.001000,0.001000,0.001000,0.001000,0.001000
1009.307692,-0.048862,0.001000,0.001000,0.001000,0.001000,0.001000
1009.326923,-0.048604,0.001000,0.001000,0.001000,0.001000,0.001000
1009.346154,-0.048319,0.001000,0.001000,0.001000,0.001000,0.001000
1009.365385,-0.048008,0.001000,0.001000,0.001000,0.001000,0.001000
1009.384615,-0.047672,0.001000,0.001000,0.001000,0.001000,0.001000
1009.403846,-0.047310,0.001000,0.001000,0.001000,0.001000,0.001000
1009.423077,-0.046922,0.001000,0.001000,0.001000,0.001000,0.001000
1009.442308,-0.046510,0.001000,0.001000,0.001000,0.001000,0.001000
1009.461538,-0.046072,0.001000,0.001000,0.001000,0.001000,0.001000
1009.480769,-0.045610,0.001000,0.001000,0.001000,0.001000,0.001000
1009.500000,-0.045123,0.001000,0.001000,0.001000,0.001000,0.001000
1009.519231,-0.044613,0.001000,0.001000,0.001000,0.001000,0.001000
1009.538462,-0.044078,0.001000,0.001000,0.001000,0.001000,0.001000
1009.557692,-0.043519,0.001000,0.001000,0.001000,0.001000,0.001000
1009.576923,-0.042938,0.001000,0.001000,0.001000,0.001000,0.001000
1009.596154,-0.042333,0.001000,0.001000,0.001000,0.001000,0.001000
1009.615385,-0.041705,0.001000,0.001000,0.001000,0.001000,0.001000
1009.634615,-0.041055,0.001000,0.001000,0.001000,0.001000,0.001000
1009.653846,-0.040383,0.001000,0.001000,0.001000,0.001000,0.001000
1009.673077,-0.039690,0.001000,0.001000,0.001000,0.001000,0.001000
1009.692308,-0.038975,0.001000,0.001000,0.001000,0.001000,0.001000
1009.711538,-0.038239,0.001000,0.001000,0.001000,0.001000,0.001000
1009.730769,-0.037483,0.001000,0.001000,0.001000,0.001000,0.001000
1009.750000,-0.036707,0.001000,0.001000,0.001000,0.001000,0.001000
1009.769231,-0.035911,0.001000,0.001000,0.001000,0.001000,0.001000
1009.788462,-0.035095,0.001000,0.001000,0.001000,0.001000,0.001000
1009.807692,-0.034261,0.001000,0.001000,0.001000,0.001000,0.001000
1009.826923,-0.033409,0.001000,0.001000,0.001000,0.001000,0.001000
1009.846154,-0.032538,0.001000,0.001000,0.001000,0.001000,0.001000
1009.865385,-0.031650,0.001000,0.001000,0.001000,0.001000,0.001000
1009.884615,-0.030745,0.001000,0.001000,0.001000,0.001000,0.001000
1009.903846,-0.029824,0.001000,0.001000,0.001000,0.001000,0.001000
1009.923077,-0.028887,0.001000,0.001000,0.001000,0.001000,0.001000
1009.942308,-0.027934,0.001000,0.001000,0.001000,0.001000,0.001000
1009.961538,-0.026966,0.001000,0.001000,0.001000,0.001000,0.001000
1009.980769,-0.025984,0.001000,0.001000,0.001000,0.001000,0.001000
1010.000000,-0.024988,0.001000,0.001000,0.001000,0.001000,0.001000
1010.019231,-0.023978,0.001000,0.001000,0.001000,0.001000,0.001000
1010.038462,-0.022955,0.001000,0.001000,0.001000,0.001000,0.001000
1010.057692,-0.021921,0.001000,0.001000,0.001000,0.001000,0.001000
1010.076923,-0.020874,0.001000,0.001000,0.001000,0.001000,0.001000
1010.096154,-0.019816,0.001000,0.001000,0.001000,0.001000,0.001000
1010.115385,-0.018748,0.001000,0.001000,0.001000,0.001000,0.001000
1010.134615,-0.017670,0.001000,0.001000,0.001000,0.001000,0.001000
1010.153846,-0.016582,0.001000,0.001000,0.001000,0.001000,0.001000
1010.173077,-0.015485,0.001000,0.001000,0.001000,0.001000,0.001000
1010.192308,-0.014380,0.001000,0.001000,0.001000,0.001000,0.001000
1010.211538,-0.013267,0.001000,0.001000,0.001000,0.001000,0.001000
1010.230769,-0.012147,0.001000,0.001000,0.001000,0.001000,0.001000
1010.250000,-0.011021,0.001000,0.001000,0.001000,0.001000,0.001000
1010.269231,-0.009888,0.001000,0.001000,0.001000,0.001000,0.001000
1010.288462,-0.008751,0.001000,0.001000,0.001000,0.001000,0.001000
1010.307692,-0.007608,0.001000,0.001000,0.001000,0.001000,0.001000
1010.326923,-0.006462,0.001000,0.001000,0.001000,0.001000,0.001000
1010.346154,-0.005312,0.001000,0.001000,0.001000,0.001000,0.001000
1010.365385,-0.004159,0.001000,0.001000,0.001000,0.001000,0.001000
1010.384615,-0.003004,0.001000,0.001000,0.001000,0.001000,0.001000
1010.403846,-0.001847,0.001000,0.001000,0.001000,0.001000,0.001000
1010.423077,-0.000690,0.001000,0.001000,0.001000,0.001000,0.001000
1010.442308,0.000468,0.001000,0.001000,0.001000,0.001000,0.001000
1010.461538,0.001626,0.001000,0.001000,0.001000,0.001000,0.001000
1010.480769,0.002783,0.001000,0.001000,0.001000,0.001000,0.001000
1010.500000,0.003938,0.001000,0.001000,0.001000,0.001000,0.001000
1010.519231,0.005091,0.001000,0.001000,0.001000,0.001000,0.001000
1010.538462,0.006242,0.001000,0.001000,0.001000,0.001000,0.001000
1010.557692,0.007389,0.001000,0.001000,0.001000,0.001000,0.001000
1010.576923,0.008532,0.001000,0.001000,0.001000,0.001000,0.001000
1010.596154,0.009671,0.001000,0.001000,0.001000,0.001000,0.001000
1010.615385,0.010804,0.001000,0.001000,0.001000,0.001000,0.001000
1010.634615,0.011932,0.001000,0.001000,0.001000,0.001000,0.001000
1010.653846,0.013053,0.001000,0.001000,0.001000,0.001000,0.001000
1010.673077,0.014167,0.001000,0.001000,0.001000,0.001000,0.001000
1010.692308,0.015274,0.001000,0.001000,0.001000,0.001000,0.001000
1010.711538,0.016372,0.001000,0.001000,0.001000,0.001000,0.001000
1010.730769,0.017462,0.001000,0.001000,0.001000,0.001000,0.001000
1010.750000,0.018542,0.001000,0.001000,0.001000,0.001000,0.001000
1010.769231,0.019613,0.001000,0.001000,0.001000,0.001000,0.001000
1010.788462,0.020672,0.001000,0.001000,0.001000,0.001000,0.001000
1010.807692,0.021721,0.001000,0.001000,0.001000,0.001000,0.001000
1010.826923,0.022758,0.001000,0.001000,0.001000,0.001000,0.001000
1010.846154,0.023783,0.001000,0.001000,0.001000,0.001000,0.001000
1010.865385,0.024795,0.001000,0.001000,0.001000,0.001000,0.001000
1010.884615,0.025794,0.001000,0.001000,0.001000,0.001000,0.001000
1010.903846,0.026779,0.001000,0.001000,0.001000,0.001000,0.001000
1010.923077,0.027750,0.001000,0.001000,0.001000,0.001000,0.001000
1010.942308,0.028705,0.001000,0.001000,0.001000,0.001000,0.001000
1010.961538,0.029646,0.001000,0.001000,0.001000,0.001000,0.001000
1010.980769,0.030570,0.001000,0.001000,0.001000,0.001000,0.001000
1011.000000,0.031478,0.001000,0.001000,0.001000,0.001000,0.001000
1011.019231,0.032369,0.001000,0.001000,0.001000,0.001000,0.001000
1011.038462,0.033243,0.001000,0.001000,0.001000,0.001000,0.001000
1011.057692,0.034099,0.001000,0.001000,0.001000,0.001000,0.001000
1011.076923,0.034937,0.001000,0.001000,0.001000,0.001000,0.001000
1011.096154,0.035756,0.001000,0.001000,0.001000,0.001000,0.001000
1011.115385,0.036556,0.001000,0.001000,0.001000,0.001000,0.001000
1011.134615,0.037336,0.001000,0.001000,0.001000,0.001000,0.001000
1011.153846,0.038096,0.001000,0.001000,0.001000,0.001000,0.001000
1011.173077,0.038836,0.001000,0.001000,0.001000,0.001000,0.001000
1011.192308,0.039555,0.001000,0.001000,0.001000,0.001000,0.001000
1011.211538,0.040252,0.001000,0.001000,0.001000,0.001000,0.001000
1011.230769,0.040928,0.001000,0.001000,0.001000,0.001000,0.001000
1011.250000,0.041582,0.001000,0.001000,0.001000,0.001000,0.001000
1011.269231,0.042214,0.001000,0.001000,0.001000,0.001000,0.001000
1011.288462,0.042823,0.001000,0.001000,0.001000,0.001000,0.001000
1011.307692,0.043410,0.001000,0.001000,0.001000,0.001000,0.001000
1011.326923,0.043973,0.001000,0.001000,0.001000,0.001000,0.001000
1011.346154,0.044512,0.001000,0.001000,0.001000,0.001000,0.001000
1011.365385,0.045027,0.001000,0.001000,0.001000,0.001000,0.001000
1011.384615,0.045519,0.001000,0.001000,0.001000,0.001000,0.001000
1011.403846,0.045986,0.001000,0.001000,0.001000,0.001000,0.001000
1011.423077,0.046428,0.001000,0.001000,0.001000,0.001000,0.001000
1011.442308,0.046845,0.001000,0.001000,0.001000,0.001000,0.001000
1011.461538,0.047237,0.001000,0.001000,0.001000,0.001000,0.001000
1011.480769,0.047604,0.001000,0.001000,0.001000,0.001000,0.001000
1011.500000,0.047946,0.001000,0.001000,0.001000,0.001000,0.001000
1011.519231,0.048261,0.001000,0.001000,0.001000,0.001000,0.001000
1011.538462,0.048551,0.001000,0.001000,0.001000,0.001000,0.001000
1011.557692,0.048815,0.001000,0.001000,0.001000,0.001000,0.001000
1011.576923,0.049052,0.001000,0.001000,0.001000,0.001000,0.001000
1011.596154,0.049263,0.001000,0.001000,0.001000,0.001000,0.001000
1011.615385,0.049448,0.001000,0.001000,0.001000,0.001000,0.001000
1011.634615,0.049607,0.001000,0.001000,0.001000,0.001000,0.001000
1011.653846,0.049738,0.001000,0.001000,0.001000,0.001000,0.001000
1011.673077,0.049843,0.001000,0.001000,0.001000,0.001000,0.001000
1011.692308,0.049921,0.001000,0.001000,0.001000,0.001000,0.001000
1011.711538,0.049973,0.001000,0.001000,0.001000,0.001000,0.001000
1011.730769,0.049998,0.001000,0.001000,0.001000,0.001000,0.001000
1011.750000,0.049995,0.001000,0.001000,0.001000,0.001000,0.001000
1011.769231,0.049967,0.001000,0.001000,0.001000,0.001000,0.001000
1011.788462,0.049911,0.001000,0.001000,0.001000,0.001000,0.001000
1011.807692,0.049828,0.001000,0.001000,0.001000,0.001000,0.001000
1011.826923,0.049719,0.001000,0.001000,0.001000,0.001000,0.001000
1011.846154,0.049583,0.001000,0.001000,0.001000,0.001000,0.001000
1011.865385,0.049421,0.001000,0.001000,0.001000,0.001000,0.001000
1011.884615,0.049232,0.001000,0.001000,0.001000,0.001000,0.001000
1011.903846,0.049016,0.001000,0.001000,0.001000,0.001000,0.001000
1011.923077,0.048774,0.001000,0.001000,0.001000,0.001000,0.001000
1011.942308,0.048507,0.001000,0.001000,0.001000,0.001000,0.001000
1011.961538,0.048213,0.001000,0.001000,0.001000,0.001000,0.001000
1011.980769,0.047893,0.001000,0.001000,0.001000,0.001000,0.001000
1012.000000,0.047548,0.001000,0.001000,0.001000,0.001000,0.001000
1012.019231,0.047177,0.001000,0.001000,0.001000,0.001000,0.001000
1012.038462,0.046780,0.001000,0.001000,0.001000,0.001000,0.001000
1012.057692,0.046359,0.001000,0.001000,0.001000,0.001000,0.001000
1012.076923,0.045913,0.001000,0.001000,0.001000,0.001000,0.001000
1012.096154,0.045442,0.001000,0.001000,0.001000,0.001000,0.001000
1012.115385,0.044947,0.001000,0.001000,0.001000,0.001000,0.001000
1012.134615,0.044427,0.001000,0.001000,0.001000,0.001000,0.001000
1012.153846,0.043884,0.001000,0.001000,0.001000,0.001000,0.001000
1012.173077,0.043318,0.001000,0.001000,0.001000,0.001000,0.001000
1012.192308,0.042728,0.001000,0.001000,0.001000,0.001000,0.001000
1012.211538,0.042115,0.001000,0.001000,0.001000,0.001000,0.001000
1012.230769,0.041480,0.001000,0.001000,0.001000,0.001000,0.001000
1012.250000,0.040822,0.001000,0.001000,0.001000,0.001000,0.001000
1012.269231,0.040142,0.001000,0.001000,0.001000,0.001000,0.001000
1012.288462,0.039441,0.001000,0.001000,0.001000,0.001000,0.001000
1012.307692,0.038719,0.001000,0.001000,0.001000,0.001000,0.001000
1012.326923,0.037976,0.001000,0.001000,0.001000,0.001000,0.001000
1012.346154,0.037213,0.001000,0.001000,0.001000,0.001000,0.001000
1012.365385,0.036429,0.001000,0.001000,0.001000,0.001000,0.001000
1012.384615,0.035627,0.001000,0.001000,0.001000,0.001000,0.001000
1012.403846,0.034805,0.001000,0.001000,0.001000,0.001000,0.001000
1012.423077,0.033964,0.001000,0.001000,0.001000,0.001000,0.001000
1012.442308,0.033105,0.001000,0.001000,0.001000,0.001000,0.001000
1012.461538,0.032228,0.001000,0.001000,0.001000,0.001000,0.001000
1012.480769,0.031335,0.001000,0.001000,0.001000,0.001000,0.001000
1012.500000,0.030424,0.001000,0.001000,0.001000,0.001000,0.001000
1012.519231,0.029497,0.001000,0.001000,0.001000,0.001000,0.001000
1012.538462,0.028554,0.001000,0.001000,0.001000,0.001000,0.001000
1012.557692,0.027596,0.001000,0.001000,0.001000,0.001000,0.001000
1012.576923,0.026623,0.001000,0.001000,0.001000,0.001000,0.001000
1012.596154,0.025636,0.001000,0.001000,0.001000,0.001000,0.001000
1012.615385,0.024635,0.001000,0.001000,0.001000,0.001000,0.001000
1012.634615,0.023620,0.001000,0.001000,0.001000,0.001000,0.001000
1012.653846,0.022594,0.001000,0.001000,0.001000,0.001000,0.001000
1012.673077,0.021555,0.001000,0.001000,0.001000,0.001000,0.001000
1012.692308,0.020504,0.001000,0.001000,0.001000,0.001000,0.001000
1012.711538,0.019442,0.001000,0.001000,0.001000,0.001000,0.001000
1012.730769,0.018371,0.001000,0.001000,0.001000,0.001000,0.001000
1012.750000,0.017289,0.001000,0.001000,0.001000,0.001000,0.001000
1012.769231,0.016198,0.001000,0.001000,0.001000,0.001000,0.001000
1012.788462,0.015098,0.001000,0.001000,0.001000,0.001000,0.001000
1012.807692,0.013990,0.001000,0.001000,0.001000,0.001000,0.001000
1012.826923,0.012875,0.001000,0.001000,0.001000,0.001000,0.001000
1012.846154,0.011752,0.001000,0.001000,0.001000,0.001000,0.001000
1012.865385,0.010624,0.001000,0.001000,0.001000,0.001000,0.001000
1012.884615,0.009489,0.001000,0.001000,0.001000,0.001000,0.001000
1012.903846,0.008350,0.001000,0.001000,0.001000,0.001000,0.001000
1012.923077,0.007206,0.001000,0.001000,0.001000,0.001000,0.001000
1012.942308,0.006058,0.001000,0.001000,0.001000,0.001000,0.001000
1012.961538,0.004907,0.001000,0.001000,0.001000,0.001000,0.001000
1012.980769,0.003754,0.001000,0.001000,0.001000,0.001000,0.001000
1013.000000,0.002598,0.001000,0.001000,0.001000,0.001000,0.001000
1013.019231,0.001441,0.001000,0.001000,0.001000,0.001000,0.001000
1013.038462,0.000283,0.001000,0.001000,0.001000,0.001000,0.001000
1013.057692,-0.000875,0.001000,0.001000,0.001000,0.001000,0.001000
1013.076923,-0.002032,0.001000,0.001000,0.001000,0.001000,0.001000
1013.096154,-0.003188,0.001000,0.001000,0.001000,0.001000,0.001000
1013.115385,-0.004343,0.001000,0.001000,0.001000,0.001000,0.001000
1013.134615,-0.005495,0.001000,0.001000,0.001000,0.001000,0.001000
1013.153846,-0.006645,0.001000,0.001000,0.001000,0.001000,0.001000
1013.173077,-0.007791,0.001000,0.001000,0.001000,0.001000,0.001000
1013.192308,-0.008932,0.001000,0.001000,0.001000,0.001000,0.001000
1013.211538,-0.010069,0.001000,0.001000,0.001000,0.001000,0.001000
1013.230769,-0.011201,0.001000,0.001000,0.001000,0.001000,0.001000
1013.250000,-0.012326,0.001000,0.001000,0.001000,0.001000,0.001000
1013.269231,-0.013445,0.001000,0.001000,0.001000,0.001000,0.001000
1013.288462,-0.014557,0.001000,0.001000,0.001000,0.001000,0.001000
1013.307692,-0.015660,0.001000,0.001000,0.001000,0.001000,0.001000
1013.326923,-0.016756,0.001000,0.001000,0.001000,0.001000,0.001000
1013.346154,-0.017842,0.001000,0.001000,0.001000,0.001000,0.001000
1013.365385,-0.018919,0.001000,0.001000,0.001000,0.001000,0.001000
1013.384615,-0.019986,0.001000,0.001000,0.001000,0.001000,0.001000
1013.403846,-0.021042,0.001000,0.001000,0.001000,0.001000,0.001000
1013.423077,-0.022087,0.001000,0.001000,0.001000,0.001000,0.001000
1013.442308,-0.023119,0.001000,0.001000,0.001000,0.001000,0.001000
1013.461538,-0.024140,0.001000,0.001000,0.001000,0.001000,0.001000
1013.480769,-0.025147,0.001000,0.001000,0.001000,0.001000,0.001000
1013.500000,-0.026141,0.001000,0.001000,0.001000,0.001000,0.001000
1013.519231,-0.027121,0.001000,0.001000,0.001000,0.001000,0.001000
1013.538462,-0.028087,0.001000,0.001000,0.001000,0.001000,0.001000
1013.557692,-0.029037,0.001000,0.001000,0.001000,0.001000,0.001000
1013.576923,-0.029972,0.001000,0.001000,0.001000,0.001000,0.001000
1013.596154,-0.030891,0.001000,0.001000,0.001000,0.001000,0.001000
1013.615385,-0.031793,0.001000,0.001000,0.001000,0.001000,0.001000
1013.634615,-0.032678,0.001000,0.001000,0.001000,0.001000,0.001000
1013.653846,-0.033546,0.001000,0.001000,0.001000,0.001000,0.001000
1013.673077,-0.034395,0.001000,0.001000,0.001000,0.001000,0.001000
1013.692308,-0.035227,0.001000,0.001000,0.001000,0.001000,0.001000
1013.711538,-0.036039,0.001000,0.001000,0.001000,0.001000,0.001000
1013.730769,-0.036832,0.001000,0.001000,0.001000,0.001000,0.001000
1013.750000,-0.037605,0.001000,0.001000,0.001000,0.001000,0.001000
1013.769231,-0.038358,0.001000,0.001000,0.001000,0.001000,0.001000
1013.788462,-0.039090,0.001000,0.001000,0.001000,0.001000,0.001000
1013.807692,-0.039802,0.001000,0.001000,0.001000,0.001000,0.001000
1013.826923,-0.040492,0.001000,0.001000,0.001000,0.001000,0.001000
1013.846154,-0.041160,0.001000,0.001000,0.001000,0.001000,0.001000
1013.865385,-0.041807,0.001000,0.001000,0.001000,0.001000,0.001000
1013.884615,-0.042431,0.001000,0.001000,0.001000,0.001000,0.001000
1013.903846,-0.043032,0.001000,0.001000,0.001000,0.001000,0.001000
1013.923077,-0.043610,0.001000,0.001000,0.001000,0.001000,0.001000
1013.942308,-0.044165,0.001000,0.001000,0.001000,0.001000,0.001000
1013.961538,-0.044696,0.001000,0.001000,0.001000,0.001000,0.001000
1013.980769,-0.045203,0.001000,0.001000,0.001000,0.001000,0.001000
1014.000000,-0.045685,0.001000,0.001000,0.001000,0.001000,0.001000
1014.019231,-0.046144,0.001000,0.001000,0.001000,0.001000,0.001000
1014.038462,-0.046577,0.001000,0.001000,0.001000,0.001000,0.001000
1014.057692,-0.046986,0.001000,0.001000,0.001000,0.001000,0.001000
1014.076923,-0.047369,0.001000,0.001000,0.001000,0.001000,0.001000
1014.096154,-0.047727,0.001000,0.001000,0.001000,0.001000,0.001000
1014.115385,-0.048059,0.001000,0.001000,0.001000,0.001000,0.001000
1014.134615,-0.048366,0.001000,0.001000,0.001000,0.001000,0.001000
1014.153846,-0.048647,0.001000,0.001000,0.001000,0.001000,0.001000
1014.173077,-0.048901,0.001000,0.001000,0.001000,0.001000,0.001000
1014.192308,-0.049129,0.001000,0.001000,0.001000,0.001000,0.001000
1014.211538,-0.049331,0.001000,0.001000,0.001000,0.001000,0.001000
1014.230769,-0.049507,0.001000,0.001000,0.001000,0.001000,0.001000
1014.250000,-0.049656,0.001000,0.001000,0.001000,0.001000,0.001000
1014.269231,-0.049778,0.001000,0.001000,0.001000,0.001000,0.001000
1014.288462,-0.049874,0.001000,0.001000,0.001000,0.001000,0.001000
1014.307692,-0.049943,0.001000,0.001000,0.001000,0.001000,0.001000
1014.326923,-0.049985,0.001000,0.001000,0.001000,0.001000,0.001000
1014.346154,-0.050000,0.001000,0.001000,0.001000,0.001000,0.001000
1014.365385,-0.049988,0.001000,0.001000,0.001000,0.001000,0.001000
1014.384615,-0.049950,0.001000,0.001000,0.001000,0.001000,0.001000
1014.403846,-0.049885,0.001000,0.001000,0.001000,0.001000,0.001000
1014.423077,-0.049793,0.001000,0.001000,0.001000,0.001000,0.001000
1014.442308,-0.049674,0.001000,0.001000,0.001000,0.001000,0.001000
1014.461538,-0.049529,0.001000,0.001000,0.001000,0.001000,0.001000
1014.480769,-0.049357,0.001000,0.001000,0.001000,0.001000,0.001000
1014.500000,-0.049159,0.001000,0.001000,0.001000,0.001000,0.001000
1014.519231,-0.048934,0.001000,0.001000,0.001000,0.001000,0.001000
1014.538462,-0.048683,0.001000,0.001000,0.001000,0.001000,0.001000
1014.557692,-0.048406,0.001000,0.001000,0.001000,0.001000,0.001000
1014.576923,-0.048103,0.001000,0.001000,0.001000,0.001000,0.001000
1014.596154,-0.047775,0.001000,0.001000,0.001000,0.001000,0.001000
1014.615385,-0.047420,0.001000,0.001000,0.001000,0.001000,0.001000
1014.634615,-0.047040,0.001000,0.001000,0.001000,0.001000,0.001000
1014.653846,-0.046635,0.001000,0.001000,0.001000,0.001000,0.001000
1014.673077,-0.046205,0.001000,0.001000,0.001000,0.001000,0.001000
1014.692308,-0.045750,0.001000,0.001000,0.001000,0.001000,0.001000
1014.711538,-0.045271,0.001000,0.001000,0.001000,0.001000,0.001000
1014.730769,-0.044767,0.001000,0.001000,0.001000,0.001000,0.001000
1014.750000,-0.044240,0.001000,0.001000,0.001000,0.001000,0.001000
1014.769231,-0.043688,0.001000,0.001000,0.001000,0.001000,0.001000
1014.788462,-0.043113,0.001000,0.001000,0.001000,0.001000,0.001000
1014.807692,-0.042515,0.001000,0.001000,0.001000,0.001000,0.001000
1014.826923,-0.041894,0.001000,0.001000,0.001000,0.001000,0.001000
1014.846154,-0.041251,0.001000,0.001000,0.001000,0.001000,0.001000
1014.865385,-0.040586,0.001000,0.001000,0.001000,0.001000,0.001000
1014.884615,-0.039899,0.001000,0.001000,0.001000,0.001000,0.001000
1014.903846,-0.039190,0.001000,0.001000,0.001000,0.001000,0.001000
1014.923077,-0.038461,0.001000,0.001000,0.001000,0.001000,0.001000
1014.942308,-0.037710,0.001000,0.001000,0.001000,0.001000,0.001000
1014.961538,-0.036940,0.001000,0.001000,0.001000,0.001000,0.001000
1014.980769,-0.036150,0.001000,0.001000,0.001000,0.001000,0.001000
1015.000000,-0.035340,0.001000,0.001000,0.001000,0.001000,0.001000
1015.019231,-0.034512,0.001000,0.001000,0.001000,0.001000,0.001000
1015.038462,-0.033664,0.001000,0.001000,0.001000,0.001000,0.001000
1015.057692,-0.032799,0.001000,0.001000,0.001000,0.001000,0.001000
1015.076923,-0.031917,0.001000,0.001000,0.001000,0.001000,0.001000
1015.096154,-0.031017,0.001000,0.001000,0.001000,0.001000,0.001000
1015.115385,-0.030100,0.001000,0.001000,0.001000,0.001000,0.001000
1015.134615,-0.029168,0.001000,0.001000,0.001000,0.001000,0.001000
1015.153846,-0.028219,0.001000,0.001000,0.001000,0.001000,0.001000
1015.173077,-0.027256,0.001000,0.001000,0.001000,0.001000,0.001000
1015.192308,-0.026278,0.001000,0.001000,0.001000,0.001000,0.001000
1015.211538,-0.025286,0.001000,0.001000,0.001000,0.001000,0.001000
1015.230769,-0.024280,0.001000,0.001000,0.001000,0.001000,0.001000
1015.250000,-0.023261,0.001000,0.001000,0.001000,0.001000,0.001000
1015.269231,-0.022230,0.001000,0.001000,0.001000,0.001000,0.001000
1015.288462,-0.021187,0.001000,0.001000,0.001000,0.001000,0.001000
1015.307692,-0.020133,0.001000,0.001000,0.001000,0.001000,0.001000
1015.326923,-0.019067,0.001000,0.001000,0.001000,0.001000,0.001000
1015.346154,-0.017992,0.001000,0.001000,0.001000,0.001000,0.001000
1015.365385,-0.016907,0.001000,0.001000,0.001000,0.001000,0.001000
1015.384615,-0.015812,0.001000,0.001000,0.001000,0.001000,0.001000
1015.403846,-0.014710,0.001000,0.001000,0.001000,0.001000,0.001000
1015.423077,-0.013599,0.001000,0.001000,0.001000,0.001000,0.001000
1015.442308,-0.012481,0.001000,0.001000,0.001000,0.001000,0.001000
1015.461538,-0.011357,0.001000,0.001000,0.001000,0.001000,0.001000
1015.480769,-0.010226,0.001000,0.001000,0.001000,0.001000,0.001000
1015.500000,-0.009090,0.001000,0.001000,0.001000,0.001000,0.001000
1015.519231,-0.007949,0.001000,0.001000,0.001000,0.001000,0.001000
1015.538462,-0.006804,0.001000,0.001000,0.001000,0.001000,0.001000
1015.557692,-0.005655,0.001000,0.001000,0.001000,0.001000,0.001000
1015.576923,-0.004503,0.001000,0.001000,0.001000,0.001000,0.001000
1015.596154,-0.003348,0.001000,0.001000,0.001000,0.001000,0.001000
1015.615385,-0.002192,0.001000,0.001000,0.001000,0.001000,0.001000
1015.634615,-0.001035,0.001000,0.001000,0.001000,0.001000,0.001000
1015.653846,0.000123,0.001000,0.001000,0.001000,0.001000,0.001000
1015.673077,0.001281,0.001000,0.001000,0.001000,0.001000,0.001000
1015.692308,0.002438,0.001000,0.001000,0.001000,0.001000,0.001000
1015.711538,0.003594,0.001000,0.001000,0.001000,0.001000,0.001000
1015.730769,0.004748,0.001000,0.001000,0.001000,0.001000,0.001000
1015.750000,0.005899,0.001000,0.001000,0.001000,0.001000,0.001000
1015.769231,0.007048,0.001000,0.001000,0.001000,0.001000,0.001000
1015.788462,0.008192,0.001000,0.001000,0.001000,0.001000,0.001000
1015.807692,0.009332,0.001000,0.001000,0.001000,0.001000,0.001000
1015.826923,0.010467,0.001000,0.001000,0.001000,0.001000,0.001000
1015.846154,0.011596,0.001000,0.001000,0.001000,0.001000,0.001000
1015.865385,0.012720,0.001000,0.001000,0.001000,0.001000,0.001000
1015.884615,0.013836,0.001000,0.001000,0.001000,0.001000,0.001000
1015.903846,0.014945,0.001000,0.001000,0.001000,0.001000,0.001000
1015.923077,0.016046,0.001000,0.001000,0.001000,0.001000,0.001000
1015.942308,0.017138,0.001000,0.001000,0.001000,0.001000,0.001000
1015.961538,0.018221,0.001000,0.001000,0.001000,0.001000,0.001000
1015.980769,0.019295,0.001000,0.001000,0.001000,0.001000,0.001000
1016.000000,0.020358,0.001000,0.001000,0.001000,0.001000,0.001000
1016.019231,0.021410,0.001000,0.001000,0.001000,0.001000,0.001000
1016.038462,0.022451,0.001000,0.001000,0.001000,0.001000,0.001000
1016.057692,0.023479,0.001000,0.001000,0.001000,0.001000,0.001000
1016.076923,0.024495,0.001000,0.001000,0.001000,0.001000,0.001000
1016.096154,0.025498,0.001000,0.001000,0.001000,0.001000,0.001000
1016.115385,0.026487,0.001000,0.001000,0.001000,0.001000,0.001000
1016.134615,0.027462,0.001000,0.001000,0.001000,0.001000,0.001000
1016.153846,0.028422,0.001000,0.001000,0.001000,0.001000,0.001000
1016.173077,0.029367,0.001000,0.001000,0.001000,0.001000,0.001000
1016.192308,0.030297,0.001000,0.001000,0.001000,0.001000,0.001000
1016.211538,0.031210,0.001000,0.001000,0.001000,0.001000,0.001000
1016.230769,0.032106,0.001000,0.001000,0.001000,0.001000,0.001000
1016.250000,0.032985,0.001000,0.001000,0.001000,0.001000,0.001000
1016.269231,0.033846,0.001000,0.001000,0.001000,0.001000,0.001000
1016.288462,0.034689,0.001000,0.001000,0.001000,0.001000,0.001000
1016.307692,0.035514,0.001000,0.001000,0.001000,0.001000,0.001000
1016.326923,0.036319,0.001000,0.001000,0.001000,0.001000,0.001000
1016.346154,0.037106,0.001000,0.001000,0.001000,0.001000,0.001000
1016.365385,0.037872,0.001000,0.001000,0.001000,0.001000,0.001000
1016.384615,0.038618,0.001000,0.001000,0.001000,0.001000,0.001000
1016.403846,0.039343,0.001000,0.001000,0.001000,0.001000,0.001000
1016.423077,0.040047,0.001000,0.001000,0.001000,0.001000,0.001000
1016.442308,0.040729,0.001000,0.001000,0.001000,0.001000,0.001000
1016.461538,0.041390,0.001000,0.001000,0.001000,0.001000,0.001000
1016.480769,0.042028,0.001000,0.001000,0.001000,0.001000,0.001000
1016.500000,0.042644,0.001000,0.001000,0.001000,0.001000,0.001000
1016.519231,0.043237,0.001000,0.001000,0.001000,0.001000,0.001000
1016.538462,0.043807,0.001000,0.001000,0.001000,0.001000,0.001000
1016.557692,0.044354,0.001000,0.001000,0.001000,0.001000,0.001000
1016.576923,0.044876,0.001000,0.001000,0.001000,0.001000,0.001000
1016.596154,0.045375,0.001000,0.001000,0.001000,0.001000,0.001000
1016.615385,0.045849,0.001000,0.001000,0.001000,0.001000,0.001000
1016.634615,0.046299,0.001000,0.001000,0.001000,0.001000,0.001000
1016.653846,0.046724,0.001000,0.001000,0.001000,0.001000,0.001000
1016.673077,0.047123,0.001000,0.001000,0.001000,0.001000,0.001000
1016.692308,0.047498,0.001000,0.001000,0.001000,0.001000,0.001000
1016.711538,0.047847,0.001000,0.001000,0.001000,0.001000,0.001000
1016.730769,0.048170,0.001000,0.001000,0.001000,0.001000,0.001000
1016.750000,0.048467,0.001000,0.001000,0.001000,0.001000,0.001000
1016.769231,0.048739,0.001000,0.001000,0.001000,0.001000,0.001000
1016.788462,0.048984,0.001000,0.001000,0.001000,0.001000,0.001000
1016.807692,0.049203,0.001000,0.001000,0.001000,0.001000,0.001000
1016.826923,0.049396,0.001000,0.001000,0.001000,0.001000,0.001000
1016.846154,0.049562,0.001000,0.001000,0.001000,0.001000,0.001000
1016.865385,0.049702,0.001000,0.001000,0.001000,0.001000,0.001000
1016.884615,0.049815,0.001000,0.001000,0.001000,0.001000,0.001000
1016.903846,0.049901,0.001000,0.001000,0.001000,0.001000,0.001000
1016.923077,0.049960,0.001000,0.001000,0.001000,0.001000,0.001000
1016.942308,0.049993,0.001000,0.001000,0.001000,0.001000,0.001000
1016.961538,0.049999,0.001000,0.001000,0.001000,0.001000,0.001000
1016.980769,0.049978,0.001000,0.001000,0.001000,0.001000,0.001000
1017.000000,0.049930,0.001000,0.001000,0.001000,0.001000,0.001000
1017.019231,0.049856,0.001000,0.001000,0.001000,0.001000,0.001000
1017.038462,0.049754,0.001000,0.001000,0.001000,0.001000,0.001000
1017.057692,0.049626,0.001000,0.001000,0.001000,0.001000,0.001000
1017.076923,0.049472,0.001000,0.001000,0.001000,0.001000,0.001000
1017.096154,0.049291,0.001000,0.001000,0.001000,0.001000,0.001000
1017.115385,0.049083,0.001000,0.001000,0.001000,0.001000,0.001000
1017.134615,0.048849,0.001000,0.001000,0.001000,0.001000,0.001000
1017.153846,0.048589,0.001000,0.001000,0.001000,0.001000,0.001000
1017.173077,0.048303,0.001000,0.001000,0.001000,0.001000,0.001000
1017.192308,0.047991,0.001000,0.001000,0.001000,0.001000,0.001000
1017.211538,0.047653,0.001000,0.001000,0.001000,0.001000,0.001000
1017.230769,0.047290,0.001000,0.001000,0.001000,0.001000,0.001000
1017.250000,0.046901,0.001000,0.001000,0.001000,0.001000,0.001000
1017.269231,0.046487,0.001000,0.001000,0.001000,0.001000,0.001000
1017.288462,0.046048,0.001000,0.001000,0.001000,0.001000,0.001000
1017.307692,0.045585,0.001000,0.001000,0.001000,0.001000,0.001000
1017.326923,0.045097,0.001000,0.001000,0.001000,0.001000,0.001000
1017.346154,0.044585,0.001000,0.001000,0.001000,0.001000,0.001000
1017.365385,0.044049,0.001000,0.001000,0.001000,0.001000,0.001000
1017.384615,0.043489,0.001000,0.001000,0.001000,0.001000,0.001000
1017.403846,0.042906,0.001000,0.001000,0.001000,0.001000,0.001000
1017.423077,0.042300,0.001000,0.001000,0.001000,0.001000,0.001000
1017.442308,0.041671,0.001000,0.001000,0.001000,0.001000,0.001000
1017.461538,0.041020,0.001000,0.001000,0.001000,0.001000,0.001000
1017.480769,0.040347,0.001000,0.001000,0.001000,0.001000,0.001000
1017.500000,0.039652,0.001000,0.001000,0.001000,0.001000,0.001000
1017.519231,0.038936,0.001000,0.001000,0.001000,0.001000,0.001000
1017.538462,0.038200,0.001000,0.001000,0.001000,0.001000,0.001000
1017.557692,0.037442,0.001000,0.001000,0.001000,0.001000,0.001000
1017.576923,0.036665,0.001000,0.001000,0.001000,0.001000,0.001000
1017.596154,0.035868,0.001000,0.001000,0.001000,0.001000,0.001000
1017.615385,0.035051,0.001000,0.001000,0.001000,0.001000,0.001000
1017.634615,0.034216,0.001000,0.001000,0.001000,0.001000,0.001000
1017.653846,0.033363,0.001000,0.001000,0.001000,0.001000,0.001000
1017.673077,0.032491,0.001000,0.001000,0.001000,0.001000,0.001000
1017.692308,0.031603,0.001000,0.001000,0.001000,0.001000,0.001000
1017.711538,0.030697,0.001000,0.001000,0.001000,0.001000,0.001000
1017.730769,0.029775,0.001000,0.001000,0.001000,0.001000,0.001000
1017.750000,0.028836,0.001000,0.001000,0.001000,0.001000,0.001000
1017.769231,0.027883,0.001000,0.001000,0.001000,0.001000,0.001000
1017.788462,0.026914,0.001000,0.001000,0.001000,0.001000,0.001000
1017.807692,0.025931,0.001000,0.001000,0.001000,0.001000,0.001000
1017.826923,0.024934,0.001000,0.001000,0.001000,0.001000,0.001000
1017.846154,0.023924,0.001000,0.001000,0.001000,0.001000,0.001000
1017.865385,0.022901,0.001000,0.001000,0.001000,0.001000,0.001000
1017.884615,0.021865,0.001000,0.001000,0.001000,0.001000,0.001000
1017.903846,0.020818,0.001000,0.001000,0.001000,0.001000,0.001000
1017.923077,0.019760,0.001000,0.001000,0.001000,0.001000,0.001000
1017.942308,0.018691,0.001000,0.001000,0.001000,0.001000,0.001000
1017.961538,0.017612,0.001000,0.001000,0.001000,0.001000,0.001000
1017.980769,0.016524,0.001000,0.001000,0.001000,0.001000,0.001000
1018.000000,0.015426,0.001000,0.001000,0.001000,0.001000,0.001000
1018.019231,0.014321,0.001000,0.001000,0.001000,0.001000,0.001000
1018.038462,0.013208,0.001000,0.001000,0.001000,0.001000,0.001000
1018.057692,0.012087,0.001000,0.001000,0.001000,0.001000,0.001000
1018.076923,0.010960,0.001000,0.001000,0.001000,0.001000,0.001000
1018.096154,0.009828,0.001000,0.001000,0.001000,0.001000,0.001000
1018.115385,0.008690,0.001000,0.001000,0.001000,0.001000,0.001000
1018.134615,0.007547,0.001000,0.001000,0.001000,0.001000,0.001000
1018.153846,0.006401,0.001000,0.001000,0.001000,0.001000,0.001000
1018.173077,0.005251,0.001000,0.001000,0.001000,0.001000,0.001000
1018.192308,0.004098,0.001000,0.001000,0.001000,0.001000,0.001000
1018.211538,0.002943,0.001000,0.001000,0.001000,0.001000,0.001000
1018.230769,0.001786,0.001000,0.001000,0.001000,0.001000,0.001000
1018.250000,0.000628,0.001000,0.001000,0.001000,0.001000,0.001000
1018.269231,-0.000530,0.001000,0.001000,0.001000,0.001000,0.001000
1018.288462,-0.001687,0.001000,0.001000,0.001000,0.001000,0.001000
1018.307692,-0.002844,0.001000,0.001000,0.001000,0.001000,0.001000
1018.326923,-0.003999,0.001000,0.001000,0.001000,0.001000,0.001000
1018.346154,-0.005152,0.001000,0.001000,0.001000,0.001000,0.001000
1018.365385,-0.006303,0.001000,0.001000,0.001000,0.001000,0.001000
1018.384615,-0.007450,0.001000,0.001000,0.001000,0.001000,0.001000
1018.403846,-0.008593,0.001000,0.001000,0.001000,0.001000,0.001000
1018.423077,-0.009731,0.001000,0.001000,0.001000,0.001000,0.001000
1018.442308,-0.010864,0.001000,0.001000,0.001000,0.001000,0.001000
1018.461538,-0.011991,0.001000,0.001000,0.001000,0.001000,0.001000
1018.480769,-0.013112,0.001000,0.001000,0.001000,0.001000,0.001000
1018.500000,-0.014226,0.001000,0.001000,0.001000,0.001000,0.001000
1018.519231,-0.015332,0.001000,0.001000,0.001000,0.001000,0.001000
1018.538462,-0.016430,0.001000,0.001000,0.001000,0.001000,0.001000
1018.557692,-0.017520,0.001000,0.001000,0.001000,0.001000,0.001000
1018.576923,-0.018599,0.001000,0.001000,0.001000,0.001000,0.001000
1018.596154,-0.019669,0.001000,0.001000,0.001000,0.001000,0.001000
1018.615385,-0.020728,0.001000,0.001000,0.001000,0.001000,0.001000
1018.634615,-0.021777,0.001000,0.001000,0.001000,0.001000,0.001000
1018.653846,-0.022813,0.001000,0.001000,0.001000,0.001000,0.001000
1018.673077,-0.023837,0.001000,0.001000,0.001000,0.001000,0.001000
1018.692308,-0.024849,0.001000,0.001000,0.001000,0.001000,0.001000
1018.711538,-0.025847,0.001000,0.001000,0.001000,0.001000,0.001000
1018.730769,-0.026831,0.001000,0.001000,0.001000,0.001000,0.001000
1018.750000,-0.027801,0.001000,0.001000,0.001000,0.001000,0.001000
1018.769231,-0.028756,0.001000,0.001000,0.001000,0.001000,0.001000
1018.788462,-0.029695,0.001000,0.001000,0.001000,0.001000,0.001000
1018.807692,-0.030619,0.001000,0.001000,0.001000,0.001000,0.001000
1018.826923,-0.031526,0.001000,0.001000,0.001000,0.001000,0.001000
1018.846154,-0.032416,0.001000,0.001000,0.001000,0.001000,0.001000
1018.865385,-0.033289,0.001000,0.001000,0.001000,0.001000,0.001000
1018.884615,-0.034144,0.001000,0.001000,0.001000,0.001000,0.001000
1018.903846,-0.034981,0.001000,0.001000,0.001000,0.001000,0.001000
1018.923077,-0.035799,0.001000,0.001000,0.001000,0.001000,0.001000
1018.942308,-0.036598,0.001000,0.001000,0.001000,0.001000,0.001000
1018.961538,-0.037377,0.001000,0.001000,0.001000,0.001000,0.001000
1018.980769,-0.038136,0.001000,0.001000,0.001000,0.001000,0.001000
1019.000000,-0.038874,0.001000,0.001000,0.001000,0.001000,0.001000
1019.019231,-0.039592,0.001000,0.001000,0.001000,0.001000,0.001000
1019.038462,-0.040289,0.001000,0.001000,0.001000,0.001000,0.001000
1019.057692,-0.040964,0.001000,0.001000,0.001000,0.001000,0.001000
1019.076923,-0.041617,0.001000,0.001000,0.001000,0.001000,0.001000
1019.096154,-0.042247,0.001000,0.001000,0.001000,0.001000,0.001000
1019.115385,-0.042855,0.001000,0.001000,0.001000,0.001000,0.001000
1019.134615,-0.043440,0.001000,0.001000,0.001000,0.001000,0.001000
1019.153846,-0.044002,0.001000,0.001000,0.001000,0.001000,0.001000
1019.173077,-0.044540,0.001000,0.001000,0.001000,0.001000,0.001000
1019.192308,-0.045054,0.001000,0.001000,0.001000,0.001000,0.001000
1019.211538,-0.045544,0.001000,0.001000,0.001000,0.001000,0.001000
1019.230769,-0.046010,0.001000,0.001000,0.001000,0.001000,0.001000
1019.250000,-0.046451,0.001000,0.001000,0.001000,0.001000,0.001000
1019.269231,-0.046867,0.001000,0.001000,0.001000,0.001000,0.001000
1019.288462,-0.047258,0.001000,0.001000,0.001000,0.001000,0.001000
1019.307692,-0.047623,0.001000,0.001000,0.001000,0.001000,0.001000
1019.326923,-0.047963,0.001000,0.001000,0.001000,0.001000,0.001000
1019.346154,-0.048277,0.001000,0.001000,0.001000,0.001000,0.001000
1019.365385,-0.048566,0.001000,0.001000,0.001000,0.001000,0.001000
1019.384615,-0.048828,0.001000,0.001000,0.001000,0.001000,0.001000
1019.403846,-0.049064,0.001000,0.001000,0.001000,0.001000,0.001000
1019.423077,-0.049274,0.001000,0.001000,0.001000,0.001000,0.001000
1019.442308,-0.049457,0.001000,0.001000,0.001000,0.001000,0.001000
1019.461538,-0.049614,0.001000,0.001000,0.001000,0.001000,0.001000
1019.480769,-0.049744,0.001000,0.001000,0.001000,0.001000,0.001000
1019.500000,-0.049848,0.001000,0.001000,0.001000,0.001000,0.001000
1019.519231,-0.049925,0.001000,0.001000,0.001000,0.001000,0.001000
1019.538462,-0.049975,0.001000,0.001000,0.001000,0.001000,0.001000
1019.557692,-0.049998,0.001000,0.001000,0.001000,0.001000,0.001000
1019.576923,-0.049995,0.001000,0.001000,0.001000,0.001000,0.001000
1019.596154,-0.049964,0.001000,0.001000,0.001000,0.001000,0.001000
1019.615385,-0.049907,0.001000,0.001000,0.001000,0.001000,0.001000
1019.634615,-0.049823,0.001000,0.001000,0.001000,0.001000,0.001000
1019.653846,-0.049712,0.001000,0.001000,0.001000,0.001000,0.001000
1019.673077,-0.049575,0.001000,0.001000,0.001000,0.001000,0.001000
1019.692308,-0.049411,0.001000,0.001000,0.001000,0.001000,0.001000
1019.711538,-0.049221,0.001000,0.001000,0.001000,0.001000,0.001000
1019.730769,-0.049004,0.001000,0.001000,0.001000,0.001000,0.001000
1019.750000,-0.048761,0.001000,0.001000,0.001000,0.001000,0.001000
1019.769231,-0.048492,0.001000,0.001000,0.001000,0.001000,0.001000
1019.788462,-0.048196,0.001000,0.001000,0.001000,0.001000,0.001000
1019.807692,-0.047875,0.001000,0.001000,0.001000,0.001000,0.001000
1019.826923,-0.047528,0.001000,0.001000,0.001000,0.001000,0.001000
1019.846154,-0.047156,0.001000,0.001000,0.001000,0.001000,0.001000
1019.865385,-0.046759,0.001000,0.001000,0.001000,0.001000,0.001000
1019.884615,-0.046336,0.001000,0.001000,0.001000,0.001000,0.001000
1019.903846,-0.045888,0.001000,0.001000,0.001000,0.001000,0.001000
1019.923077,-0.045416,0.001000,0.001000,0.001000,0.001000,0.001000
1019.942308,-0.044920,0.001000,0.001000,0.001000,0.001000,0.001000
1019.961538,-0.044399,0.001000,0.001000,0.001000,0.001000,0.001000
1019.980769,-0.043855,0.001000,0.001000,0.001000,0.001000,0.001000
1020.000000,-0.043287,0.001000,0.001000,0.001000,0.001000,0.001000
1020.019231,-0.042696,0.001000,0.001000,0.001000,0.001000,0.001000
1020.038462,-0.042082,0.001000,0.001000,0.001000,0.001000,0.001000
1020.057692,-0.041445,0.001000,0.001000,0.001000,0.001000,0.001000
1020.076923,-0.040786,0.001000,0.001000,0.001000,0.001000,0.001000
1020.096154,-0.040106,0.001000,0.001000,0.001000,0.001000,0.001000
1020.115385,-0.039403,0.001000,0.001000,0.001000,0.001000,0.001000
1020.134615,-0.038680,0.001000,0.001000,0.001000,0.001000,0.001000
1020.153846,-0.037936,0.001000,0.001000,0.001000,0.001000,0.001000
1020.173077,-0.037172,0.001000,0.001000,0.001000,0.001000,0.001000
1020.192308,-0.036387,0.001000,0.001000,0.001000,0.001000,0.001000
1020.211538,-0.035583,0.001000,0.001000,0.001000,0.001000,0.001000
1020.230769,-0.034760,0.001000,0.001000,0.001000,0.001000,0.001000
1020.250000,-0.033919,0.001000,0.001000,0.001000,0.001000,0.001000
1020.269231,-0.033059,0.001000,0.001000,0.001000,0.001000,0.001000
1020.288462,-0.032181,0.001000,0.001000,0.001000,0.001000,0.001000
1020.307692,-0.031287,0.001000,0.001000,0.001000,0.001000,0.001000
1020.326923,-0.030375,0.001000,0.001000,0.001000,0.001000,0.001000
1020.346154,-0.029447,0.001000,0.001000,0.001000,0.001000,0.001000
1020.365385,-0.028503,0.001000,0.001000,0.001000,0.001000,0.001000
1020.384615,-0.027544,0.001000,0.001000,0.001000,0.001000,0.001000
1020.403846,-0.026571,0.001000,0.001000,0.001000,0.001000,0.001000
1020.423077,-0.025583,0.001000,0.001000,0.001000,0.001000,0.001000
1020.442308,-0.024581,0.001000,0.001000,0.001000,0.001000,0.001000
1020.461538,-0.023566,0.001000,0.001000,0.001000,0.001000,0.001000
1020.480769,-0.022539,0.001000,0.001000,0.001000,0.001000,0.001000
1020.500000,-0.021499,0.001000,0.001000,0.001000,0.001000,0.001000
1020.519231,-0.020448,0.001000,0.001000,0.001000,0.001000,0.001000
1020.538462,-0.019386,0.001000,0.001000,0.001000,0.001000,0.001000
1020.557692,-0.018313,0.001000,0.001000,0.001000,0.001000,0.001000
1020.576923,-0.017231,0.001000,0.001000,0.001000,0.001000,0.001000
1020.596154,-0.016139,0.001000,0.001000,0.001000,0.001000,0.001000
1020.615385,-0.015039,0.001000,0.001000,0.001000,0.001000,0.001000
1020.634615,-0.013931,0.001000,0.001000,0.001000,0.001000,0.001000
1020.653846,-0.012815,0.001000,0.001000,0.001000,0.001000,0.001000
1020.673077,-0.011692,0.001000,0.001000,0.001000,0.001000,0.001000
1020.692308,-0.010563,0.001000,0.001000,0.001000,0.001000,0.001000
1020.711538,-0.009429,0.001000,0.001000,0.001000,0.001000,0.001000
1020.730769,-0.008289,0.001000,0.001000,0.001000,0.001000,0.001000
1020.750000,-0.007145,0.001000,0.001000,0.001000,0.001000,0.001000
1020.769231,-0.005997,0.001000,0.001000,0.001000,0.001000,0.001000
1020.788462,-0.004846,0.001000,0.001000,0.001000,0.001000,0.001000
1020.807692,-0.003692,0.001000,0.001000,0.001000,0.001000,0.001000
1020.826923,-0.002537,0.001000,0.001000,0.001000,0.001000,0.001000
1020.846154,-0.001380,0.001000,0.001000,0.001000,0.001000,0.001000
1020.865385,-0.000222,0.001000,0.001000,0.001000,0.001000,0.001000
1020.884615,0.000936,0.001000,0.001000,0.001000,0.001000,0.001000
1020.903846,0.002094,0.001000,0.001000,0.001000,0.001000,0.001000
1020.923077,0.003250,0.001000,0.001000,0.001000,0.001000,0.001000
1020.942308,0.004404,0.001000,0.001000,0.001000,0.001000,0.001000
1020.961538,0.005557,0.001000,0.001000,0.001000,0.001000,0.001000
1020.980769,0.006706,0.001000,0.001000,0.001000,0.001000,0.001000
1021.000000,0.007851,0.001000,0.001000,0.001000,0.001000,0.001000
1021.019231,0.008993,0.001000,0.001000,0.001000,0.001000,0.001000
1021.038462,0.010129,0.001000,0.001000,0.001000,0.001000,0.001000
1021.057692,0.011261,0.001000,0.001000,0.001000,0.001000,0.001000
1021.076923,0.012386,0.001000,0.001000,0.001000,0.001000,0.001000
1021.096154,0.013504,0.001000,0.001000,0.001000,0.001000,0.001000
1021.115385,0.014615,0.001000,0.001000,0.001000,0.001000,0.001000
1021.134615,0.015719,0.001000,0.001000,0.001000,0.001000,0.001000
1021.153846,0.016814,0.001000,0.001000,0.001000,0.001000,0.001000
1021.173077,0.017900,0.001000,0.001000,0.001000,0.001000,0.001000
1021.192308,0.018976,0.001000,0.001000,0.001000,0.001000,0.001000
1021.211538,0.020042,0.001000,0.001000,0.001000,0.001000,0.001000
1021.230769,0.021098,0.001000,0.001000,0.001000,0.001000,0.001000
1021.250000,0.022142,0.001000,0.001000,0.001000,0.001000,0.001000
1021.269231,0.023174,0.001000,0.001000,0.001000,0.001000,0.001000
1021.288462,0.024194,0.001000,0.001000,0.001000,0.001000,0.001000
1021.307692,0.025201,0.001000,0.001000,0.001000,0.001000,0.001000
1021.326923,0.026194,0.001000,0.001000,0.001000,0.001000,0.001000
1021.346154,0.027173,0.001000,0.001000,0.001000,0.001000,0.001000
1021.365385,0.028138,0.001000,0.001000,0.001000,0.001000,0.001000
1021.384615,0.029087,0.001000,0.001000,0.001000,0.001000,0.001000
1021.403846,0.030021,0.001000,0.001000,0.001000,0.001000,0.001000
1021.423077,0.030939,0.001000,0.001000,0.001000,0.001000,0.001000
1021.442308,0.031841,0.001000,0.001000,0.001000,0.001000,0.001000
1021.461538,0.032725,0.001000,0.001000,0.001000,0.001000,0.001000
1021.480769,0.033591,0.001000,0.001000,0.001000,0.001000,0.001000
1021.500000,0.034440,0.001000,0.001000,0.001000,0.001000,0.001000
1021.519231,0.035270,0.001000,0.001000,0.001000,0.001000,0.001000
1021.538462,0.036082,0.001000,0.001000,0.001000,0.001000,0.001000
1021.557692,0.036873,0.001000,0.001000,0.001000,0.001000,0.001000
1021.576923,0.037646,0.001000,0.001000,0.001000,0.001000,0.001000
1021.596154,0.038397,0.001000,0.001000,0.001000,0.001000,0.001000
1021.615385,0.039129,0.001000,0.001000,0.001000,0.001000,0.001000
1021.634615,0.039839,0.001000,0.001000,0.001000,0.001000,0.001000
1021.653846,0.040528,0.001000,0.001000,0.001000,0.001000,0.001000
1021.673077,0.041195,0.001000,0.001000,0.001000,0.001000,0.001000
1021.692308,0.041841,0.001000,0.001000,0.001000,0.001000,0.001000
1021.711538,0.042463,0.001000,0.001000,0.001000,0.001000,0.001000
1021.730769,0.043063,0.001000,0.001000,0.001000,0.001000,0.001000
1021.750000,0.043640,0.001000,0.001000,0.001000,0.001000,0.001000
1021.769231,0.044193,0.001000,0.001000,0.001000,0.001000,0.001000
1021.788462,0.044723,0.001000,0.001000,0.001000,0.001000,0.001000
1021.807692,0.045229,0.001000,0.001000,0.001000,0.001000,0.001000
1021.826923,0.045710,0.001000,0.001000,0.001000,0.001000,0.001000
1021.846154,0.046167,0.001000,0.001000,0.001000,0.001000,0.001000
1021.865385,0.046600,0.001000,0.001000,0.001000,0.001000,0.001000
1021.884615,0.047007,0.001000,0.001000,0.001000,0.001000,0.001000
1021.903846,0.047389,0.001000,0.001000,0.001000,0.001000,0.001000
1021.923077,0.047745,0.001000,0.001000,0.001000,0.001000,0.001000
1021.942308,0.048076,0.001000,0.001000,0.001000,0.001000,0.001000
1021.961538,0.048382,0.001000,0.001000,0.001000,0.001000,0.001000
1021.980769,0.048661,0.001000,0.001000,0.001000,0.001000,0.001000
1022.000000,0.048914,0.001000,0.001000,0.001000,0.001000,0.001000
1022.019231,0.049141,0.001000,0.001000,0.001000,0.001000,0.001000
1022.038462,0.049341,0.001000,0.001000,0.001000,0.001000,0.001000
1022.057692,0.049515,0.001000,0.001000,0.001000,0.001000,0.001000
1022.076923,0.049663,0.001000,0.001000,0.001000,0.001000,0.001000
1022.096154,0.049784,0.001000,0.001000,0.001000,0.001000,0.001000
1022.115385,0.049878,0.001000,0.001000,0.001000,0.001000,0.001000
1022.134615,0.049946,0.001000,0.001000,0.001000,0.001000,0.001000
1022.153846,0.049986,0.001000,0.001000,0.001000,0.001000,0.001000
1022.173077,0.050000,0.001000,0.001000,0.001000,0.001000,0.001000
1022.192308,0.049987,0.001000,0.001000,0.001000,0.001000,0.001000
1022.211538,0.049947,0.001000,0.001000,0.001000,0.001000,0.001000
1022.230769,0.049881,0.001000,0.001000,0.001000,0.001000,0.001000
1022.250000,0.049787,0.001000,0.001000,0.001000,0.001000,0.001000
1022.269231,0.049667,0.001000,0.001000,0.001000,0.001000,0.001000
1022.288462,0.049521,0.001000,0.001000,0.001000,0.001000,0.001000
1022.307692,0.049347,0.001000,0.001000,0.001000,0.001000,0.001000
1022.326923,0.049148,0.001000,0.001000,0.001000,0.001000,0.001000
1022.346154,0.048922,0.001000,0.001000,0.001000,0.001000,0.001000
1022.365385,0.048669,0.001000,0.001000,0.001000,0.001000,0.001000
1022.384615,0.048391,0.001000,0.001000,0.001000,0.001000,0.001000
1022.403846,0.048087,0.001000,0.001000,0.001000,0.001000,0.001000
1022.423077,0.047756,0.001000,0.001000,0.001000,0.001000,0.001000
1022.442308,0.047401,0.001000,0.001000,0.001000,0.001000,0.001000
1022.461538,0.047019,0.001000,0.001000,0.001000,0.001000,0.001000
1022.480769,0.046613,0.001000,0.001000,0.001000,0.001000,0.001000
1022.500000,0.046182,0.001000,0.001000,0.001000,0.001000,0.001000
1022.519231,0.045725,0.001000,0.001000,0.001000,0.001000,0.001000
1022.538462,0.045245,0.001000,0.001000,0.001000,0.001000,0.001000
1022.557692,0.044740,0.001000,0.001000,0.001000,0.001000,0.001000
1022.576923,0.044211,0.001000,0.001000,0.001000,0.001000,0.001000
1022.596154,0.043658,0.001000,0.001000,0.001000,0.001000,0.001000
1022.615385,0.043082,0.001000,0.001000,0.001000,0.001000,0.001000
1022.634615,0.042483,0.001000,0.001000,0.001000,0.001000,0.001000
1022.653846,0.041861,0.001000,0.001000,0.001000,0.001000,0.001000
1022.673077,0.041216,0.001000,0.001000,0.001000,0.001000,0.001000
1022.692308,0.040550,0.001000,0.001000,0.001000,0.001000,0.001000
1022.711538,0.039862,0.001000,0.001000,0.001000,0.001000,0.001000
1022.730769,0.039152,0.001000,0.001000,0.001000,0.001000,0.001000
1022.750000,0.038421,0.001000,0.001000,0.001000,0.001000,0.001000
1022.769231,0.037670,0.001000,0.001000,0.001000,0.001000,0.001000
1022.788462,0.036898,0.001000,0.001000,0.001000,0.001000,0.001000
1022.807692,0.036107,0.001000,0.001000,0.001000,0.001000,0.001000
1022.826923,0.035297,0.001000,0.001000,0.001000,0.001000,0.001000
1022.846154,0.034467,0.001000,0.001000,0.001000,0.001000,0.001000
1022.865385,0.033619,0.001000,0.001000,0.001000,0.001000,0.001000
1022.884615,0.032753,0.001000,0.001000,0.001000,0.001000,0.001000
1022.903846,0.031869,0.001000,0.001000,0.001000,0.001000,0.001000
1022.923077,0.030968,0.001000,0.001000,0.001000,0.001000,0.001000
1022.942308,0.030051,0.001000,0.001000,0.001000,0.001000,0.001000
1022.961538,0.029118,0.001000,0.001000,0.001000,0.001000,0.001000
1022.980769,0.028168,0.001000,0.001000,0.001000,0.001000,0.001000
1023.000000,0.027204,0.001000,0.001000,0.001000,0.001000,0.001000
1023.019231,0.026225,0.001000,0.001000,0.001000,0.001000,0.001000
1023.038462,0.025233,0.001000,0.001000,0.001000,0.001000,0.001000
1023.057692,0.024226,0.001000,0.001000,0.001000,0.001000,0.001000
1023.076923,0.023207,0.001000,0.001000,0.001000,0.001000,0.001000
1023.096154,0.022175,0.001000,0.001000,0.001000,0.001000,0.001000
1023.115385,0.021131,0.001000,0.001000,0.001000,0.001000,0.001000
1023.134615,0.020076,0.001000,0.001000,0.001000,0.001000,0.001000
1023.153846,0.019010,0.001000,0.001000,0.001000,0.001000,0.001000
1023.173077,0.017934,0.001000,0.001000,0.001000,0.001000,0.001000
1023.192308,0.016849,0.001000,0.001000,0.001000,0.001000,0.001000
1023.211538,0.015754,0.001000,0.001000,0.001000,0.001000,0.001000
1023.230769,0.014651,0.001000,0.001000,0.001000,0.001000,0.001000
1023.250000,0.013540,0.001000,0.001000,0.001000,0.001000,0.001000
1023.269231,0.012422,0.001000,0.001000,0.001000,0.001000,0.001000
1023.288462,0.011297,0.001000,0.001000,0.001000,0.001000,0.001000
1023.307692,0.010166,0.001000,0.001000,0.001000,0.001000,0.001000
1023.326923,0.009029,0.001000,0.001000,0.001000,0.001000,0.001000
1023.346154,0.007888,0.001000,0.001000,0.001000,0.001000,0.001000
1023.365385,0.006743,0.001000,0.001000,0.001000,0.001000,0.001000
1023.384615,0.005593,0.001000,0.001000,0.001000,0.001000,0.001000
1023.403846,0.004441,0.001000,0.001000,0.001000,0.001000,0.001000
1023.423077,0.003287,0.001000,0.001000,0.001000,0.001000,0.001000
1023.442308,0.002131,0.001000,0.001000,0.001000,0.001000,0.001000
1023.461538,0.000973,0.001000,0.001000,0.001000,0.001000,0.001000
1023.480769,-0.000185,0.001000,0.001000,0.001000,0.001000,0.001000
1023.500000,-0.001343,0.001000,0.001000,0.001000,0.001000,0.001000
1023.519231,-0.002500,0.001000,0.001000,0.001000,0.001000,0.001000
1023.538462,-0.003655,0.001000,0.001000,0.001000,0.001000,0.001000
1023.557692,-0.004809,0.001000,0.001000,0.001000,0.001000,0.001000
1023.576923,-0.005960,0.001000,0.001000,0.001000,0.001000,0.001000
1023.596154,-0.007108,0.001000,0.001000,0.001000,0.001000,0.001000
1023.615385,-0.008253,0.001000,0.001000,0.001000,0.001000,0.001000
1023.634615,-0.009392,0.001000,0.001000,0.001000,0.001000,0.001000
1023.653846,-0.010527,0.001000,0.001000,0.001000,0.001000,0.001000
1023.673077,-0.011656,0.001000,0.001000,0.001000,0.001000,0.001000
1023.692308,-0.012779,0.001000,0.001000,0.001000,0.001000,0.001000
1023.711538,-0.013895,0.001000,0.001000,0.001000,0.001000,0.001000
1023.730769,-0.015004,0.001000,0.001000,0.001000,0.001000,0.001000
1023.750000,-0.016104,0.001000,0.001000,0.001000,0.001000,0.001000
1023.769231,-0.017196,0.001000,0.001000,0.001000,0.001000,0.001000
1023.788462,-0.018279,0.001000,0.001000,0.001000,0.001000,0.001000
1023.807692,-0.019352,0.001000,0.001000,0.001000,0.001000,0.001000
1023.826923,-0.020414,0.001000,0.001000,0.001000,0.001000,0.001000
1023.846154,-0.021466,0.001000,0.001000,0.001000,0.001000,0.001000
1023.865385,-0.022506,0.001000,0.001000,0.001000,0.001000,0.001000
1023.884615,-0.023533,0.001000,0.001000,0.001000,0.001000,0.001000
1023.903846,-0.024549,0.001000,0.001000,0.001000,0.001000,0.001000
1023.923077,-0.025551,0.001000,0.001000,0.001000,0.001000,0.001000
1023.942308,-0.026539,0.001000,0.001000,0.001000,0.001000,0.001000
1023.961538,-0.027514,0.001000,0.001000,0.001000,0.001000,0.001000
1023.980769,-0.028473,0.001000,0.001000,0.001000,0.001000,0.001000
1024.000000,-0.029417,0.001000,0.001000,0.001000,0.001000,0.001000
1024.019231,-0.030345,0.001000,0.001000,0.001000,0.001000,0.001000
1024.038462,-0.031258,0.001000,0.001000,0.001000,0.001000,0.001000
1024.057692,-0.032153,0.001000,0.001000,0.001000,0.001000,0.001000
1024.076923,-0.033031,0.001000,0.001000,0.001000,0.001000,0.001000
1024.096154,-0.033891,0.001000,0.001000,0.001000,0.001000,0.001000
1024.115385,-0.034734,0.001000,0.001000,0.001000,0.001000,0.001000
1024.134615,-0.035557,0.001000,0.001000,0.001000,0.001000,0.001000
1024.153846,-0.036362,0.001000,0.001000,0.001000,0.001000,0.001000
1024.173077,-0.037147,0.001000,0.001000,0.001000,0.001000,0.001000
1024.192308,-0.037912,0.001000,0.001000,0.001000,0.001000,0.001000
1024.211538,-0.038657,0.001000,0.001000,0.001000,0.001000,0.001000
1024.230769,-0.039381,0.001000,0.001000,0.001000,0.001000,0.001000
1024.250000,-0.040083,0.001000,0.001000,0.001000,0.001000,0.001000
1024.269231,-0.040765,0.001000,0.001000,0.001000,0.001000,0.001000
1024.288462,-0.041424,0.001000,0.001000,0.001000,0.001000,0.001000
1024.307692,-0.042062,0.001000,0.001000,0.001000,0.001000,0.001000
1024.326923,-0.042676,0.001000,0.001000,0.001000,0.001000,0.001000
1024.346154,-0.043268,0.001000,0.001000,0.001000,0.001000,0.001000
1024.365385,-0.043837,0.001000,0.001000,0.001000,0.001000,0.001000
1024.384615,-0.044382,0.001000,0.001000,0.001000,0.001000,0.001000
1024.403846,-0.044903,0.001000,0.001000,0.001000,0.001000,0.001000
1024.423077,-0.045401,0.001000,0.001000,0.001000,0.001000,0.001000
1024.442308,-0.045874,0.001000,0.001000,0.001000,0.001000,0.001000
1024.461538,-0.046322,0.001000,0.001000,0.001000,0.001000,0.001000
1024.480769,-0.046745,0.001000,0.001000,0.001000,0.001000,0.001000
1024.500000,-0.047144,0.001000,0.001000,0.001000,0.001000,0.001000
1024.519231,-0.047517,0.001000,0.001000,0.001000,0.001000,0.001000
1024.538462,-0.047865,0.001000,0.001000,0.001000,0.001000,0.001000
1024.557692,-0.048186,0.001000,0.001000,0.001000,0.001000,0.001000
1024.576923,-0.048483,0.001000,0.001000,0.001000,0.001000,0.001000
1024.596154,-0.048753,0.001000,0.001000,0.001000,0.001000,0.001000
1024.615385,-0.048997,0.001000,0.001000,0.001000,0.001000,0.001000
1024.634615,-0.049214,0.001000,0.001000,0.001000,0.001000,0.001000
1024.653846,-0.049406,0.001000,0.001000,0.001000,0.001000,0.001000
1024.673077,-0.049570,0.001000,0.001000,0.001000,0.001000,0.001000
1024.692308,-0.049708,0.001000,0.001000,0.001000,0.001000,0.001000
1024.711538,-0.049820,0.001000,0.001000,0.001000,0.001000,0.001000
1024.730769,-0.049905,0.001000,0.001000,0.001000,0.001000,0.001000
1024.750000,-0.049963,0.001000,0.001000,0.001000,0.001000,0.001000
1024.769231,-0.049994,0.001000,0.001000,0.001000,0.001000,0.001000
1024.788462,-0.049998,0.001000,0.001000,0.001000,0.001000,0.001000
1024.807692,-0.049976,0.001000,0.001000,0.001000,0.001000,0.001000
1024.826923,-0.049927,0.001000,0.001000,0.001000,0.001000,0.001000
1024.846154,-0.049851,0.001000,0.001000,0.001000,0.001000,0.001000
1024.865385,-0.049748,0.001000,0.001000,0.001000,0.001000,0.001000
1024.884615,-0.049619,0.001000,0.001000,0.001000,0.001000,0.001000
1024.903846,-0.049463,0.001000,0.001000,0.001000,0.001000,0.001000
1024.923077,-0.049280,0.001000,0.001000,0.001000,0.001000,0.001000
1024.942308,-0.049071,0.001000,0.001000,0.001000,0.001000,0.001000
1024.961538,-0.048836,0.001000,0.001000,0.001000,0.001000,0.001000
1024.980769,-0.048575,0.001000,0.001000,0.001000,0.001000,0.001000
1025.000000,-0.048287,0.001000,0.001000,0.001000,0.001000,0.001000
1025.019231,-0.047974,0.001000,0.001000,0.001000,0.001000,0.001000
1025.038462,-0.047634,0.001000,0.001000,0.001000,0.001000,0.001000
1025.057692,-0.047270,0.001000,0.001000,0.001000,0.001000,0.001000
1025.076923,-0.046880,0.001000,0.001000,0.001000,0.001000,0.001000
1025.096154,-0.046464,0.001000,0.001000,0.001000,0.001000,0.001000
1025.115385,-0.046024,0.001000,0.001000,0.001000,0.001000,0.001000
1025.134615,-0.045559,0.001000,0.001000,0.001000,0.001000,0.001000
1025.153846,-0.045070,0.001000,0.001000,0.001000,0.001000,0.001000
1025.173077,-0.044557,0.001000,0.001000,0.001000,0.001000,0.001000
1025.192308,-0.044019,0.001000,0.001000,0.001000,0.001000,0.001000
1025.211538,-0.043459,0.001000,0.001000,0.001000,0.001000,0.001000
1025.230769,-0.042874,0.001000,0.001000,0.001000,0.001000,0.001000
1025.250000,-0.042267,0.001000,0.001000,0.001000,0.001000,0.001000
1025.269231,-0.041637,0.001000,0.001000,0.001000,0.001000,0.001000
1025.288462,-0.040985,0.001000,0.001000,0.001000,0.001000,0.001000
1025.307692,-0.040311,0.001000,0.001000,0.001000,0.001000,0.001000
1025.326923,-0.039615,0.001000,0.001000,0.001000,0.001000,0.001000
1025.346154,-0.038898,0.001000,0.001000,0.001000,0.001000,0.001000
1025.365385,-0.038160,0.001000,0.001000,0.001000,0.001000,0.001000
1025.384615,-0.037401,0.001000,0.001000,0.001000,0.001000,0.001000
1025.403846,-0.036623,0.001000,0.001000,0.001000,0.001000,0.001000
1025.423077,-0.035825,0.001000,0.001000,0.001000,0.001000,0.001000
1025.442308,-0.035007,0.001000,0.001000,0.001000,0.001000,0.001000
1025.461538,-0.034171,0.001000,0.001000,0.001000,0.001000,0.001000
1025.480769,-0.033317,0.001000,0.001000,0.001000,0.001000,0.001000
1025.500000,-0.032445,0.001000,0.001000,0.001000,0.001000,0.001000
1025.519231,-0.031555,0.001000,0.001000,0.001000,0.001000,0.001000
1025.538462,-0.030648,0.001000,0.001000,0.001000,0.001000,0.001000
1025.557692,-0.029725,0.001000,0.001000,0.001000,0.001000,0.001000
1025.576923,-0.028786,0.001000,0.001000,0.001000,0.001000,0.001000
1025.596154,-0.027832,0.001000,0.001000,0.001000,0.001000,0.001000
1025.615385,-0.026862,0.001000,0.001000,0.001000,0.001000,0.001000
1025.634615,-0.025879,0.001000,0.001000,0.001000,0.001000,0.001000
1025.653846,-0.024881,0.001000,0.001000,0.001000,0.001000,0.001000
1025.673077,-0.023870,0.001000,0.001000,0.001000,0.001000,0.001000
1025.692308,-0.022846,0.001000,0.001000,0.001000,0.001000,0.001000
1025.711538,-0.021810,0.001000,0.001000,0.001000,0.001000,0.001000
1025.730769,-0.020762,0.001000,0.001000,0.001000,0.001000,0.001000
1025.750000,-0.019703,0.001000,0.001000,0.001000,0.001000,0.001000
1025.769231,-0.018634,0.001000,0.001000,0.001000,0.001000,0.001000
1025.788462,-0.017554,0.001000,0.001000,0.001000,0.001000,0.001000
1025.807692,-0.016465,0.001000,0.001000,0.001000,0.001000,0.001000
1025.826923,-0.015368,0.001000,0.001000,0.001000,0.001000,0.001000
1025.846154,-0.014262,0.001000,0.001000,0.001000,0.001000,0.001000
1025.865385,-0.013148,0.001000,0.001000,0.001000,0.001000,0.001000
1025.884615,-0.012027,0.001000,0.001000,0.001000,0.001000,0.001000
1025.903846,-0.010900,0.001000,0.001000,0.001000,0.001000,0.001000
1025.923077,-0.009767,0.001000,0.001000,0.001000,0.001000,0.001000
1025.942308,-0.008629,0.001000,0.001000,0.001000,0.001000,0.001000
1025.961538,-0.007486,0.001000,0.001000,0.001000,0.001000,0.001000
1025.980769,-0.006340,0.001000,0.001000,0.001000,0.001000,0.001000
1026.000000,-0.005189,0.001000,0.001000,0.001000,0.001000,0.001000
1026.019231,-0.004036,0.001000,0.001000,0.001000,0.001000,0.001000
1026.038462,-0.002881,0.001000,0.001000,0.001000,0.001000,0.001000
1026.057692,-0.001724,0.001000,0.001000,0.001000,0.001000,0.001000
1026.076923,-0.000567,0.001000,0.001000,0.001000,0.001000,0.001000
1026.096154,0.000591,0.001000,0.001000,0.001000,0.001000,0.001000
1026.115385,0.001749,0.001000,0.001000,0.001000,0.001000,0.001000
1026.134615,0.002906,0.001000,0.001000,0.001000,0.001000,0.001000
1026.153846,0.004061,0.001000,0.001000,0.001000,0.001000,0.001000
1026.173077,0.005214,0.001000,0.001000,0.001000,0.001000,0.001000
1026.192308,0.006364,0.001000,0.001000,0.001000,0.001000,0.001000
1026.211538,0.007511,0.001000,0.001000,0.001000,0.001000,0.001000
1026.230769,0.008653,0.001000,0.001000,0.001000,0.001000,0.001000
1026.250000,0.009791,0.001000,0.001000,0.001000,0.001000,0.001000
1026.269231,0.010924,0.001000,0.001000,0.001000,0.001000,0.001000
1026.288462,0.012051,0.001000,0.001000,0.001000,0.001000,0.001000
1026.307692,0.013172,0.001000,0.001000,0.001000,0.001000,0.001000
1026.326923,0.014285,0.001000,0.001000,0.001000,0.001000,0.001000
1026.346154,0.015391,0.001000,0.001000,0.001000,0.001000,0.001000
1026.365385,0.016489,0.001000,0.001000,0.001000,0.001000,0.001000
1026.384615,0.017577,0.001000,0.001000,0.001000,0.001000,0.001000
1026.403846,0.018657,0.001000,0.001000,0.001000,0.001000,0.001000
1026.423077,0.019726,0.001000,0.001000,0.001000,0.001000,0.001000
1026.442308,0.020784,0.001000,0.001000,0.001000,0.001000,0.001000
1026.461538,0.021832,0.001000,0.001000,0.001000,0.001000,0.001000
1026.480769,0.022868,0.001000,0.001000,0.001000,0.001000,0.001000
1026.500000,0.023891,0.001000,0.001000,0.001000,0.001000,0.001000
1026.519231,0.024902,0.001000,0.001000,0.001000,0.001000,0.001000
1026.538462,0.025899,0.001000,0.001000,0.001000,0.001000,0.001000
1026.557692,0.026883,0.001000,0.001000,0.001000,0.001000,0.001000
1026.576923,0.027852,0.001000,0.001000,0.001000,0.001000,0.001000
1026.596154,0.028806,0.001000,0.001000,0.001000,0.001000,0.001000
1026.615385,0.029745,0.001000,0.001000,0.001000,0.001000,0.001000
1026.634615,0.030668,0.001000,0.001000,0.001000,0.001000,0.001000
1026.653846,0.031574,0.001000,0.001000,0.001000,0.001000,0.001000
1026.673077,0.032463,0.001000,0.001000,0.001000,0.001000,0.001000
1026.692308,0.033335,0.001000,0.001000,0.001000,0.001000,0.001000
1026.711538,0.034189,0.001000,0.001000,0.001000,0.001000,0.001000
1026.730769,0.035025,0.001000,0.001000,0.001000,0.001000,0.001000
1026.750000,0.035842,0.001000,0.001000,0.001000,0.001000,0.001000
1026.769231,0.036640,0.001000,0.001000,0.001000,0.001000,0.001000
1026.788462,0.037418,0.001000,0.001000,0.001000,0.001000,0.001000
1026.807692,0.038176,0.001000,0.001000,0.001000,0.001000,0.001000
1026.826923,0.038913,0.001000,0.001000,0.001000,0.001000,0.001000
1026.846154,0.039630,0.001000,0.001000,0.001000,0.001000,0.001000
1026.865385,0.040325,0.001000,0.001000,0.001000,0.001000,0.001000
1026.884615,0.040999,0.001000,0.001000,0.001000,0.001000,0.001000
1026.903846,0.041651,0.001000,0.001000,0.001000,0.001000,0.001000
1026.923077,0.042280,0.001000,0.001000,0.001000,0.001000,0.001000
1026.942308,0.042887,0.001000,0.001000,0.001000,0.001000,0.001000
1026.961538,0.043471,0.001000,0.001000,0.001000,0.001000,0.001000
1026.980769,0.044031,0.001000,0.001000,0.001000,0.001000,0.001000
1027.000000,0.044568,0.001000,0.001000,0.001000,0.001000,0.001000
1027.019231,0.045081,0.001000,0.001000,0.001000,0.001000,0.001000
1027.038462,0.045570,0.001000,0.001000,0.001000,0.001000,0.001000
1027.057692,0.046034,0.001000,0.001000,0.001000,0.001000,0.001000
1027.076923,0.046473,0.001000,0.001000,0.001000,0.001000,0.001000
1027.096154,0.046888,0.001000,0.001000,0.001000,0.001000,0.001000
1027.115385,0.047278,0.001000,0.001000,0.001000,0.001000,0.001000
1027.134615,0.047642,0.001000,0.001000,0.001000,0.001000,0.001000
1027.153846,0.047980,0.001000,0.001000,0.001000,0.001000,0.001000
1027.173077,0.048293,0.001000,0.001000,0.001000,0.001000,0.001000
1027.192308,0.048580,0.001000,0.001000,0.001000,0.001000,0.001000
1027.211538,0.048841,0.001000,0.001000,0.001000,0.001000,0.001000
1027.230769,0.049076,0.001000,0.001000,0.001000,0.001000,0.001000
1027.250000,0.049284,0.001000,0.001000,0.001000,0.001000,0.001000
1027.269231,0.049466,0.001000,0.001000,0.001000,0.001000,0.001000
1027.288462,0.049622,0.001000,0.001000,0.001000,0.001000,0.001000
1027.307692,0.049751,0.001000,0.001000,0.001000,0.001000,0.001000
1027.326923,0.049853,0.001000,0.001000,0.001000,0.001000,0.001000
1027.346154,0.049928,0.001000,0.001000,0.001000,0.001000,0.001000
1027.365385,0.049977,0.001000,0.001000,0.001000,0.001000,0.001000
1027.384615,0.049999,0.001000,0.001000,0.001000,0.001000,0.001000
1027.403846,0.049994,0.001000,0.001000,0.001000,0.001000,0.001000
1027.423077,0.049962,0.001000,0.001000,0.001000,0.001000,0.001000
1027.442308,0.049903,0.001000,0.001000,0.001000,0.001000,0.001000
1027.461538,0.049818,0.001000,0.001000,0.001000,0.001000,0.001000
1027.480769,0.049706,0.001000,0.001000,0.001000,0.001000,0.001000
1027.500000,0.049567,0.001000,0.001000,0.001000,0.001000,0.001000
1027.519231,0.049402,0.001000,0.001000,0.001000,0.001000,0.001000
1027.538462,0.049210,0.001000,0.001000,0.001000,0.001000,0.001000
1027.557692,0.048992,0.001000,0.001000,0.001000,0.001000,0.001000
1027.576923,0.048747,0.001000,0.001000,0.001000,0.001000,0.001000
1027.596154,0.048477,0.001000,0.001000,0.001000,0.001000,0.001000
1027.615385,0.048180,0.001000,0.001000,0.001000,0.001000,0.001000
1027.634615,0.047857,0.001000,0.001000,0.001000,0.001000,0.001000
1027.653846,0.047509,0.001000,0.001000,0.001000,0.001000,0.001000
1027.673077,0.047136,0.001000,0.001000,0.001000,0.001000,0.001000
1027.692308,0.046737,0.001000,0.001000,0.001000,0.001000,0.001000
1027.711538,0.046313,0.001000,0.001000,0.001000,0.001000,0.001000
1027.730769,0.045864,0.001000,0.001000,0.001000,0.001000,0.001000
1027.750000,0.045390,0.001000,0.001000,0.001000,0.001000,0.001000
1027.769231,0.044893,0.001000,0.001000,0.001000,0.001000,0.001000
1027.788462,0.044371,0.001000,0.001000,0.001000,0.001000,0.001000
1027.807692,0.043825,0.001000,0.001000,0.001000,0.001000,0.001000
1027.826923,0.043256,0.001000,0.001000,0.001000,0.001000,0.001000
1027.846154,0.042664,0.001000,0.001000,0.001000,0.001000,0.001000
1027.865385,0.042048,0.001000,0.001000,0.001000,0.001000,0.001000
1027.884615,0.041411,0.001000,0.001000,0.001000,0.001000,0.001000
1027.903846,0.040751,0.001000,0.001000,0.001000,0.001000,0.001000
1027.923077,0.040069,0.001000,0.001000,0.001000,0.001000,0.001000
1027.942308,0.039366,0.001000,0.001000,0.001000,0.001000,0.001000
1027.961538,0.038641,0.001000,0.001000,0.001000,0.001000,0.001000
1027.980769,0.037896,0.001000,0.001000,0.001000,0.001000,0.001000
1028.000000,0.037130,0.001000,0.001000,0.001000,0.001000,0.001000
1028.019231,0.036345,0.001000,0.001000,0.001000,0.001000,0.001000
1028.038462,0.035540,0.001000,0.001000,0.001000,0.001000,0.001000
1028.057692,0.034716,0.001000,0.001000,0.001000,0.001000,0.001000
1028.076923,0.033873,0.001000,0.001000,0.001000,0.001000,0.001000
1028.096154,0.033013,0.001000,0.001000,0.001000,0.001000,0.001000
1028.115385,0.032134,0.001000,0.001000,0.001000,0.001000,0.001000
1028.134615,0.031238,0.001000,0.001000,0.001000,0.001000,0.001000
1028.153846,0.030326,0.001000,0.001000,0.001000,0.001000,0.001000
1028.173077,0.029397,0.001000,0.001000,0.001000,0.001000,0.001000
1028.192308,0.028453,0.001000,0.001000,0.001000,0.001000,0.001000
1028.211538,0.027493,0.001000,0.001000,0.001000,0.001000,0.001000
1028.230769,0.026519,0.001000,0.001000,0.001000,0.001000,0.001000
1028.250000,0.025530,0.001000,0.001000,0.001000,0.001000,0.001000
1028.269231,0.024527,0.001000,0.001000,0.001000,0.001000,0.001000
1028.288462,0.023512,0.001000,0.001000,0.001000,0.001000,0.001000
1028.307692,0.022484,0.001000,0.001000,0.001000,0.001000,0.001000
1028.326923,0.021443,0.001000,0.001000,0.001000,0.001000,0.001000
1028.346154,0.020392,0.001000,0.001000,0.001000,0.001000,0.001000
1028.365385,0.019329,0.001000,0.001000,0.001000,0.001000,0.001000
1028.384615,0.018256,0.001000,0.001000,0.001000,0.001000,0.001000
1028.403846,0.017173,0.001000,0.001000,0.001000,0.001000,0.001000
1028.423077,0.016081,0.001000,0.001000,0.001000,0.001000,0.001000
1028.442308,0.014980,0.001000,0.001000,0.001000,0.001000,0.001000
1028.461538,0.013872,0.001000,0.001000,0.001000,0.001000,0.001000
1028.480769,0.012756,0.001000,0.001000,0.001000,0.001000,0.001000
1028.500000,0.011633,0.001000,0.001000,0.001000,0.001000,0.001000
1028.519231,0.010503,0.001000,0.001000,0.001000,0.001000,0.001000
1028.538462,0.009368,0.001000,0.001000,0.001000,0.001000,0.001000
1028.557692,0.008229,0.001000,0.001000,0.001000,0.001000,0.001000
1028.576923,0.007084,0.001000,0.001000,0.001000,0.001000,0.001000
1028.596154,0.005936,0.001000,0.001000,0.001000,0.001000,0.001000
1028.615385,0.004785,0.001000,0.001000,0.001000,0.001000,0.001000
1028.634615,0.003631,0.001000,0.001000,0.001000,0.001000,0.001000
1028.653846,0.002475,0.001000,0.001000,0.001000,0.001000,0.001000
1028.673077,0.001318,0.001000,0.001000,0.001000,0.001000,0.001000
1028.692308,0.000160,0.001000,0.001000,0.001000,0.001000,0.001000
1028.711538,-0.000998,0.001000,0.001000,0.001000,0.001000,0.001000
1028.730769,-0.002155,0.001000,0.001000,0.001000,0.001000,0.001000
1028.750000,-0.003311,0.001000,0.001000,0.001000,0.001000,0.001000
1028.769231,-0.004466,0.001000,0.001000,0.001000,0.001000,0.001000
1028.788462,-0.005618,0.001000,0.001000,0.001000,0.001000,0.001000
1028.807692,-0.006767,0.001000,0.001000,0.001000,0.001000,0.001000
1028.826923,-0.007912,0.001000,0.001000,0.001000,0.001000,0.001000
1028.846154,-0.009053,0.001000,0.001000,0.001000,0.001000,0.001000
1028.865385,-0.010190,0.001000,0.001000,0.001000,0.001000,0.001000
1028.884615,-0.011321,0.001000,0.001000,0.001000,0.001000,0.001000
1028.903846,-0.012445,0.001000,0.001000,0.001000,0.001000,0.001000
1028.923077,-0.013564,0.001000,0.001000,0.001000,0.001000,0.001000
1028.942308,-0.014674,0.001000,0.001000,0.001000,0.001000,0.001000
1028.961538,-0.015777,0.001000,0.001000,0.001000,0.001000,0.001000
1028.980769,-0.016872,0.001000,0.001000,0.001000,0.001000,0.001000
1029.000000,-0.017957,0.001000,0.001000,0.001000,0.001000,0.001000
1029.019231,-0.019033,0.001000,0.001000,0.001000,0.001000,0.001000
1029.038462,-0.020099,0.001000,0.001000,0.001000,0.001000,0.001000
1029.057692,-0.021153,0.001000,0.001000,0.001000,0.001000,0.001000
1029.076923,-0.022197,0.001000,0.001000,0.001000,0.001000,0.001000
1029.096154,-0.023229,0.001000,0.001000,0.001000,0.001000,0.001000
1029.115385,-0.024248,0.001000,0.001000,0.001000,0.001000,0.001000
1029.134615,-0.025254,0.001000,0.001000,0.001000,0.001000,0.001000
1029.153846,-0.026246,0.001000,0.001000,0.001000,0.001000,0.001000
1029.173077,-0.027225,0.001000,0.001000,0.001000,0.001000,0.001000
1029.192308,-0.028189,0.001000,0.001000,0.001000,0.001000,0.001000
1029.211538,-0.029137,0.001000,0.001000,0.001000,0.001000,0.001000
1029.230769,-0.030071,0.001000,0.001000,0.001000,0.001000,0.001000
1029.250000,-0.030988,0.001000,0.001000,0.001000,0.001000,0.001000
1029.269231,-0.031888,0.001000,0.001000,0.001000,0.001000,0.001000
1029.288462,-0.032771,0.001000,0.001000,0.001000,0.001000,0.001000
1029.307692,-0.033637,0.001000,0.001000,0.001000,0.001000,0.001000
1029.326923,-0.034485,0.001000,0.001000,0.001000,0.001000,0.001000
1029.346154,-0.035314,0.001000,0.001000,0.001000,0.001000,0.001000
1029.365385,-0.036124,0.001000,0.001000,0.001000,0.001000,0.001000
1029.384615,-0.036915,0.001000,0.001000,0.001000,0.001000,0.001000
1029.403846,-0.037686,0.001000,0.001000,0.001000,0.001000,0.001000
1029.423077,-0.038437,0.001000,0.001000,0.001000,0.001000,0.001000
1029.442308,-0.039167,0.001000,0.001000,0.001000,0.001000,0.001000
1029.461538,-0.039876,0.001000,0.001000,0.001000,0.001000,0.001000
1029.480769,-0.040564,0.001000,0.001000,0.001000,0.001000,0.001000
1029.500000,-0.041230,0.001000,0.001000,0.001000,0.001000,0.001000
1029.519231,-0.041874,0.001000,0.001000,0.001000,0.001000,0.001000
1029.538462,-0.042496,0.001000,0.001000,0.001000,0.001000,0.001000
1029.557692,-0.043094,0.001000,0.001000,0.001000,0.001000,0.001000
1029.576923,-0.043670,0.001000,0.001000,0.001000,0.001000,0.001000
1029.596154,-0.044222,0.001000,0.001000,0.001000,0.001000,0.001000
1029.615385,-0.044751,0.001000,0.001000,0.001000,0.001000,0.001000
1029.634615,-0.045255,0.001000,0.001000,0.001000,0.001000,0.001000
1029.653846,-0.045735,0.001000,0.001000,0.001000,0.001000,0.001000
1029.673077,-0.046191,0.001000,0.001000,0.001000,0.001000,0.001000
1029.692308,-0.046622,0.001000,0.001000,0.001000,0.001000,0.001000
1029.711538,-0.047028,0.001000,0.001000,0.001000,0.001000,0.001000
1029.730769,-0.047408,0.001000,0.001000,0.001000,0.001000,0.001000
1029.750000,-0.047764,0.001000,0.001000,0.001000,0.001000,0.001000
1029.769231,-0.048093,0.001000,0.001000,0.001000,0.001000,0.001000
1029.788462,-0.048397,0.001000,0.001000,0.001000,0.001000,0.001000
1029.807692,-0.048675,0.001000,0.001000,0.001000,0.001000,0.001000
1029.826923,-0.048927,0.001000,0.001000,0.001000,0.001000,0.001000
1029.846154,-0.049152,0.001000,0.001000,0.001000,0.001000,0.001000
1029.865385,-0.049351,0.001000,0.001000,0.001000,0.001000,0.001000
1029.884615,-0.049524,0.001000,0.001000,0.001000,0.001000,0.001000
1029.903846,-0.049670,0.001000,0.001000,0.001000,0.001000,0.001000
1029.923077,-0.049790,0.001000,0.001000,0.001000,0.001000,0.001000
1029.942308,-0.049882,0.001000,0.001000,0.001000,0.001000,0.001000
1029.961538,-0.049948,0.001000,0.001000,0.001000,0.001000,0.001000
1029.980769,-0.049988,0.001000,0.001000,0.001000,0.001000,0.001000
1030.000000,0.000000,0.001000,0.001000,0.001000,0.001000,0.001000
1030.019231,0.001239,0.001000,0.001000,0.001000,0.001000,0.001000
1030.038462,0.002476,0.001000,0.001000,0.001000,0.001000,0.001000
1030.057692,0.003713,0.001000,0.001000,0.001000,0.001000,0.001000
1030.076923,0.004947,0.001000,0.001000,0.001000,0.001000,0.001000
1030.096154,0.006178,0.001000,0.001000,0.001000,0.001000,0.001000
1030.115385,0.007405,0.001000,0.001000,0.001000,0.001000,0.001000
1030.134615,0.008628,0.001000,0.001000,0.001000,0.001000,0.001000
1030.153846,0.009845,0.001000,0.001000,0.001000,0.001000,0.001000
1030.173077,0.011056,0.001000,0.001000,0.001000,0.001000,0.001000
1030.192308,0.012261,0.001000,0.001000,0.001000,0.001000,0.001000
1030.211538,0.013458,0.001000,0.001000,0.001000,0.001000,0.001000
1030.230769,0.014647,0.001000,0.001000,0.001000,0.001000,0.001000
1030.250000,0.015826,0.001000,0.001000,0.001000,0.001000,0.001000
1030.269231,0.016996,0.001000,0.001000,0.001000,0.001000,0.001000
1030.288462,0.018156,0.001000,0.001000,0.001000,0.001000,0.001000
1030.307692,0.019305,0.001000,0.001000,0.001000,0.001000,0.001000
1030.326923,0.020441,0.001000,0.001000,0.001000,0.001000,0.001000
1030.346154,0.021565,0.001000,0.001000,0.001000,0.001000,0.001000
1030.365385,0.022676,0.001000,0.001000,0.001000,0.001000,0.001000
1030.384615,0.023773,0.001000,0.001000,0.001000,0.001000,0.001000
1030.403846,0.024855,0.001000,0.001000,0.001000,0.001000,0.001000
1030.423077,0.025923,0.001000,0.001000,0.001000,0.001000,0.001000
1030.442308,0.026974,0.001000,0.001000,0.001000,0.001000,0.001000
1030.461538,0.028008,0.001000,0.001000,0.001000,0.001000,0.001000
1030.480769,0.029026,0.001000,0.001000,0.001000,0.001000,0.001000
1030.500000,0.030025,0.001000,0.001000,0.001000,0.001000,0.001000
1030.519231,0.031007,0.001000,0.001000,0.001000,0.001000,0.001000
1030.538462,0.031969,0.001000,0.001000,0.001000,0.001000,0.001000
1030.557692,0.032911,0.001000,0.001000,0.001000,0.001000,0.001000
1030.576923,0.033834,0.001000,0.001000,0.001000,0.001000,0.001000
1030.596154,0.034735,0.001000,0.001000,0.001000,0.001000,0.001000
1030.615385,0.035615,0.001000,0.001000,0.001000,0.001000,0.001000
1030.634615,0.036474,0.001000,0.001000,0.001000,0.001000,0.001000
1030.653846,0.037310,0.001000,0.001000,0.001000,0.001000,0.001000
1030.673077,0.038123,0.001000,0.001000,0.001000,0.001000,0.001000
1030.692308,0.038913,0.001000,0.001000,0.001000,0.001000,0.001000
1030.711538,0.039679,0.001000,0.001000,0.001000,0.001000,0.001000
1030.730769,0.040420,0.001000,0.001000,0.001000,0.001000,0.001000
1030.750000,0.041137,0.001000,0.001000,0.001000,0.001000,0.001000
1030.769231,0.041828,0.001000,0.001000,0.001000,0.001000,0.001000
1030.788462,0.042494,0.001000,0.001000,0.001000,0.001000,0.001000
1030.807692,0.043134,0.001000,0.001000,0.001000,0.001000,0.001000
1030.826923,0.043747,0.001000,0.001000,0.001000,0.001000,0.001000
1030.846154,0.044333,0.001000,0.001000,0.001000,0.001000,0.001000
1030.865385,0.044892,0.001000,0.001000,0.001000,0.001000,0.001000
1030.884615,0.045424,0.001000,0.001000,0.001000,0.001000,0.001000
1030.903846,0.045928,0.001000,0.001000,0.001000,0.001000,0.001000
1030.923077,0.046403,0.001000,0.001000,0.001000,0.001000,0.001000
1030.942308,0.046850,0.001000,0.001000,0.001000,0.001000,0.001000
1030.961538,0.047268,0.001000,0.001000,0.001000,0.001000,0.001000
1030.980769,0.047658,0.001000,0.001000,0.001000,0.001000,0.001000
1031.000000,0.048018,0.001000,0.001000,0.001000,0.001000,0.001000
1031.019231,0.048348,0.001000,0.001000,0.001000,0.001000,0.001000
1031.038462,0.048649,0.001000,0.001000,0.001000,0.001000,0.001000
1031.057692,0.048920,0.001000,0.001000,0.001000,0.001000,0.001000
1031.076923,0.049161,0.001000,0.001000,0.001000,0.001000,0.001000
1031.096154,0.049372,0.001000,0.001000,0.001000,0.001000,0.001000
1031.115385,0.049553,0.001000,0.001000,0.001000,0.001000,0.001000
1031.134615,0.049703,0.001000,0.001000,0.001000,0.001000,0.001000
1031.153846,0.049822,0.001000,0.001000,0.001000,0.001000,0.001000
1031.173077,0.049911,0.001000,0.001000,0.001000,0.001000,0.001000
1031.192308,0.049970,0.001000,0.001000,0.001000,0.001000,0.001000
1031.211538,0.049997,0.001000,0.001000,0.001000,0.001000,0.001000
1031.230769,0.049995,0.001000,0.001000,0.001000,0.001000,0.001000
1031.250000,0.049961,0.001000,0.001000,0.001000,0.001000,0.001000
1031.269231,0.049897,0.001000,0.001000,0.001000,0.001000,0.001000
1031.288462,0.049802,0.001000,0.001000,0.001000,0.001000,0.001000
1031.307692,0.049676,0.001000,0.001000,0.001000,0.001000,0.001000
1031.326923,0.049520,0.001000,0.001000,0.001000,0.001000,0.001000
1031.346154,0.049334,0.001000,0.001000,0.001000,0.001000,0.001000
1031.365385,0.049117,0.001000,0.001000,0.001000,0.001000,0.001000
1031.384615,0.048870,0.001000,0.001000,0.001000,0.001000,0.001000
1031.403846,0.048594,0.001000,0.001000,0.001000,0.001000,0.001000
1031.423077,0.048287,0.001000,0.001000,0.001000,0.001000,0.001000
1031.442308,0.047951,0.001000,0.001000,0.001000,0.001000,0.001000
1031.461538,0.047585,0.001000,0.001000,0.001000,0.001000,0.001000
1031.480769,0.047190,0.001000,0.001000,0.001000,0.001000,0.001000
1031.500000,0.046766,0.001000,0.001000,0.001000,0.001000,0.001000
1031.519231,0.046314,0.001000,0.001000,0.001000,0.001000,0.001000
1031.538462,0.045833,0.001000,0.001000,0.001000,0.001000,0.001000
1031.557692,0.045324,0.001000,0.001000,0.001000,0.001000,0.001000
1031.576923,0.044787,0.001000,0.001000,0.001000,0.001000,0.001000
1031.596154,0.044223,0.001000,0.001000,0.001000,0.001000,0.001000
1031.615385,0.043631,0.001000,0.001000,0.001000,0.001000,0.001000
1031.634615,0.043013,0.001000,0.001000,0.001000,0.001000,0.001000
1031.653846,0.042368,0.001000,0.001000,0.001000,0.001000,0.001000
1031.673077,0.041697,0.001000,0.001000,0.001000,0.001000,0.001000
1031.692308,0.041001,0.001000,0.001000,0.001000,0.001000,0.001000
1031.711538,0.040279,0.001000,0.001000,0.001000,0.001000,0.001000
1031.730769,0.039533,0.001000,0.001000,0.001000,0.001000,0.001000
1031.750000,0.038763,0.001000,0.001000,0.001000,0.001000,0.001000
1031.769231,0.037969,0.001000,0.001000,0.001000,0.001000,0.001000
1031.788462,0.037151,0.001000,0.001000,0.001000,0.001000,0.001000
1031.807692,0.036311,0.001000,0.001000,0.001000,0.001000,0.001000
1031.826923,0.035448,0.001000,0.001000,0.001000,0.001000,0.001000
1031.846154,0.034564,0.001000,0.001000,0.001000,0.001000,0.001000
1031.865385,0.033658,0.001000,0.001000,0.001000,0.001000,0.001000
1031.884615,0.032732,0.001000,0.001000,0.001000,0.001000,0.001000
1031.903846,0.031785,0.001000,0.001000,0.001000,0.001000,0.001000
1031.923077,0.030819,0.001000,0.001000,0.001000,0.001000,0.001000
1031.942308,0.029835,0.001000,0.001000,0.001000,0.001000,0.001000
1031.961538,0.028832,0.001000,0.001000,0.001000,0.001000,0.001000
1031.980769,0.027811,0.001000,0.001000,0.001000,0.001000,0.001000
1032.000000,0.026773,0.001000,0.001000,0.001000,0.001000,0.001000
1032.019231,0.025719,0.001000,0.001000,0.001000,0.001000,0.001000
1032.038462,0.024649,0.001000,0.001000,0.001000,0.001000,0.001000
1032.057692,0.023563,0.001000,0.001000,0.001000,0.001000,0.001000
1032.076923,0.022464,0.001000,0.001000,0.001000,0.001000,0.001000
1032.096154,0.021350,0.001000,0.001000,0.001000,0.001000,0.001000
1032.115385,0.020224,0.001000,0.001000,0.001000,0.001000,0.001000
1032.134615,0.019085,0.001000,0.001000,0.001000,0.001000,0.001000
1032.153846,0.017934,0.001000,0.001000,0.001000,0.001000,0.001000
1032.173077,0.016772,0.001000,0.001000,0.001000,0.001000,0.001000
1032.192308,0.015600,0.001000,0.001000,0.001000,0.001000,0.001000
1032.211538,0.014419,0.001000,0.001000,0.001000,0.001000,0.001000
1032.230769,0.013228,0.001000,0.001000,0.001000,0.001000,0.001000
1032.250000,0.012030,0.001000,0.001000,0.001000,0.001000,0.001000
1032.269231,0.010824,0.001000,0.001000,0.001000,0.001000,0.001000
1032.288462,0.009612,0.001000,0.001000,0.001000,0.001000,0.001000
1032.307692,0.008393,0.001000,0.001000,0.001000,0.001000,0.001000
1032.326923,0.007169,0.001000,0.001000,0.001000,0.001000,0.001000
1032.346154,0.005941,0.001000,0.001000,0.001000,0.001000,0.001000
1032.365385,0.004710,0.001000,0.001000,0.001000,0.001000,0.001000
1032.384615,0.003475,0.001000,0.001000,0.001000,0.001000,0.001000
1032.403846,0.002239,0.001000,0.001000,0.001000,0.001000,0.001000
1032.423077,0.001001,0.001000,0.001000,0.001000,0.001000,0.001000
1032.442308,-0.000238,0.001000,0.001000,0.001000,0.001000,0.001000
1032.461538,-0.001477,0.001000,0.001000,0.001000,0.001000,0.001000
1032.480769,-0.002714,0.001000,0.001000,0.001000,0.001000,0.001000
1032.500000,-0.003950,0.001000,0.001000,0.001000,0.001000,0.001000
1032.519231,-0.005184,0.001000,0.001000,0.001000,0.001000,0.001000
1032.538462,-0.006414,0.001000,0.001000,0.001000,0.001000,0.001000
1032.557692,-0.007640,0.001000,0.001000,0.001000,0.001000,0.001000
1032.576923,-0.008862,0.001000,0.001000,0.001000,0.001000,0.001000
1032.596154,-0.010078,0.001000,0.001000,0.001000,0.001000,0.001000
1032.615385,-0.011288,0.001000,0.001000,0.001000,0.001000,0.001000
1032.634615,-0.012492,0.001000,0.001000,0.001000,0.001000,0.001000
1032.653846,-0.013687,0.001000,0.001000,0.001000,0.001000,0.001000
1032.673077,-0.014874,0.001000,0.001000,0.001000,0.001000,0.001000
1032.692308,-0.016052,0.001000,0.001000,0.001000,0.001000,0.001000
1032.711538,-0.017220,0.001000,0.001000,0.001000,0.001000,0.001000
1032.730769,-0.018378,0.001000,0.001000,0.001000,0.001000,0.001000
1032.750000,-0.019524,0.001000,0.001000,0.001000,0.001000,0.001000
1032.769231,-0.020658,0.001000,0.001000,0.001000,0.001000,0.001000
1032.788462,-0.021780,0.001000,0.001000,0.001000,0.001000,0.001000
1032.807692,-0.022888,0.001000,0.001000,0.001000,0.001000,0.001000
1032.826923,-0.023982,0.001000,0.001000,0.001000,0.001000,0.001000
1032.846154,-0.025062,0.001000,0.001000,0.001000,0.001000,0.001000
1032.865385,-0.026126,0.001000,0.001000,0.001000,0.001000,0.001000
1032.884615,-0.027174,0.001000,0.001000,0.001000,0.001000,0.001000
1032.903846,-0.028205,0.001000,0.001000,0.001000,0.001000,0.001000
1032.923077,-0.029219,0.001000,0.001000,0.001000,0.001000,0.001000
1032.942308,-0.030215,0.001000,0.001000,0.001000,0.001000,0.001000
1032.961538,-0.031193,0.001000,0.001000,0.001000,0.001000,0.001000
1032.980769,-0.032151,0.001000,0.001000,0.001000,0.001000,0.001000
1033.000000,-0.033090,0.001000,0.001000,0.001000,0.001000,0.001000
1033.019231,-0.034008,0.001000,0.001000,0.001000,0.001000,0.001000
1033.038462,-0.034906,0.001000,0.001000,0.001000,0.001000,0.001000
1033.057692,-0.035782,0.001000,0.001000,0.001000,0.001000,0.001000
1033.076923,-0.036636,0.001000,0.001000,0.001000,0.001000,0.001000
1033.096154,-0.037468,0.001000,0.001000,0.001000,0.001000,0.001000
1033.115385,-0.038277,0.001000,0.001000,0.001000,0.001000,0.001000
1033.134615,-0.039062,0.001000,0.001000,0.001000,0.001000,0.001000
1033.153846,-0.039823,0.001000,0.001000,0.001000,0.001000,0.001000
1033.173077,-0.040560,0.001000,0.001000,0.001000,0.001000,0.001000
1033.192308,-0.041272,0.001000,0.001000,0.001000,0.001000,0.001000
1033.211538,-0.041958,0.001000,0.001000,0.001000,0.001000,0.001000
1033.230769,-0.042619,0.001000,0.001000,0.001000,0.001000,0.001000
1033.250000,-0.043253,0.001000,0.001000,0.001000,0.001000,0.001000
1033.269231,-0.043862,0.001000,0.001000,0.001000,0.001000,0.001000
1033.288462,-0.044443,0.001000,0.001000,0.001000,0.001000,0.001000
1033.307692,-0.044997,0.001000,0.001000,0.001000,0.001000,0.001000
1033.326923,-0.045523,0.001000,0.001000,0.001000,0.001000,0.001000
1033.346154,-0.046021,0.001000,0.001000,0.001000,0.001000,0.001000
1033.365385,-0.046491,0.001000,0.001000,0.001000,0.001000,0.001000
1033.384615,-0.046933,0.001000,0.001000,0.001000,0.001000,0.001000
1033.403846,-0.047345,0.001000,0.001000,0.001000,0.001000,0.001000
1033.423077,-0.047729,0.001000,0.001000,0.001000,0.001000,0.001000
1033.442308,-0.048084,0.001000,0.001000,0.001000,0.001000,0.001000
1033.461538,-0.048408,0.001000,0.001000,0.001000,0.001000,0.001000
1033.480769,-0.048704,0.001000,0.001000,0.001000,0.001000,0.001000
1033.500000,-0.048969,0.001000,0.001000,0.001000,0.001000,0.001000
1033.519231,-0.049204,0.001000,0.001000,0.001000,0.001000,0.001000
1033.538462,-0.049409,0.001000,0.001000,0.001000,0.001000,0.001000
1033.557692,-0.049584,0.001000,0.001000,0.001000,0.001000,0.001000
1033.576923,-0.049728,0.001000,0.001000,0.001000,0.001000,0.001000
1033.596154,-0.049842,0.001000,0.001000,0.001000,0.001000,0.001000
1033.615385,-0.049925,0.001000,0.001000,0.001000,0.001000,0.001000
1033.634615,-0.049977,0.001000,0.001000,0.001000,0.001000,0.001000
1033.653846,-0.049999,0.001000,0.001000,0.001000,0.001000,0.001000
1033.673077,-0.049990,0.001000,0.001000,0.001000,0.001000,0.001000
1033.692308,-0.049951,0.001000,0.001000,0.001000,0.001000,0.001000
1033.711538,-0.049881,0.001000,0.001000,0.001000,0.001000,0.001000
1033.730769,-0.049780,0.001000,0.001000,0.001000,0.001000,0.001000
1033.750000,-0.049649,0.001000,0.001000,0.001000,0.001000,0.001000
1033.769231,-0.049487,0.001000,0.001000,0.001000,0.001000,0.001000
1033.788462,-0.049295,0.001000,0.001000,0.001000,0.001000,0.001000
1033.807692,-0.049072,0.001000,0.001000,0.001000,0.001000,0.001000
1033.826923,-0.048820,0.001000,0.001000,0.001000,0.001000,0.001000
1033.846154,-0.048537,0.001000,0.001000,0.001000,0.001000,0.001000
1033.865385,-0.048225,0.001000,0.001000,0.001000,0.001000,0.001000
1033.884615,-0.047883,0.001000,0.001000,0.001000,0.001000,0.001000
1033.903846,-0.047512,0.001000,0.001000,0.001000,0.001000,0.001000
1033.923077,-0.047111,0.001000,0.001000,0.001000,0.001000,0.001000
1033.942308,-0.046682,0.001000,0.001000,0.001000,0.001000,0.001000
1033.961538,-0.046224,0.001000,0.001000,0.001000,0.001000,0.001000
1033.980769,-0.045737,0.001000,0.001000,0.001000,0.001000,0.001000
1034.000000,-0.045223,0.001000,0.001000,0.001000,0.001000,0.001000
1034.019231,-0.044681,0.001000,0.001000,0.001000,0.001000,0.001000
1034.038462,-0.044111,0.001000,0.001000,0.001000,0.001000,0.001000
1034.057692,-0.043514,0.001000,0.001000,0.001000,0.001000,0.001000
1034.076923,-0.042891,0.001000,0.001000,0.001000,0.001000,0.001000
1034.096154,-0.042241,0.001000,0.001000,0.001000,0.001000,0.001000
1034.115385,-0.041565,0.001000,0.001000,0.001000,0.001000,0.001000
1034.134615,-0.040864,0.001000,0.001000,0.001000,0.001000,0.001000
1034.153846,-0.040138,0.001000,0.001000,0.001000,0.001000,0.001000
1034.173077,-0.039387,0.001000,0.001000,0.001000,0.001000,0.001000
1034.192308,-0.038612,0.001000,0.001000,0.001000,0.001000,0.001000
1034.211538,-0.037813,0.001000,0.001000,0.001000,0.001000,0.001000
1034.230769,-0.036991,0.001000,0.001000,0.001000,0.001000,0.001000
1034.250000,-0.036147,0.001000,0.001000,0.001000,0.001000,0.001000
1034.269231,-0.035280,0.001000,0.001000,0.001000,0.001000,0.001000
1034.288462,-0.034391,0.001000,0.001000,0.001000,0.001000,0.001000
1034.307692,-0.033482,0.001000,0.001000,0.001000,0.001000,0.001000
1034.326923,-0.032551,0.001000,0.001000,0.001000,0.001000,0.001000
1034.346154,-0.031601,0.001000,0.001000,0.001000,0.001000,0.001000
1034.365385,-0.030632,0.001000,0.001000,0.001000,0.001000,0.001000
1034.384615,-0.029643,0.001000,0.001000,0.001000,0.001000,0.001000
1034.403846,-0.028637,0.001000,0.001000,0.001000,0.001000,0.001000
1034.423077,-0.027613,0.001000,0.001000,0.001000,0.001000,0.001000
1034.442308,-0.026572,0.001000,0.001000,0.001000,0.001000,0.001000
1034.461538,-0.025514,0.001000,0.001000,0.001000,0.001000,0.001000
1034.480769,-0.024441,0.001000,0.001000,0.001000,0.001000,0.001000
1034.500000,-0.023353,0.001000,0.001000,0.001000,0.001000,0.001000
1034.519231,-0.022251,0.001000,0.001000,0.001000,0.001000,0.001000
1034.538462,-0.021135,0.001000,0.001000,0.001000,0.001000,0.001000
1034.557692,-0.020006,0.001000,0.001000,0.001000,0.001000,0.001000
1034.576923,-0.018865,0.001000,0.001000,0.001000,0.001000,0.001000
1034.596154,-0.017712,0.001000,0.001000,0.001000,0.001000,0.001000
1034.615385,-0.016548,0.001000,0.001000,0.001000,0.001000,0.001000
1034.634615,-0.015374,0.001000,0.001000,0.001000,0.001000,0.001000
1034.653846,-0.014191,0.001000,0.001000,0.001000,0.001000,0.001000
1034.673077,-0.012999,0.001000,0.001000,0.001000,0.001000,0.001000
