timestamp,ax,ay,az,gx,gy,gz
1000.000000,0.000000,0.001000,0.001000,0.001000,0.001000,0.001000
1000.019231,0.001186,0.001000,0.001000,0.001000,0.001000,0.001000
1000.038462,0.002372,0.001000,0.001000,0.001000,0.001000,0.001000
1000.057692,0.003557,0.001000,0.001000,0.001000,0.001000,0.001000
1000.076923,0.004739,0.001000,0.001000,0.001000,0.001000,0.001000
1000.096154,0.005919,0.001000,0.001000,0.001000,0.001000,0.001000
1000.115385,0.007095,0.001000,0.001000,0.001000,0.001000,0.001000
1000.134615,0.008268,0.001000,0.001000,0.001000,0.001000,0.001000
1000.153846,0.009435,0.001000,0.001000,0.001000,0.001000,0.001000
1000.173077,0.010598,0.001000,0.001000,0.001000,0.001000,0.001000
1000.192308,0.011754,0.001000,0.001000,0.001000,0.001000,0.001000
1000.211538,0.012904,0.001000,0.001000,0.001000,0.001000,0.001000
1000.230769,0.014047,0.001000,0.001000,0.001000,0.001000,0.001000
1000.250000,0.015182,0.001000,0.001000,0.001000,0.001000,0.001000
1000.269231,0.016308,0.001000,0.001000,0.001000,0.001000,0.001000
1000.288462,0.017425,0.001000,0.001000,0.001000,0.001000,0.001000
1000.307692,0.018532,0.001000,0.001000,0.001000,0.001000,0.001000
1000.326923,0.019629,0.001000,0.001000,0.001000,0.001000,0.001000
1000.346154,0.020714,0.001000,0.001000,0.001000,0.001000,0.001000
1000.365385,0.021788,0.001000,0.001000,0.001000,0.001000,0.001000
1000.384615,0.022850,0.001000,0.001000,0.001000,0.001000,0.001000
1000.403846,0.023899,0.001000,0.001000,0.001000,0.001000,0.001000
1000.423077,0.024934,0.001000,0.001000,0.001000,0.001000,0.001000
1000.442308,0.025956,0.001000,0.001000,0.001000,0.001000,0.001000
1000.461538,0.026962,0.001000,0.001000,0.001000,0.001000,0.001000
1000.480769,0.027954,0.001000,0.001000,0.001000,0.001000,0.001000
1000.500000,0.028930,0.001000,0.001000,0.001000,0.001000,0.001000
1000.519231,0.029889,0.001000,0.001000,0.001000,0.001000,0.001000
1000.538462,0.030832,0.001000,0.001000,0.001000,0.001000,0.001000
1000.557692,0.031757,0.001000,0.001000,0.001000,0.001000,0.001000
1000.576923,0.032665,0.001000,0.001000,0.001000,0.001000,0.001000
1000.596154,0.033554,0.001000,0.001000,0.001000,0.001000,0.001000
1000.615385,0.034424,0.001000,0.001000,0.001000,0.001000,0.001000
1000.634615,0.035275,0.001000,0.001000,0.001000,0.001000,0.001000
1000.653846,0.036106,0.001000,0.001000,0.001000,0.001000,0.001000
1000.673077,0.036916,0.001000,0.001000,0.001000,0.001000,0.001000
1000.692308,0.037706,0.001000,0.001000,0.001000,0.001000,0.001000
1000.711538,0.038474,0.001000,0.001000,0.001000,0.001000,0.001000
1000.730769,0.039221,0.001000,0.001000,0.001000,0.001000,0.001000
1000.750000,0.039946,0.001000,0.001000,0.001000,0.001000,0.001000
1000.769231,0.040649,0.001000,0.001000,0.001000,0.001000,0.001000
1000.788462,0.041328,0.001000,0.001000,0.001000,0.001000,0.001000
1000.807692,0.041984,0.001000,0.001000,0.001000,0.001000,0.001000
1000.826923,0.042617,0.001000,0.001000,0.001000,0.001000,0.001000
1000.846154,0.043225,0.001000,0.001000,0.001000,0.001000,0.001000
1000.865385,0.043809,0.001000,0.001000,0.001000,0.001000,0.001000
1000.884615,0.044369,0.001000,0.001000,0.001000,0.001000,0.001000
1000.903846,0.044903,0.001000,0.001000,0.001000,0.001000,0.001000
1000.923077,0.045412,0.001000,0.001000,0.001000,0.001000,0.001000
1000.942308,0.045896,0.001000,0.001000,0.001000,0.001000,0.001000
1000.961538,0.046354,0.001000,0.001000,0.001000,0.001000,0.001000
1000.980769,0.046786,0.001000,0.001000,0.001000,0.001000,0.001000
1001.000000,0.047191,0.001000,0.001000,0.001000,0.001000,0.001000
1001.019231,0.047570,0.001000,0.001000,0.001000,0.001000,0.001000
1001.038462,0.047922,0.001000,0.001000,0.001000,0.001000,0.001000
1001.057692,0.048247,0.001000,0.001000,0.001000,0.001000,0.001000
1001.076923,0.048545,0.001000,0.001000,0.001000,0.001000,0.001000
1001.096154,0.048815,0.001000,0.001000,0.001000,0.001000,0.001000
1001.115385,0.049058,0.001000,0.001000,0.001000,0.001000,0.001000
1001.134615,0.049274,0.001000,0.001000,0.001000,0.001000,0.001000
1001.153846,0.049461,0.001000,0.001000,0.001000,0.001000,0.001000
1001.173077,0.049621,0.001000,0.001000,0.001000,0.001000,0.001000
1001.192308,0.049753,0.001000,0.001000,0.001000,0.001000,0.001000
1001.211538,0.049857,0.001000,0.001000,0.001000,0.001000,0.001000
1001.230769,0.049932,0.001000,0.001000,0.001000,0.001000,0.001000
1001.250000,0.049980,0.001000,0.001000,0.001000,0.001000,0.001000
1001.269231,0.049999,0.001000,0.001000,0.001000,0.001000,0.001000
1001.288462,0.049991,0.001000,0.001000,0.001000,0.001000,0.001000
1001.307692,0.049954,0.001000,0.001000,0.001000,0.001000,0.001000
1001.326923,0.049889,0.001000,0.001000,0.001000,0.001000,0.001000
1001.346154,0.049796,0.001000,0.001000,0.001000,0.001000,0.001000
1001.365385,0.049675,0.001000,0.001000,0.001000,0.001000,0.001000
1001.384615,0.049526,0.001000,0.001000,0.001000,0.001000,0.001000
1001.403846,0.049349,0.001000,0.001000,0.001000,0.001000,0.001000
1001.423077,0.049144,0.001000,0.001000,0.001000,0.001000,0.001000
1001.442308,0.048912,0.001000,0.001000,0.001000,0.001000,0.001000
1001.461538,0.048652,0.001000,0.001000,0.001000,0.001000,0.001000
1001.480769,0.048364,0.001000,0.001000,0.001000,0.001000,0.001000
1001.500000,0.048050,0.001000,0.001000,0.001000,0.001000,0.001000
1001.519231,0.047708,0.001000,0.001000,0.001000,0.001000,0.001000
1001.538462,0.047340,0.001000,0.001000,0.001000,0.001000,0.001000
1001.557692,0.046945,0.001000,0.001000,0.001000,0.001000,0.001000
1001.576923,0.046523,0.001000,0.001000,0.001000,0.001000,0.001000
1001.596154,0.046075,0.001000,0.001000,0.001000,0.001000,0.001000
1001.615385,0.045601,0.001000,0.001000,0.001000,0.001000,0.001000
1001.634615,0.045102,0.001000,0.001000,0.001000,0.001000,0.001000
1001.653846,0.044577,0.001000,0.001000,0.001000,0.001000,0.001000
1001.673077,0.044027,0.001000,0.001000,0.001000,0.001000,0.001000
1001.692308,0.043452,0.001000,0.001000,0.001000,0.001000,0.001000
1001.711538,0.042853,0.001000,0.001000,0.001000,0.001000,0.001000
1001.730769,0.042230,0.001000,0.001000,0.001000,0.001000,0.001000
1001.750000,0.041583,0.001000,0.001000,0.001000,0.001000,0.001000
1001.769231,0.040912,0.001000,0.001000,0.001000,0.001000,0.001000
1001.788462,0.040219,0.001000,0.001000,0.001000,0.001000,0.001000
1001.807692,0.039503,0.001000,0.001000,0.001000,0.001000,0.001000
1001.826923,0.038764,0.001000,0.001000,0.001000,0.001000,0.001000
1001.846154,0.038004,0.001000,0.001000,0.001000,0.001000,0.001000
1001.865385,0.037222,0.001000,0.001000,0.001000,0.001000,0.001000
1001.884615,0.036419,0.001000,0.001000,0.001000,0.001000,0.001000
1001.903846,0.035596,0.001000,0.001000,0.001000,0.001000,0.001000
1001.923077,0.034753,0.001000,0.001000,0.001000,0.001000,0.001000
1001.942308,0.033890,0.001000,0.001000,0.001000,0.001000,0.001000
1001.961538,0.033008,0.001000,0.001000,0.001000,0.001000,0.001000
1001.980769,0.032108,0.001000,0.001000,0.001000,0.001000,0.001000
1002.000000,0.031189,0.001000,0.001000,0.001000,0.001000,0.001000
1002.019231,0.030253,0.001000,0.001000,0.001000,0.001000,0.001000
1002.038462,0.029300,0.001000,0.001000,0.001000,0.001000,0.001000
1002.057692,0.028331,0.001000,0.001000,0.001000,0.001000,0.001000
1002.076923,0.027345,0.001000,0.001000,0.001000,0.001000,0.001000
1002.096154,0.026344,0.001000,0.001000,0.001000,0.001000,0.001000
1002.115385,0.025328,0.001000,0.001000,0.001000,0.001000,0.001000
1002.134615,0.024298,0.001000,0.001000,0.001000,0.001000,0.001000
1002.153846,0.023254,0.001000,0.001000,0.001000,0.001000,0.001000
1002.173077,0.022198,0.001000,0.001000,0.001000,0.001000,0.001000
1002.192308,0.021128,0.001000,0.001000,0.001000,0.001000,0.001000
1002.211538,0.020047,0.001000,0.001000,0.001000,0.001000,0.001000
1002.230769,0.018954,0.001000,0.001000,0.001000,0.001000,0.001000
1002.250000,0.017851,0.001000,0.001000,0.001000,0.001000,0.001000
1002.269231,0.016738,0.001000,0.001000,0.001000,0.001000,0.001000
1002.288462,0.015615,0.001000,0.001000,0.001000,0.001000,0.001000
1002.307692,0.014484,0.001000,0.001000,0.001000,0.001000,0.001000
1002.326923,0.013344,0.001000,0.001000,0.001000,0.001000,0.001000
1002.346154,0.012197,0.001000,0.001000,0.001000,0.001000,0.001000
1002.365385,0.011043,0.001000,0.001000,0.001000,0.001000,0.001000
1002.384615,0.009883,0.001000,0.001000,0.001000,0.001000,0.001000
1002.403846,0.008717,0.001000,0.001000,0.001000,0.001000,0.001000
1002.423077,0.007546,0.001000,0.001000,0.001000,0.001000,0.001000
1002.442308,0.006371,0.001000,0.001000,0.001000,0.001000,0.001000
1002.461538,0.005193,0.001000,0.001000,0.001000,0.001000,0.001000
1002.480769,0.004011,0.001000,0.001000,0.001000,0.001000,0.001000
1002.500000,0.002827,0.001000,0.001000,0.001000,0.001000,0.001000
1002.519231,0.001642,0.001000,0.001000,0.001000,0.001000,0.001000
1002.538462,0.000456,0.001000,0.001000,0.001000,0.001000,0.001000
1002.557692,-0.000731,0.001000,0.001000,0.001000,0.001000,0.001000
1002.576923,-0.001917,0.001000,0.001000,0.001000,0.001000,0.001000
1002.596154,-0.003102,0.001000,0.001000,0.001000,0.001000,0.001000
1002.615385,-0.004285,0.001000,0.001000,0.001000,0.001000,0.001000
1002.634615,-0.005466,0.001000,0.001000,0.001000,0.001000,0.001000
1002.653846,-0.006644,0.001000,0.001000,0.001000,0.001000,0.001000
1002.673077,-0.007818,0.001000,0.001000,0.001000,0.001000,0.001000
1002.692308,-0.008987,0.001000,0.001000,0.001000,0.001000,0.001000
1002.711538,-0.010152,0.001000,0.001000,0.001000,0.001000,0.001000
1002.730769,-0.011311,0.001000,0.001000,0.001000,0.001000,0.001000
1002.750000,-0.012463,0.001000,0.001000,0.001000,0.001000,0.001000
1002.769231,-0.013609,0.001000,0.001000,0.001000,0.001000,0.001000
1002.788462,-0.014747,0.001000,0.001000,0.001000,0.001000,0.001000
1002.807692,-0.015876,0.001000,0.001000,0.001000,0.001000,0.001000
1002.826923,-0.016997,0.001000,0.001000,0.001000,0.001000,0.001000
1002.846154,-0.018108,0.001000,0.001000,0.001000,0.001000,0.001000
1002.865385,-0.019208,0.001000,0.001000,0.001000,0.001000,0.001000
1002.884615,-0.020298,0.001000,0.001000,0.001000,0.001000,0.001000
1002.903846,-0.021377,0.001000,0.001000,0.001000,0.001000,0.001000
1002.923077,-0.022443,0.001000,0.001000,0.001000,0.001000,0.001000
1002.942308,-0.023497,0.001000,0.001000,0.001000,0.001000,0.001000
1002.961538,-0.024538,0.001000,0.001000,0.001000,0.001000,0.001000
1002.980769,-0.025565,0.001000,0.001000,0.001000,0.001000,0.001000
1003.000000,-0.026577,0.001000,0.001000,0.001000,0.001000,0.001000
1003.019231,-0.027575,0.001000,0.001000,0.001000,0.001000,0.001000
1003.038462,-0.028557,0.001000,0.001000,0.001000,0.001000,0.001000
1003.057692,-0.029522,0.001000,0.001000,0.001000,0.001000,0.001000
1003.076923,-0.030472,0.001000,0.001000,0.001000,0.001000,0.001000
1003.096154,-0.031404,0.001000,0.001000,0.001000,0.001000,0.001000
1003.115385,-0.032318,0.001000,0.001000,0.001000,0.001000,0.001000
1003.134615,-0.033214,0.001000,0.001000,0.001000,0.001000,0.001000
1003.153846,-0.034092,0.001000,0.001000,0.001000,0.001000,0.001000
1003.173077,-0.034950,0.001000,0.001000,0.001000,0.001000,0.001000
1003.192308,-0.035789,0.001000,0.001000,0.001000,0.001000,0.001000
1003.211538,-0.036607,0.001000,0.001000,0.001000,0.001000,0.001000
1003.230769,-0.037405,0.001000,0.001000,0.001000,0.001000,0.001000
1003.250000,-0.038182,0.001000,0.001000,0.001000,0.001000,0.001000
1003.269231,-0.038937,0.001000,0.001000,0.001000,0.001000,0.001000
1003.288462,-0.039670,0.001000,0.001000,0.001000,0.001000,0.001000
1003.307692,-0.040381,0.001000,0.001000,0.001000,0.001000,0.001000
1003.326923,-0.041070,0.001000,0.001000,0.001000,0.001000,0.001000
1003.346154,-0.041735,0.001000,0.001000,0.001000,0.001000,0.001000
1003.365385,-0.042376,0.001000,0.001000,0.001000,0.001000,0.001000
1003.384615,-0.042994,0.001000,0.001000,0.001000,0.001000,0.001000
1003.403846,-0.043588,0.001000,0.001000,0.001000,0.001000,0.001000
1003.423077,-0.044157,0.001000,0.001000,0.001000,0.001000,0.001000
1003.442308,-0.044701,0.001000,0.001000,0.001000,0.001000,0.001000
1003.461538,-0.045220,0.001000,0.001000,0.001000,0.001000,0.001000
1003.480769,-0.045713,0.001000,0.001000,0.001000,0.001000,0.001000
1003.500000,-0.046181,0.001000,0.001000,0.001000,0.001000,0.001000
1003.519231,-0.046623,0.001000,0.001000,0.001000,0.001000,0.001000
1003.538462,-0.047038,0.001000,0.001000,0.001000,0.001000,0.001000
1003.557692,-0.047427,0.001000,0.001000,0.001000,0.001000,0.001000
1003.576923,-0.047790,0.001000,0.001000,0.001000,0.001000,0.001000
1003.596154,-0.048125,0.001000,0.001000,0.001000,0.001000,0.001000
1003.615385,-0.048433,0.001000,0.001000,0.001000,0.001000,0.001000
1003.634615,-0.048714,0.001000,0.001000,0.001000,0.001000,0.001000
1003.653846,-0.048968,0.001000,0.001000,0.001000,0.001000,0.001000
1003.673077,-0.049194,0.001000,0.001000,0.001000,0.001000,0.001000
1003.692308,-0.049392,0.001000,0.001000,0.001000,0.001000,0.001000
1003.711538,-0.049563,0.001000,0.001000,0.001000,0.001000,0.001000
1003.730769,-0.049705,0.001000,0.001000,0.001000,0.001000,0.001000
1003.750000,-0.049820,0.001000,0.001000,0.001000,0.001000,0.001000
1003.769231,-0.049907,0.001000,0.001000,0.001000,0.001000,0.001000
1003.788462,-0.049965,0.001000,0.001000,0.001000,0.001000,0.001000
1003.807692,-0.049995,0.001000,0.001000,0.001000,0.001000,0.001000
1003.826923,-0.049997,0.001000,0.001000,0.001000,0.001000,0.001000
1003.846154,-0.049971,0.001000,0.001000,0.001000,0.001000,0.001000
1003.865385,-0.049917,0.001000,0.001000,0.001000,0.001000,0.001000
1003.884615,-0.049835,0.001000,0.001000,0.001000,0.001000,0.001000
1003.903846,-0.049725,0.001000,0.001000,0.001000,0.001000,0.001000
1003.923077,-0.049586,0.001000,0.001000,0.001000,0.001000,0.001000
1003.942308,-0.049420,0.001000,0.001000,0.001000,0.001000,0.001000
1003.961538,-0.049226,0.001000,0.001000,0.001000,0.001000,0.001000
1003.980769,-0.049004,0.001000,0.001000,0.001000,0.001000,0.001000
1004.000000,-0.048755,0.001000,0.001000,0.001000,0.001000,0.001000
1004.019231,-0.048478,0.001000,0.001000,0.001000,0.001000,0.001000
1004.038462,-0.048174,0.001000,0.001000,0.001000,0.001000,0.001000
1004.057692,-0.047843,0.001000,0.001000,0.001000,0.001000,0.001000
1004.076923,-0.047484,0.001000,0.001000,0.001000,0.001000,0.001000
1004.096154,-0.047099,0.001000,0.001000,0.001000,0.001000,0.001000
1004.115385,-0.046688,0.001000,0.001000,0.001000,0.001000,0.001000
1004.134615,-0.046250,0.001000,0.001000,0.001000,0.001000,0.001000
1004.153846,-0.045786,0.001000,0.001000,0.001000,0.001000,0.001000
1004.173077,-0.045297,0.001000,0.001000,0.001000,0.001000,0.001000
1004.192308,-0.044782,0.001000,0.001000,0.001000,0.001000,0.001000
1004.211538,-0.044241,0.001000,0.001000,0.001000,0.001000,0.001000
1004.230769,-0.043676,0.001000,0.001000,0.001000,0.001000,0.001000
1004.250000,-0.043086,0.001000,0.001000,0.001000,0.001000,0.001000
1004.269231,-0.042472,0.001000,0.001000,0.001000,0.001000,0.001000
1004.288462,-0.041834,0.001000,0.001000,0.001000,0.001000,0.001000
1004.307692,-0.041173,0.001000,0.001000,0.001000,0.001000,0.001000
1004.326923,-0.040488,0.001000,0.001000,0.001000,0.001000,0.001000
1004.346154,-0.039780,0.001000,0.001000,0.001000,0.001000,0.001000
1004.365385,-0.039050,0.001000,0.001000,0.001000,0.001000,0.001000
1004.384615,-0.038298,0.001000,0.001000,0.001000,0.001000,0.001000
1004.403846,-0.037525,0.001000,0.001000,0.001000,0.001000,0.001000
1004.423077,-0.036730,0.001000,0.001000,0.001000,0.001000,0.001000
1004.442308,-0.035915,0.001000,0.001000,0.001000,0.001000,0.001000
1004.461538,-0.035079,0.001000,0.001000,0.001000,0.001000,0.001000
1004.480769,-0.034224,0.001000,0.001000,0.001000,0.001000,0.001000
1004.500000,-0.033350,0.001000,0.001000,0.001000,0.001000,0.001000
1004.519231,-0.032456,0.001000,0.001000,0.001000,0.001000,0.001000
1004.538462,-0.031545,0.001000,0.001000,0.001000,0.001000,0.001000
1004.557692,-0.030615,0.001000,0.001000,0.001000,0.001000,0.001000
1004.576923,-0.029668,0.001000,0.001000,0.001000,0.001000,0.001000
1004.596154,-0.028705,0.001000,0.001000,0.001000,0.001000,0.001000
1004.615385,-0.027726,0.001000,0.001000,0.001000,0.001000,0.001000
1004.634615,-0.026730,0.001000,0.001000,0.001000,0.001000,0.001000
1004.653846,-0.025720,0.001000,0.001000,0.001000,0.001000,0.001000
1004.673077,-0.024696,0.001000,0.001000,0.001000,0.001000,0.001000
1004.692308,-0.023657,0.001000,0.001000,0.001000,0.001000,0.001000
1004.711538,-0.022605,0.001000,0.001000,0.001000,0.001000,0.001000
1004.730769,-0.021541,0.001000,0.001000,0.001000,0.001000,0.001000
1004.750000,-0.020464,0.001000,0.001000,0.001000,0.001000,0.001000
1004.769231,-0.019376,0.001000,0.001000,0.001000,0.001000,0.001000
1004.788462,-0.018276,0.001000,0.001000,0.001000,0.001000,0.001000
1004.807692,-0.017167,0.001000,0.001000,0.001000,0.001000,0.001000
1004.826923,-0.016048,0.001000,0.001000,0.001000,0.001000,0.001000
1004.846154,-0.014920,0.001000,0.001000,0.001000,0.001000,0.001000
1004.865385,-0.013783,0.001000,0.001000,0.001000,0.001000,0.001000
1004.884615,-0.012639,0.001000,0.001000,0.001000,0.001000,0.001000
1004.903846,-0.011487,0.001000,0.001000,0.001000,0.001000,0.001000
1004.923077,-0.010329,0.001000,0.001000,0.001000,0.001000,0.001000
1004.942308,-0.009165,0.001000,0.001000,0.001000,0.001000,0.001000
1004.961538,-0.007997,0.001000,0.001000,0.001000,0.001000,0.001000
1004.980769,-0.006823,0.001000,0.001000,0.001000,0.001000,0.001000
1005.000000,-0.005646,0.001000,0.001000,0.001000,0.001000,0.001000
1005.019231,-0.004465,0.001000,0.001000,0.001000,0.001000,0.001000
1005.038462,-0.003283,0.001000,0.001000,0.001000,0.001000,0.001000
1005.057692,-0.002098,0.001000,0.001000,0.001000,0.001000,0.001000
1005.076923,-0.000912,0.001000,0.001000,0.001000,0.001000,0.001000
1005.096154,0.000275,0.001000,0.001000,0.001000,0.001000,0.001000
1005.115385,0.001461,0.001000,0.001000,0.001000,0.001000,0.001000
1005.134615,0.002647,0.001000,0.001000,0.001000,0.001000,0.001000
1005.153846,0.003831,0.001000,0.001000,0.001000,0.001000,0.001000
1005.173077,0.005012,0.001000,0.001000,0.001000,0.001000,0.001000
1005.192308,0.006192,0.001000,0.001000,0.001000,0.001000,0.001000
1005.211538,0.007367,0.001000,0.001000,0.001000,0.001000,0.001000
1005.230769,0.008539,0.001000,0.001000,0.001000,0.001000,0.001000
1005.250000,0.009705,0.001000,0.001000,0.001000,0.001000,0.001000
1005.269231,0.010866,0.001000,0.001000,0.001000,0.001000,0.001000
1005.288462,0.012021,0.001000,0.001000,0.001000,0.001000,0.001000
1005.307692,0.013169,0.001000,0.001000,0.001000,0.001000,0.001000
1005.326923,0.014310,0.001000,0.001000,0.001000,0.001000,0.001000
1005.346154,0.015443,0.001000,0.001000,0.001000,0.001000,0.001000
1005.365385,0.016567,0.001000,0.001000,0.001000,0.001000,0.001000
1005.384615,0.017682,0.001000,0.001000,0.001000,0.001000,0.001000
1005.403846,0.018787,0.001000,0.001000,0.001000,0.001000,0.001000
1005.423077,0.019881,0.001000,0.001000,0.001000,0.001000,0.001000
1005.442308,0.020964,0.001000,0.001000,0.001000,0.001000,0.001000
1005.461538,0.022035,0.001000,0.001000,0.001000,0.001000,0.001000
1005.480769,0.023094,0.001000,0.001000,0.001000,0.001000,0.001000
1005.500000,0.024140,0.001000,0.001000,0.001000,0.001000,0.001000
1005.519231,0.025172,0.001000,0.001000,0.001000,0.001000,0.001000
1005.538462,0.026190,0.001000,0.001000,0.001000,0.001000,0.001000
1005.557692,0.027193,0.001000,0.001000,0.001000,0.001000,0.001000
1005.576923,0.028181,0.001000,0.001000,0.001000,0.001000,0.001000
1005.596154,0.029153,0.001000,0.001000,0.001000,0.001000,0.001000
1005.615385,0.030109,0.001000,0.001000,0.001000,0.001000,0.001000
1005.634615,0.031048,0.001000,0.001000,0.001000,0.001000,0.001000
1005.653846,0.031969,0.001000,0.001000,0.001000,0.001000,0.001000
1005.673077,0.032872,0.001000,0.001000,0.001000,0.001000,0.001000
1005.692308,0.033757,0.001000,0.001000,0.001000,0.001000,0.001000
1005.711538,0.034623,0.001000,0.001000,0.001000,0.001000,0.001000
1005.730769,0.035469,0.001000,0.001000,0.001000,0.001000,0.001000
1005.750000,0.036295,0.001000,0.001000,0.001000,0.001000,0.001000
1005.769231,0.037101,0.001000,0.001000,0.001000,0.001000,0.001000
1005.788462,0.037886,0.001000,0.001000,0.001000,0.001000,0.001000
1005.807692,0.038649,0.001000,0.001000,0.001000,0.001000,0.001000
1005.826923,0.039391,0.001000,0.001000,0.001000,0.001000,0.001000
1005.846154,0.040111,0.001000,0.001000,0.001000,0.001000,0.001000
1005.865385,0.040808,0.001000,0.001000,0.001000,0.001000,0.001000
1005.884615,0.041482,0.001000,0.001000,0.001000,0.001000,0.001000
1005.903846,0.042133,0.001000,0.001000,0.001000,0.001000,0.001000
1005.923077,0.042760,0.001000,0.001000,0.001000,0.001000,0.001000
1005.942308,0.043363,0.001000,0.001000,0.001000,0.001000,0.001000
1005.961538,0.043941,0.001000,0.001000,0.001000,0.001000,0.001000
1005.980769,0.044495,0.001000,0.001000,0.001000,0.001000,0.001000
1006.000000,0.045023,0.001000,0.001000,0.001000,0.001000,0.001000
1006.019231,0.045527,0.001000,0.001000,0.001000,0.001000,0.001000
1006.038462,0.046004,0.001000,0.001000,0.001000,0.001000,0.001000
1006.057692,0.046456,0.001000,0.001000,0.001000,0.001000,0.001000
1006.076923,0.046882,0.001000,0.001000,0.001000,0.001000,0.001000
1006.096154,0.047281,0.001000,0.001000,0.001000,0.001000,0.001000
1006.115385,0.047654,0.001000,0.001000,0.001000,0.001000,0.001000
1006.134615,0.047999,0.001000,0.001000,0.001000,0.001000,0.001000
1006.153846,0.048318,0.001000,0.001000,0.001000,0.001000,0.001000
1006.173077,0.048610,0.001000,0.001000,0.001000,0.001000,0.001000
1006.192308,0.048874,0.001000,0.001000,0.001000,0.001000,0.001000
1006.211538,0.049110,0.001000,0.001000,0.001000,0.001000,0.001000
1006.230769,0.049319,0.001000,0.001000,0.001000,0.001000,0.001000
1006.250000,0.049501,0.001000,0.001000,0.001000,0.001000,0.001000
1006.269231,0.049654,0.001000,0.001000,0.001000,0.001000,0.001000
1006.288462,0.049779,0.001000,0.001000,0.001000,0.001000,0.001000
1006.307692,0.049877,0.001000,0.001000,0.001000,0.001000,0.001000
1006.326923,0.049946,0.001000,0.001000,0.001000,0.001000,0.001000
1006.346154,0.049987,0.001000,0.001000,0.001000,0.001000,0.001000
1006.365385,0.050000,0.001000,0.001000,0.001000,0.001000,0.001000
1006.384615,0.049985,0.001000,0.001000,0.001000,0.001000,0.001000
1006.403846,0.049941,0.001000,0.001000,0.001000,0.001000,0.001000
1006.423077,0.049870,0.001000,0.001000,0.001000,0.001000,0.001000
1006.442308,0.049770,0.001000,0.001000,0.001000,0.001000,0.001000
1006.461538,0.049643,0.001000,0.001000,0.001000,0.001000,0.001000
1006.480769,0.049487,0.001000,0.001000,0.001000,0.001000,0.001000
1006.500000,0.049304,0.001000,0.001000,0.001000,0.001000,0.001000
1006.519231,0.049093,0.001000,0.001000,0.001000,0.001000,0.001000
1006.538462,0.048854,0.001000,0.001000,0.001000,0.001000,0.001000
1006.557692,0.048588,0.001000,0.001000,0.001000,0.001000,0.001000
1006.576923,0.048294,0.001000,0.001000,0.001000,0.001000,0.001000
1006.596154,0.047973,0.001000,0.001000,0.001000,0.001000,0.001000
1006.615385,0.047625,0.001000,0.001000,0.001000,0.001000,0.001000
1006.634615,0.047251,0.001000,0.001000,0.001000,0.001000,0.001000
1006.653846,0.046849,0.001000,0.001000,0.001000,0.001000,0.001000
1006.673077,0.046422,0.001000,0.001000,0.001000,0.001000,0.001000
1006.692308,0.045968,0.001000,0.001000,0.001000,0.001000,0.001000
1006.711538,0.045488,0.001000,0.001000,0.001000,0.001000,0.001000
1006.730769,0.044983,0.001000,0.001000,0.001000,0.001000,0.001000
1006.750000,0.044452,0.001000,0.001000,0.001000,0.001000,0.001000
1006.769231,0.043896,0.001000,0.001000,0.001000,0.001000,0.001000
1006.788462,0.043316,0.001000,0.001000,0.001000,0.001000,0.001000
1006.807692,0.042711,0.001000,0.001000,0.001000,0.001000,0.001000
1006.826923,0.042082,0.001000,0.001000,0.001000,0.001000,0.001000
1006.846154,0.041430,0.001000,0.001000,0.001000,0.001000,0.001000
1006.865385,0.040754,0.001000,0.001000,0.001000,0.001000,0.001000
1006.884615,0.040055,0.001000,0.001000,0.001000,0.001000,0.001000
1006.903846,0.039333,0.001000,0.001000,0.001000,0.001000,0.001000
1006.923077,0.038590,0.001000,0.001000,0.001000,0.001000,0.001000
1006.942308,0.037825,0.001000,0.001000,0.001000,0.001000,0.001000
1006.961538,0.037038,0.001000,0.001000,0.001000,0.001000,0.001000
1006.980769,0.036231,0.001000,0.001000,0.001000,0.001000,0.001000
1007.000000,0.035403,0.001000,0.001000,0.001000,0.001000,0.001000
1007.019231,0.034555,0.001000,0.001000,0.001000,0.001000,0.001000
1007.038462,0.033688,0.001000,0.001000,0.001000,0.001000,0.001000
1007.057692,0.032802,0.001000,0.001000,0.001000,0.001000,0.001000
1007.076923,0.031897,0.001000,0.001000,0.001000,0.001000,0.001000
1007.096154,0.030974,0.001000,0.001000,0.001000,0.001000,0.001000
1007.115385,0.030034,0.001000,0.001000,0.001000,0.001000,0.001000
1007.134615,0.029077,0.001000,0.001000,0.001000,0.001000,0.001000
1007.153846,0.028104,0.001000,0.001000,0.001000,0.001000,0.001000
1007.173077,0.027115,0.001000,0.001000,0.001000,0.001000,0.001000
1007.192308,0.026110,0.001000,0.001000,0.001000,0.001000,0.001000
1007.211538,0.025091,0.001000,0.001000,0.001000,0.001000,0.001000
1007.230769,0.024058,0.001000,0.001000,0.001000,0.001000,0.001000
1007.250000,0.023011,0.001000,0.001000,0.001000,0.001000,0.001000
1007.269231,0.021951,0.001000,0.001000,0.001000,0.001000,0.001000
1007.288462,0.020879,0.001000,0.001000,0.001000,0.001000,0.001000
1007.307692,0.019795,0.001000,0.001000,0.001000,0.001000,0.001000
1007.326923,0.018700,0.001000,0.001000,0.001000,0.001000,0.001000
1007.346154,0.017594,0.001000,0.001000,0.001000,0.001000,0.001000
1007.365385,0.016479,0.001000,0.001000,0.001000,0.001000,0.001000
1007.384615,0.015354,0.001000,0.001000,0.001000,0.001000,0.001000
1007.403846,0.014221,0.001000,0.001000,0.001000,0.001000,0.001000
1007.423077,0.013079,0.001000,0.001000,0.001000,0.001000,0.001000
1007.442308,0.011930,0.001000,0.001000,0.001000,0.001000,0.001000
1007.461538,0.010775,0.001000,0.001000,0.001000,0.001000,0.001000
1007.480769,0.009613,0.001000,0.001000,0.001000,0.001000,0.001000
1007.500000,0.008446,0.001000,0.001000,0.001000,0.001000,0.001000
1007.519231,0.007274,0.001000,0.001000,0.001000,0.001000,0.001000
1007.538462,0.006099,0.001000,0.001000,0.001000,0.001000,0.001000
1007.557692,0.004919,0.001000,0.001000,0.001000,0.001000,0.001000
1007.576923,0.003737,0.001000,0.001000,0.001000,0.001000,0.001000
1007.596154,0.002553,0.001000,0.001000,0.001000,0.001000,0.001000
1007.615385,0.001368,0.001000,0.001000,0.001000,0.001000,0.001000
1007.634615,0.000181,0.001000,0.001000,0.001000,0.001000,0.001000
1007.653846,-0.001005,0.001000,0.001000,0.001000,0.001000,0.001000
1007.673077,-0.002191,0.001000,0.001000,0.001000,0.001000,0.001000
1007.692308,-0.003376,0.001000,0.001000,0.001000,0.001000,0.001000
1007.711538,-0.004559,0.001000,0.001000,0.001000,0.001000,0.001000
1007.730769,-0.005739,0.001000,0.001000,0.001000,0.001000,0.001000
1007.750000,-0.006916,0.001000,0.001000,0.001000,0.001000,0.001000
1007.769231,-0.008089,0.001000,0.001000,0.001000,0.001000,0.001000
1007.788462,-0.009257,0.001000,0.001000,0.001000,0.001000,0.001000
1007.807692,-0.010421,0.001000,0.001000,0.001000,0.001000,0.001000
1007.826923,-0.011578,0.001000,0.001000,0.001000,0.001000,0.001000
1007.846154,-0.012729,0.001000,0.001000,0.001000,0.001000,0.001000
1007.865385,-0.013873,0.001000,0.001000,0.001000,0.001000,0.001000
1007.884615,-0.015009,0.001000,0.001000,0.001000,0.001000,0.001000
1007.903846,-0.016136,0.001000,0.001000,0.001000,0.001000,0.001000
1007.923077,-0.017255,0.001000,0.001000,0.001000,0.001000,0.001000
1007.942308,-0.018363,0.001000,0.001000,0.001000,0.001000,0.001000
1007.961538,-0.019462,0.001000,0.001000,0.001000,0.001000,0.001000
1007.980769,-0.020549,0.001000,0.001000,0.001000,0.001000,0.001000
1008.000000,-0.021625,0.001000,0.001000,0.001000,0.001000,0.001000
1008.019231,-0.022689,0.001000,0.001000,0.001000,0.001000,0.001000
1008.038462,-0.023739,0.001000,0.001000,0.001000,0.001000,0.001000
1008.057692,-0.024777,0.001000,0.001000,0.001000,0.001000,0.001000
1008.076923,-0.025801,0.001000,0.001000,0.001000,0.001000,0.001000
1008.096154,-0.026810,0.001000,0.001000,0.001000,0.001000,0.001000
1008.115385,-0.027803,0.001000,0.001000,0.001000,0.001000,0.001000
1008.134615,-0.028782,0.001000,0.001000,0.001000,0.001000,0.001000
1008.153846,-0.029744,0.001000,0.001000,0.001000,0.001000,0.001000
1008.173077,-0.030689,0.001000,0.001000,0.001000,0.001000,0.001000
1008.192308,-0.031617,0.001000,0.001000,0.001000,0.001000,0.001000
1008.211538,-0.032527,0.001000,0.001000,0.001000,0.001000,0.001000
1008.230769,-0.033419,0.001000,0.001000,0.001000,0.001000,0.001000
1008.250000,-0.034292,0.001000,0.001000,0.001000,0.001000,0.001000
1008.269231,-0.035146,0.001000,0.001000,0.001000,0.001000,0.001000
1008.288462,-0.035980,0.001000,0.001000,0.001000,0.001000,0.001000
1008.307692,-0.036794,0.001000,0.001000,0.001000,0.001000,0.001000
1008.326923,-0.037587,0.001000,0.001000,0.001000,0.001000,0.001000
1008.346154,-0.038359,0.001000,0.001000,0.001000,0.001000,0.001000
1008.365385,-0.039109,0.001000,0.001000,0.001000,0.001000,0.001000
1008.384615,-0.039837,0.001000,0.001000,0.001000,0.001000,0.001000
1008.403846,-0.040543,0.001000,0.001000,0.001000,0.001000,0.001000
1008.423077,-0.041226,0.001000,0.001000,0.001000,0.001000,0.001000
1008.442308,-0.041885,0.001000,0.001000,0.001000,0.001000,0.001000
1008.461538,-0.042522,0.001000,0.001000,0.001000,0.001000,0.001000
1008.480769,-0.043134,0.001000,0.001000,0.001000,0.001000,0.001000
1008.500000,-0.043722,0.001000,0.001000,0.001000,0.001000,0.001000
1008.519231,-0.044285,0.001000,0.001000,0.001000,0.001000,0.001000
1008.538462,-0.044823,0.001000,0.001000,0.001000,0.001000,0.001000
1008.557692,-0.045336,0.001000,0.001000,0.001000,0.001000,0.001000
1008.576923,-0.045824,0.001000,0.001000,0.001000,0.001000,0.001000
1008.596154,-0.046286,0.001000,0.001000,0.001000,0.001000,0.001000
1008.615385,-0.046721,0.001000,0.001000,0.001000,0.001000,0.001000
1008.634615,-0.047131,0.001000,0.001000,0.001000,0.001000,0.001000
1008.653846,-0.047514,0.001000,0.001000,0.001000,0.001000,0.001000
1008.673077,-0.047870,0.001000,0.001000,0.001000,0.001000,0.001000
1008.692308,-0.048199,0.001000,0.001000,0.001000,0.001000,0.001000
1008.711538,-0.048501,0.001000,0.001000,0.001000,0.001000,0.001000
1008.730769,-0.048776,0.001000,0.001000,0.001000,0.001000,0.001000
1008.750000,-0.049023,0.001000,0.001000,0.001000,0.001000,0.001000
1008.769231,-0.049242,0.001000,0.001000,0.001000,0.001000,0.001000
1008.788462,-0.049434,0.001000,0.001000,0.001000,0.001000,0.001000
1008.807692,-0.049598,0.001000,0.001000,0.001000,0.001000,0.001000
1008.826923,-0.049734,0.001000,0.001000,0.001000,0.001000,0.001000
1008.846154,-0.049843,0.001000,0.001000,0.001000,0.001000,0.001000
1008.865385,-0.049923,0.001000,0.001000,0.001000,0.001000,0.001000
1008.884615,-0.049975,0.001000,0.001000,0.001000,0.001000,0.001000
1008.903846,-0.049998,0.001000,0.001000,0.001000,0.001000,0.001000
1008.923077,-0.049994,0.001000,0.001000,0.001000,0.001000,0.001000
1008.942308,-0.049961,0.001000,0.001000,0.001000,0.001000,0.001000
1008.961538,-0.049901,0.001000,0.001000,0.001000,0.001000,0.001000
1008.980769,-0.049812,0.001000,0.001000,0.001000,0.001000,0.001000
1009.000000,-0.049695,0.001000,0.001000,0.001000,0.001000,0.001000
1009.019231,-0.049550,0.001000,0.001000,0.001000,0.001000,0.001000
1009.038462,-0.049378,0.001000,0.001000,0.001000,0.001000,0.001000
1009.057692,-0.049177,0.001000,0.001000,0.001000,0.001000,0.001000
1009.076923,-0.048949,0.001000,0.001000,0.001000,0.001000,0.001000
1009.096154,-0.048693,0.001000,0.001000,0.001000,0.001000,0.001000
1009.115385,-0.048410,0.001000,0.001000,0.001000,0.001000,0.001000
1009.134615,-0.048100,0.001000,0.001000,0.001000,0.001000,0.001000
1009.153846,-0.047762,0.001000,0.001000,0.001000,0.001000,0.001000
1009.173077,-0.047398,0.001000,0.001000,0.001000,0.001000,0.001000
1009.192308,-0.047007,0.001000,0.001000,0.001000,0.001000,0.001000
1009.211538,-0.046589,0.001000,0.001000,0.001000,0.001000,0.001000
1009.230769,-0.046145,0.001000,0.001000,0.001000,0.001000,0.001000
1009.250000,-0.045675,0.001000,0.001000,0.001000,0.001000,0.001000
1009.269231,-0.045180,0.001000,0.001000,0.001000,0.001000,0.001000
1009.288462,-0.044659,0.001000,0.001000,0.001000,0.001000,0.001000
1009.307692,-0.044113,0.001000,0.001000,0.001000,0.001000,0.001000
1009.326923,-0.043542,0.001000,0.001000,0.001000,0.001000,0.001000
1009.346154,-0.042946,0.001000,0.001000,0.001000,0.001000,0.001000
1009.365385,-0.042327,0.001000,0.001000,0.001000,0.001000,0.001000
1009.384615,-0.041683,0.001000,0.001000,0.001000,0.001000,0.001000
1009.403846,-0.041016,0.001000,0.001000,0.001000,0.001000,0.001000
1009.423077,-0.040326,0.001000,0.001000,0.001000,0.001000,0.001000
1009.442308,-0.039613,0.001000,0.001000,0.001000,0.001000,0.001000
1009.461538,-0.038878,0.001000,0.001000,0.001000,0.001000,0.001000
1009.480769,-0.038121,0.001000,0.001000,0.001000,0.001000,0.001000
1009.500000,-0.037343,0.001000,0.001000,0.001000,0.001000,0.001000
1009.519231,-0.036543,0.001000,0.001000,0.001000,0.001000,0.001000
1009.538462,-0.035723,0.001000,0.001000,0.001000,0.001000,0.001000
1009.557692,-0.034883,0.001000,0.001000,0.001000,0.001000,0.001000
1009.576923,-0.034023,0.001000,0.001000,0.001000,0.001000,0.001000
1009.596154,-0.033144,0.001000,0.001000,0.001000,0.001000,0.001000
1009.615385,-0.032247,0.001000,0.001000,0.001000,0.001000,0.001000
1009.634615,-0.031331,0.001000,0.001000,0.001000,0.001000,0.001000
1009.653846,-0.030397,0.001000,0.001000,0.001000,0.001000,0.001000
1009.673077,-0.029447,0.001000,0.001000,0.001000,0.001000,0.001000
1009.692308,-0.028480,0.001000,0.001000,0.001000,0.001000,0.001000
1009.711538,-0.027497,0.001000,0.001000,0.001000,0.001000,0.001000
1009.730769,-0.026498,0.001000,0.001000,0.001000,0.001000,0.001000
1009.750000,-0.025484,0.001000,0.001000,0.001000,0.001000,0.001000
1009.769231,-0.024456,0.001000,0.001000,0.001000,0.001000,0.001000
1009.788462,-0.023415,0.001000,0.001000,0.001000,0.001000,0.001000
1009.807692,-0.022360,0.001000,0.001000,0.001000,0.001000,0.001000
1009.826923,-0.021292,0.001000,0.001000,0.001000,0.001000,0.001000
1009.846154,-0.020213,0.001000,0.001000,0.001000,0.001000,0.001000
1009.865385,-0.019122,0.001000,0.001000,0.001000,0.001000,0.001000
1009.884615,-0.018020,0.001000,0.001000,0.001000,0.001000,0.001000
1009.903846,-0.016909,0.001000,0.001000,0.001000,0.001000,0.001000
1009.923077,-0.015787,0.001000,0.001000,0.001000,0.001000,0.001000
1009.942308,-0.014657,0.001000,0.001000,0.001000,0.001000,0.001000
1009.961538,-0.013519,0.001000,0.001000,0.001000,0.001000,0.001000
1009.980769,-0.012373,0.001000,0.001000,0.001000,0.001000,0.001000
1010.000000,-0.011220,0.001000,0.001000,0.001000,0.001000,0.001000
1010.019231,-0.010060,0.001000,0.001000,0.001000,0.001000,0.001000
1010.038462,-0.008895,0.001000,0.001000,0.001000,0.001000,0.001000
1010.057692,-0.007725,0.001000,0.001000,0.001000,0.001000,0.001000
1010.076923,-0.006551,0.001000,0.001000,0.001000,0.001000,0.001000
1010.096154,-0.005373,0.001000,0.001000,0.001000,0.001000,0.001000
1010.115385,-0.004192,0.001000,0.001000,0.001000,0.001000,0.001000
1010.134615,-0.003008,0.001000,0.001000,0.001000,0.001000,0.001000
1010.153846,-0.001823,0.001000,0.001000,0.001000,0.001000,0.001000
1010.173077,-0.000637,0.001000,0.001000,0.001000,0.001000,0.001000
1010.192308,0.000549,0.001000,0.001000,0.001000,0.001000,0.001000
1010.211538,0.001736,0.001000,0.001000,0.001000,0.001000,0.001000
1010.230769,0.002921,0.001000,0.001000,0.001000,0.001000,0.001000
1010.250000,0.004105,0.001000,0.001000,0.001000,0.001000,0.001000
1010.269231,0.005286,0.001000,0.001000,0.001000,0.001000,0.001000
1010.288462,0.006464,0.001000,0.001000,0.001000,0.001000,0.001000
1010.307692,0.007639,0.001000,0.001000,0.001000,0.001000,0.001000
1010.326923,0.008809,0.001000,0.001000,0.001000,0.001000,0.001000
1010.346154,0.009974,0.001000,0.001000,0.001000,0.001000,0.001000
1010.365385,0.011134,0.001000,0.001000,0.001000,0.001000,0.001000
1010.384615,0.012288,0.001000,0.001000,0.001000,0.001000,0.001000
1010.403846,0.013434,0.001000,0.001000,0.001000,0.001000,0.001000
1010.423077,0.014573,0.001000,0.001000,0.001000,0.001000,0.001000
1010.442308,0.015704,0.001000,0.001000,0.001000,0.001000,0.001000
1010.461538,0.016826,0.001000,0.001000,0.001000,0.001000,0.001000
1010.480769,0.017939,0.001000,0.001000,0.001000,0.001000,0.001000
1010.500000,0.019041,0.001000,0.001000,0.001000,0.001000,0.001000
1010.519231,0.020133,0.001000,0.001000,0.001000,0.001000,0.001000
1010.538462,0.021213,0.001000,0.001000,0.001000,0.001000,0.001000
1010.557692,0.022281,0.001000,0.001000,0.001000,0.001000,0.001000
1010.576923,0.023337,0.001000,0.001000,0.001000,0.001000,0.001000
1010.596154,0.024380,0.001000,0.001000,0.001000,0.001000,0.001000
1010.615385,0.025409,0.001000,0.001000,0.001000,0.001000,0.001000
1010.634615,0.026424,0.001000,0.001000,0.001000,0.001000,0.001000
1010.653846,0.027423,0.001000,0.001000,0.001000,0.001000,0.001000
1010.673077,0.028408,0.001000,0.001000,0.001000,0.001000,0.001000
1010.692308,0.029376,0.001000,0.001000,0.001000,0.001000,0.001000
1010.711538,0.030328,0.001000,0.001000,0.001000,0.001000,0.001000
1010.730769,0.031263,0.001000,0.001000,0.001000,0.001000,0.001000
1010.750000,0.032180,0.001000,0.001000,0.001000,0.001000,0.001000
1010.769231,0.033079,0.001000,0.001000,0.001000,0.001000,0.001000
1010.788462,0.033959,0.001000,0.001000,0.001000,0.001000,0.001000
1010.807692,0.034820,0.001000,0.001000,0.001000,0.001000,0.001000
1010.826923,0.035662,0.001000,0.001000,0.001000,0.001000,0.001000
1010.846154,0.036484,0.001000,0.001000,0.001000,0.001000,0.001000
1010.865385,0.037285,0.001000,0.001000,0.001000,0.001000,0.001000
1010.884615,0.038065,0.001000,0.001000,0.001000,0.001000,0.001000
1010.903846,0.038823,0.001000,0.001000,0.001000,0.001000,0.001000
1010.923077,0.039560,0.001000,0.001000,0.001000,0.001000,0.001000
1010.942308,0.040274,0.001000,0.001000,0.001000,0.001000,0.001000
1010.961538,0.040966,0.001000,0.001000,0.001000,0.001000,0.001000
1010.980769,0.041635,0.001000,0.001000,0.001000,0.001000,0.001000
1011.000000,0.042280,0.001000,0.001000,0.001000,0.001000,0.001000
1011.019231,0.042901,0.001000,0.001000,0.001000,0.001000,0.001000
1011.038462,0.043499,0.001000,0.001000,0.001000,0.001000,0.001000
1011.057692,0.044071,0.001000,0.001000,0.001000,0.001000,0.001000
1011.076923,0.044619,0.001000,0.001000,0.001000,0.001000,0.001000
1011.096154,0.045142,0.001000,0.001000,0.001000,0.001000,0.001000
1011.115385,0.045640,0.001000,0.001000,0.001000,0.001000,0.001000
1011.134615,0.046111,0.001000,0.001000,0.001000,0.001000,0.001000
1011.153846,0.046557,0.001000,0.001000,0.001000,0.001000,0.001000
1011.173077,0.046977,0.001000,0.001000,0.001000,0.001000,0.001000
1011.192308,0.047370,0.001000,0.001000,0.001000,0.001000,0.001000
1011.211538,0.047736,0.001000,0.001000,0.001000,0.001000,0.001000
1011.230769,0.048076,0.001000,0.001000,0.001000,0.001000,0.001000
1011.250000,0.048388,0.001000,0.001000,0.001000,0.001000,0.001000
1011.269231,0.048673,0.001000,0.001000,0.001000,0.001000,0.001000
1011.288462,0.048931,0.001000,0.001000,0.001000,0.001000,0.001000
1011.307692,0.049161,0.001000,0.001000,0.001000,0.001000,0.001000
1011.326923,0.049364,0.001000,0.001000,0.001000,0.001000,0.001000
1011.346154,0.049539,0.001000,0.001000,0.001000,0.001000,0.001000
1011.365385,0.049685,0.001000,0.001000,0.001000,0.001000,0.001000
1011.384615,0.049804,0.001000,0.001000,0.001000,0.001000,0.001000
1011.403846,0.049895,0.001000,0.001000,0.001000,0.001000,0.001000
1011.423077,0.049958,0.001000,0.001000,0.001000,0.001000,0.001000
1011.442308,0.049993,0.001000,0.001000,0.001000,0.001000,0.001000
1011.461538,0.049999,0.001000,0.001000,0.001000,0.001000,0.001000
1011.480769,0.049977,0.001000,0.001000,0.001000,0.001000,0.001000
1011.500000,0.049927,0.001000,0.001000,0.001000,0.001000,0.001000
1011.519231,0.049849,0.001000,0.001000,0.001000,0.001000,0.001000
1011.538462,0.049743,0.001000,0.001000,0.001000,0.001000,0.001000
1011.557692,0.049609,0.001000,0.001000,0.001000,0.001000,0.001000
1011.576923,0.049447,0.001000,0.001000,0.001000,0.001000,0.001000
1011.596154,0.049258,0.001000,0.001000,0.001000,0.001000,0.001000
1011.615385,0.049040,0.001000,0.001000,0.001000,0.001000,0.001000
1011.634615,0.048795,0.001000,0.001000,0.001000,0.001000,0.001000
1011.653846,0.048522,0.001000,0.001000,0.001000,0.001000,0.001000
1011.673077,0.048222,0.001000,0.001000,0.001000,0.001000,0.001000
1011.692308,0.047895,0.001000,0.001000,0.001000,0.001000,0.001000
1011.711538,0.047541,0.001000,0.001000,0.001000,0.001000,0.001000
1011.730769,0.047160,0.001000,0.001000,0.001000,0.001000,0.001000
1011.750000,0.046753,0.001000,0.001000,0.001000,0.001000,0.001000
1011.769231,0.046319,0.001000,0.001000,0.001000,0.001000,0.001000
1011.788462,0.045859,0.001000,0.001000,0.001000,0.001000,0.001000
1011.807692,0.045373,0.001000,0.001000,0.001000,0.001000,0.001000
1011.826923,0.044862,0.001000,0.001000,0.001000,0.001000,0.001000
1011.846154,0.044326,0.001000,0.001000,0.001000,0.001000,0.001000
1011.865385,0.043764,0.001000,0.001000,0.001000,0.001000,0.001000
1011.884615,0.043178,0.001000,0.001000,0.001000,0.001000,0.001000
1011.903846,0.042568,0.001000,0.001000,0.001000,0.001000,0.001000
1011.923077,0.041933,0.001000,0.001000,0.001000,0.001000,0.001000
1011.942308,0.041275,0.001000,0.001000,0.001000,0.001000,0.001000
1011.961538,0.040594,0.001000,0.001000,0.001000,0.001000,0.001000
1011.980769,0.039890,0.001000,0.001000,0.001000,0.001000,0.001000
1012.000000,0.039163,0.001000,0.001000,0.001000,0.001000,0.001000
1012.019231,0.038415,0.001000,0.001000,0.001000,0.001000,0.001000
1012.038462,0.037644,0.001000,0.001000,0.001000,0.001000,0.001000
1012.057692,0.036853,0.001000,0.001000,0.001000,0.001000,0.001000
1012.076923,0.036041,0.001000,0.001000,0.001000,0.001000,0.001000
1012.096154,0.035208,0.001000,0.001000,0.001000,0.001000,0.001000
1012.115385,0.034356,0.001000,0.001000,0.001000,0.001000,0.001000
1012.134615,0.033484,0.001000,0.001000,0.001000,0.001000,0.001000
1012.153846,0.032594,0.001000,0.001000,0.001000,0.001000,0.001000
1012.173077,0.031685,0.001000,0.001000,0.001000,0.001000,0.001000
1012.192308,0.030758,0.001000,0.001000,0.001000,0.001000,0.001000
1012.211538,0.029814,0.001000,0.001000,0.001000,0.001000,0.001000
1012.230769,0.028853,0.001000,0.001000,0.001000,0.001000,0.001000
1012.250000,0.027876,0.001000,0.001000,0.001000,0.001000,0.001000
1012.269231,0.026883,0.001000,0.001000,0.001000,0.001000,0.001000
1012.288462,0.025875,0.001000,0.001000,0.001000,0.001000,0.001000
1012.307692,0.024853,0.001000,0.001000,0.001000,0.001000,0.001000
1012.326923,0.023817,0.001000,0.001000,0.001000,0.001000,0.001000
1012.346154,0.022767,0.001000,0.001000,0.001000,0.001000,0.001000
1012.365385,0.021704,0.001000,0.001000,0.001000,0.001000,0.001000
1012.384615,0.020629,0.001000,0.001000,0.001000,0.001000,0.001000
1012.403846,0.019542,0.001000,0.001000,0.001000,0.001000,0.001000
1012.423077,0.018445,0.001000,0.001000,0.001000,0.001000,0.001000
1012.442308,0.017337,0.001000,0.001000,0.001000,0.001000,0.001000
1012.461538,0.016219,0.001000,0.001000,0.001000,0.001000,0.001000
1012.480769,0.015092,0.001000,0.001000,0.001000,0.001000,0.001000
1012.500000,0.013957,0.001000,0.001000,0.001000,0.001000,0.001000
1012.519231,0.012814,0.001000,0.001000,0.001000,0.001000,0.001000
1012.538462,0.011663,0.001000,0.001000,0.001000,0.001000,0.001000
1012.557692,0.010506,0.001000,0.001000,0.001000,0.001000,0.001000
1012.576923,0.009343,0.001000,0.001000,0.001000,0.001000,0.001000
1012.596154,0.008175,0.001000,0.001000,0.001000,0.001000,0.001000
1012.615385,0.007003,0.001000,0.001000,0.001000,0.001000,0.001000
1012.634615,0.005826,0.001000,0.001000,0.001000,0.001000,0.001000
1012.653846,0.004646,0.001000,0.001000,0.001000,0.001000,0.001000
1012.673077,0.003463,0.001000,0.001000,0.001000,0.001000,0.001000
1012.692308,0.002279,0.001000,0.001000,0.001000,0.001000,0.001000
1012.711538,0.001093,0.001000,0.001000,0.001000,0.001000,0.001000
1012.730769,-0.000094,0.001000,0.001000,0.001000,0.001000,0.001000
1012.750000,-0.001280,0.001000,0.001000,0.001000,0.001000,0.001000
1012.769231,-0.002466,0.001000,0.001000,0.001000,0.001000,0.001000
1012.788462,-0.003650,0.001000,0.001000,0.001000,0.001000,0.001000
1012.807692,-0.004832,0.001000,0.001000,0.001000,0.001000,0.001000
1012.826923,-0.006012,0.001000,0.001000,0.001000,0.001000,0.001000
1012.846154,-0.007188,0.001000,0.001000,0.001000,0.001000,0.001000
1012.865385,-0.008360,0.001000,0.001000,0.001000,0.001000,0.001000
1012.884615,-0.009527,0.001000,0.001000,0.001000,0.001000,0.001000
1012.903846,-0.010689,0.001000,0.001000,0.001000,0.001000,0.001000
1012.923077,-0.011845,0.001000,0.001000,0.001000,0.001000,0.001000
1012.942308,-0.012995,0.001000,0.001000,0.001000,0.001000,0.001000
1012.961538,-0.014137,0.001000,0.001000,0.001000,0.001000,0.001000
1012.980769,-0.015271,0.001000,0.001000,0.001000,0.001000,0.001000
1013.000000,-0.016396,0.001000,0.001000,0.001000,0.001000,0.001000
1013.019231,-0.017512,0.001000,0.001000,0.001000,0.001000,0.001000
1013.038462,-0.018619,0.001000,0.001000,0.001000,0.001000,0.001000
1013.057692,-0.019715,0.001000,0.001000,0.001000,0.001000,0.001000
1013.076923,-0.020799,0.001000,0.001000,0.001000,0.001000,0.001000
1013.096154,-0.021872,0.001000,0.001000,0.001000,0.001000,0.001000
1013.115385,-0.022933,0.001000,0.001000,0.001000,0.001000,0.001000
1013.134615,-0.023981,0.001000,0.001000,0.001000,0.001000,0.001000
1013.153846,-0.025015,0.001000,0.001000,0.001000,0.001000,0.001000
1013.173077,-0.026035,0.001000,0.001000,0.001000,0.001000,0.001000
1013.192308,-0.027041,0.001000,0.001000,0.001000,0.001000,0.001000
1013.211538,-0.028031,0.001000,0.001000,0.001000,0.001000,0.001000
1013.230769,-0.029006,0.001000,0.001000,0.001000,0.001000,0.001000
1013.250000,-0.029964,0.001000,0.001000,0.001000,0.001000,0.001000
1013.269231,-0.030906,0.001000,0.001000,0.001000,0.001000,0.001000
1013.288462,-0.031829,0.001000,0.001000,0.001000,0.001000,0.001000
1013.307692,-0.032735,0.001000,0.001000,0.001000,0.001000,0.001000
1013.326923,-0.033623,0.001000,0.001000,0.001000,0.001000,0.001000
1013.346154,-0.034492,0.001000,0.001000,0.001000,0.001000,0.001000
1013.365385,-0.035341,0.001000,0.001000,0.001000,0.001000,0.001000
1013.384615,-0.036170,0.001000,0.001000,0.001000,0.001000,0.001000
1013.403846,-0.036979,0.001000,0.001000,0.001000,0.001000,0.001000
1013.423077,-0.037767,0.001000,0.001000,0.001000,0.001000,0.001000
1013.442308,-0.038534,0.001000,0.001000,0.001000,0.001000,0.001000
1013.461538,-0.039279,0.001000,0.001000,0.001000,0.001000,0.001000
1013.480769,-0.040002,0.001000,0.001000,0.001000,0.001000,0.001000
1013.500000,-0.040703,0.001000,0.001000,0.001000,0.001000,0.001000
1013.519231,-0.041381,0.001000,0.001000,0.001000,0.001000,0.001000
1013.538462,-0.042035,0.001000,0.001000,0.001000,0.001000,0.001000
1013.557692,-0.042665,0.001000,0.001000,0.001000,0.001000,0.001000
1013.576923,-0.043272,0.001000,0.001000,0.001000,0.001000,0.001000
1013.596154,-0.043854,0.001000,0.001000,0.001000,0.001000,0.001000
1013.615385,-0.044412,0.001000,0.001000,0.001000,0.001000,0.001000
1013.634615,-0.044944,0.001000,0.001000,0.001000,0.001000,0.001000
1013.653846,-0.045452,0.001000,0.001000,0.001000,0.001000,0.001000
1013.673077,-0.045933,0.001000,0.001000,0.001000,0.001000,0.001000
1013.692308,-0.046389,0.001000,0.001000,0.001000,0.001000,0.001000
1013.711538,-0.046819,0.001000,0.001000,0.001000,0.001000,0.001000
1013.730769,-0.047222,0.001000,0.001000,0.001000,0.001000,0.001000
1013.750000,-0.047599,0.001000,0.001000,0.001000,0.001000,0.001000
1013.769231,-0.047948,0.001000,0.001000,0.001000,0.001000,0.001000
1013.788462,-0.048271,0.001000,0.001000,0.001000,0.001000,0.001000
1013.807692,-0.048567,0.001000,0.001000,0.001000,0.001000,0.001000
1013.826923,-0.048835,0.001000,0.001000,0.001000,0.001000,0.001000
1013.846154,-0.049076,0.001000,0.001000,0.001000,0.001000,0.001000
1013.865385,-0.049289,0.001000,0.001000,0.001000,0.001000,0.001000
1013.884615,-0.049475,0.001000,0.001000,0.001000,0.001000,0.001000
1013.903846,-0.049632,0.001000,0.001000,0.001000,0.001000,0.001000
1013.923077,-0.049762,0.001000,0.001000,0.001000,0.001000,0.001000
1013.942308,-0.049864,0.001000,0.001000,0.001000,0.001000,0.001000
1013.961538,-0.049937,0.001000,0.001000,0.001000,0.001000,0.001000
1013.980769,-0.049983,0.001000,0.001000,0.001000,0.001000,0.001000
1014.000000,-0.050000,0.001000,0.001000,0.001000,0.001000,0.001000
1014.019231,-0.049989,0.001000,0.001000,0.001000,0.001000,0.001000
1014.038462,-0.049950,0.001000,0.001000,0.001000,0.001000,0.001000
1014.057692,-0.049883,0.001000,0.001000,0.001000,0.001000,0.001000
1014.076923,-0.049787,0.001000,0.001000,0.001000,0.001000,0.001000
1014.096154,-0.049664,0.001000,0.001000,0.001000,0.001000,0.001000
1014.115385,-0.049513,0.001000,0.001000,0.001000,0.001000,0.001000
1014.134615,-0.049334,0.001000,0.001000,0.001000,0.001000,0.001000
1014.153846,-0.049127,0.001000,0.001000,0.001000,0.001000,0.001000
1014.173077,-0.048892,0.001000,0.001000,0.001000,0.001000,0.001000
1014.192308,-0.048630,0.001000,0.001000,0.001000,0.001000,0.001000
1014.211538,-0.048341,0.001000,0.001000,0.001000,0.001000,0.001000
1014.230769,-0.048024,0.001000,0.001000,0.001000,0.001000,0.001000
1014.250000,-0.047680,0.001000,0.001000,0.001000,0.001000,0.001000
1014.269231,-0.047309,0.001000,0.001000,0.001000,0.001000,0.001000
1014.288462,-0.046912,0.001000,0.001000,0.001000,0.001000,0.001000
1014.307692,-0.046489,0.001000,0.001000,0.001000,0.001000,0.001000
1014.326923,-0.046039,0.001000,0.001000,0.001000,0.001000,0.001000
1014.346154,-0.045563,0.001000,0.001000,0.001000,0.001000,0.001000
1014.365385,-0.045061,0.001000,0.001000,0.001000,0.001000,0.001000
1014.384615,-0.044535,0.001000,0.001000,0.001000,0.001000,0.001000
1014.403846,-0.043983,0.001000,0.001000,0.001000,0.001000,0.001000
1014.423077,-0.043406,0.001000,0.001000,0.001000,0.001000,0.001000
1014.442308,-0.042805,0.001000,0.001000,0.001000,0.001000,0.001000
1014.461538,-0.042180,0.001000,0.001000,0.001000,0.001000,0.001000
1014.480769,-0.041531,0.001000,0.001000,0.001000,0.001000,0.001000
1014.500000,-0.040858,0.001000,0.001000,0.001000,0.001000,0.001000
1014.519231,-0.040163,0.001000,0.001000,0.001000,0.001000,0.001000
1014.538462,-0.039445,0.001000,0.001000,0.001000,0.001000,0.001000
1014.557692,-0.038705,0.001000,0.001000,0.001000,0.001000,0.001000
1014.576923,-0.037943,0.001000,0.001000,0.001000,0.001000,0.001000
1014.596154,-0.037160,0.001000,0.001000,0.001000,0.001000,0.001000
1014.615385,-0.036355,0.001000,0.001000,0.001000,0.001000,0.001000
1014.634615,-0.035530,0.001000,0.001000,0.001000,0.001000,0.001000
1014.653846,-0.034686,0.001000,0.001000,0.001000,0.001000,0.001000
1014.673077,-0.033821,0.001000,0.001000,0.001000,0.001000,0.001000
1014.692308,-0.032938,0.001000,0.001000,0.001000,0.001000,0.001000
1014.711538,-0.032036,0.001000,0.001000,0.001000,0.001000,0.001000
1014.730769,-0.031116,0.001000,0.001000,0.001000,0.001000,0.001000
1014.750000,-0.030179,0.001000,0.001000,0.001000,0.001000,0.001000
1014.769231,-0.029224,0.001000,0.001000,0.001000,0.001000,0.001000
1014.788462,-0.028253,0.001000,0.001000,0.001000,0.001000,0.001000
1014.807692,-0.027267,0.001000,0.001000,0.001000,0.001000,0.001000
1014.826923,-0.026264,0.001000,0.001000,0.001000,0.001000,0.001000
1014.846154,-0.025248,0.001000,0.001000,0.001000,0.001000,0.001000
1014.865385,-0.024216,0.001000,0.001000,0.001000,0.001000,0.001000
1014.884615,-0.023172,0.001000,0.001000,0.001000,0.001000,0.001000
1014.903846,-0.022114,0.001000,0.001000,0.001000,0.001000,0.001000
1014.923077,-0.021043,0.001000,0.001000,0.001000,0.001000,0.001000
1014.942308,-0.019961,0.001000,0.001000,0.001000,0.001000,0.001000
1014.961538,-0.018868,0.001000,0.001000,0.001000,0.001000,0.001000
1014.980769,-0.017764,0.001000,0.001000,0.001000,0.001000,0.001000
1015.000000,-0.016650,0.001000,0.001000,0.001000,0.001000,0.001000
1015.019231,-0.015526,0.001000,0.001000,0.001000,0.001000,0.001000
1015.038462,-0.014394,0.001000,0.001000,0.001000,0.001000,0.001000
1015.057692,-0.013254,0.001000,0.001000,0.001000,0.001000,0.001000
1015.076923,-0.012106,0.001000,0.001000,0.001000,0.001000,0.001000
1015.096154,-0.010952,0.001000,0.001000,0.001000,0.001000,0.001000
1015.115385,-0.009791,0.001000,0.001000,0.001000,0.001000,0.001000
1015.134615,-0.008625,0.001000,0.001000,0.001000,0.001000,0.001000
1015.153846,-0.007454,0.001000,0.001000,0.001000,0.001000,0.001000
1015.173077,-0.006278,0.001000,0.001000,0.001000,0.001000,0.001000
1015.192308,-0.005100,0.001000,0.001000,0.001000,0.001000,0.001000
1015.211538,-0.003918,0.001000,0.001000,0.001000,0.001000,0.001000
1015.230769,-0.002734,0.001000,0.001000,0.001000,0.001000,0.001000
1015.250000,-0.001549,0.001000,0.001000,0.001000,0.001000,0.001000
1015.269231,-0.000362,0.001000,0.001000,0.001000,0.001000,0.001000
1015.288462,0.000824,0.001000,0.001000,0.001000,0.001000,0.001000
1015.307692,0.002010,0.001000,0.001000,0.001000,0.001000,0.001000
1015.326923,0.003195,0.001000,0.001000,0.001000,0.001000,0.001000
1015.346154,0.004378,0.001000,0.001000,0.001000,0.001000,0.001000
1015.365385,0.005559,0.001000,0.001000,0.001000,0.001000,0.001000
1015.384615,0.006736,0.001000,0.001000,0.001000,0.001000,0.001000
1015.403846,0.007910,0.001000,0.001000,0.001000,0.001000,0.001000
1015.423077,0.009079,0.001000,0.001000,0.001000,0.001000,0.001000
1015.442308,0.010244,0.001000,0.001000,0.001000,0.001000,0.001000
1015.461538,0.011402,0.001000,0.001000,0.001000,0.001000,0.001000
1015.480769,0.012554,0.001000,0.001000,0.001000,0.001000,0.001000
1015.500000,0.013699,0.001000,0.001000,0.001000,0.001000,0.001000
1015.519231,0.014836,0.001000,0.001000,0.001000,0.001000,0.001000
1015.538462,0.015965,0.001000,0.001000,0.001000,0.001000,0.001000
1015.557692,0.017085,0.001000,0.001000,0.001000,0.001000,0.001000
1015.576923,0.018195,0.001000,0.001000,0.001000,0.001000,0.001000
1015.596154,0.019295,0.001000,0.001000,0.001000,0.001000,0.001000
1015.615385,0.020384,0.001000,0.001000,0.001000,0.001000,0.001000
1015.634615,0.021462,0.001000,0.001000,0.001000,0.001000,0.001000
1015.653846,0.022527,0.001000,0.001000,0.001000,0.001000,0.001000
1015.673077,0.023580,0.001000,0.001000,0.001000,0.001000,0.001000
1015.692308,0.024619,0.001000,0.001000,0.001000,0.001000,0.001000
1015.711538,0.025645,0.001000,0.001000,0.001000,0.001000,0.001000
1015.730769,0.026656,0.001000,0.001000,0.001000,0.001000,0.001000
1015.750000,0.027653,0.001000,0.001000,0.001000,0.001000,0.001000
1015.769231,0.028633,0.001000,0.001000,0.001000,0.001000,0.001000
1015.788462,0.029598,0.001000,0.001000,0.001000,0.001000,0.001000
1015.807692,0.030546,0.001000,0.001000,0.001000,0.001000,0.001000
1015.826923,0.031477,0.001000,0.001000,0.001000,0.001000,0.001000
1015.846154,0.032390,0.001000,0.001000,0.001000,0.001000,0.001000
1015.865385,0.033284,0.001000,0.001000,0.001000,0.001000,0.001000
1015.884615,0.034160,0.001000,0.001000,0.001000,0.001000,0.001000
1015.903846,0.035017,0.001000,0.001000,0.001000,0.001000,0.001000
1015.923077,0.035854,0.001000,0.001000,0.001000,0.001000,0.001000
1015.942308,0.036671,0.001000,0.001000,0.001000,0.001000,0.001000
1015.961538,0.037467,0.001000,0.001000,0.001000,0.001000,0.001000
1015.980769,0.038242,0.001000,0.001000,0.001000,0.001000,0.001000
1016.000000,0.038996,0.001000,0.001000,0.001000,0.001000,0.001000
1016.019231,0.039727,0.001000,0.001000,0.001000,0.001000,0.001000
1016.038462,0.040436,0.001000,0.001000,0.001000,0.001000,0.001000
1016.057692,0.041123,0.001000,0.001000,0.001000,0.001000,0.001000
1016.076923,0.041786,0.001000,0.001000,0.001000,0.001000,0.001000
1016.096154,0.042426,0.001000,0.001000,0.001000,0.001000,0.001000
1016.115385,0.043042,0.001000,0.001000,0.001000,0.001000,0.001000
1016.134615,0.043633,0.001000,0.001000,0.001000,0.001000,0.001000
1016.153846,0.044201,0.001000,0.001000,0.001000,0.001000,0.001000
1016.173077,0.044743,0.001000,0.001000,0.001000,0.001000,0.001000
1016.192308,0.045260,0.001000,0.001000,0.001000,0.001000,0.001000
1016.211538,0.045751,0.001000,0.001000,0.001000,0.001000,0.001000
1016.230769,0.046217,0.001000,0.001000,0.001000,0.001000,0.001000
1016.250000,0.046657,0.001000,0.001000,0.001000,0.001000,0.001000
1016.269231,0.047070,0.001000,0.001000,0.001000,0.001000,0.001000
1016.288462,0.047457,0.001000,0.001000,0.001000,0.001000,0.001000
1016.307692,0.047817,0.001000,0.001000,0.001000,0.001000,0.001000
1016.326923,0.048150,0.001000,0.001000,0.001000,0.001000,0.001000
1016.346154,0.048457,0.001000,0.001000,0.001000,0.001000,0.001000
1016.365385,0.048735,0.001000,0.001000,0.001000,0.001000,0.001000
1016.384615,0.048987,0.001000,0.001000,0.001000,0.001000,0.001000
1016.403846,0.049211,0.001000,0.001000,0.001000,0.001000,0.001000
1016.423077,0.049407,0.001000,0.001000,0.001000,0.001000,0.001000
1016.442308,0.049575,0.001000,0.001000,0.001000,0.001000,0.001000
1016.461538,0.049715,0.001000,0.001000,0.001000,0.001000,0.001000
1016.480769,0.049828,0.001000,0.001000,0.001000,0.001000,0.001000
1016.500000,0.049912,0.001000,0.001000,0.001000,0.001000,0.001000
1016.519231,0.049968,0.001000,0.001000,0.001000,0.001000,0.001000
1016.538462,0.049997,0.001000,0.001000,0.001000,0.001000,0.001000
1016.557692,0.049996,0.001000,0.001000,0.001000,0.001000,0.001000
1016.576923,0.049968,0.001000,0.001000,0.001000,0.001000,0.001000
1016.596154,0.049912,0.001000,0.001000,0.001000,0.001000,0.001000
1016.615385,0.049827,0.001000,0.001000,0.001000,0.001000,0.001000
1016.634615,0.049715,0.001000,0.001000,0.001000,0.001000,0.001000
1016.653846,0.049574,0.001000,0.001000,0.001000,0.001000,0.001000
1016.673077,0.049406,0.001000,0.001000,0.001000,0.001000,0.001000
1016.692308,0.049210,0.001000,0.001000,0.001000,0.001000,0.001000
1016.711538,0.048986,0.001000,0.001000,0.001000,0.001000,0.001000
1016.730769,0.048734,0.001000,0.001000,0.001000,0.001000,0.001000
1016.750000,0.048455,0.001000,0.001000,0.001000,0.001000,0.001000
1016.769231,0.048149,0.001000,0.001000,0.001000,0.001000,0.001000
1016.788462,0.047815,0.001000,0.001000,0.001000,0.001000,0.001000
1016.807692,0.047455,0.001000,0.001000,0.001000,0.001000,0.001000
1016.826923,0.047068,0.001000,0.001000,0.001000,0.001000,0.001000
1016.846154,0.046654,0.001000,0.001000,0.001000,0.001000,0.001000
1016.865385,0.046215,0.001000,0.001000,0.001000,0.001000,0.001000
1016.884615,0.045749,0.001000,0.001000,0.001000,0.001000,0.001000
1016.903846,0.045257,0.001000,0.001000,0.001000,0.001000,0.001000
1016.923077,0.044740,0.001000,0.001000,0.001000,0.001000,0.001000
1016.942308,0.044198,0.001000,0.001000,0.001000,0.001000,0.001000
1016.961538,0.043631,0.001000,0.001000,0.001000,0.001000,0.001000
1016.980769,0.043039,0.001000,0.001000,0.001000,0.001000,0.001000
1017.000000,0.042423,0.001000,0.001000,0.001000,0.001000,0.001000
1017.019231,0.041783,0.001000,0.001000,0.001000,0.001000,0.001000
1017.038462,0.041119,0.001000,0.001000,0.001000,0.001000,0.001000
1017.057692,0.040433,0.001000,0.001000,0.001000,0.001000,0.001000
1017.076923,0.039724,0.001000,0.001000,0.001000,0.001000,0.001000
1017.096154,0.038992,0.001000,0.001000,0.001000,0.001000,0.001000
1017.115385,0.038238,0.001000,0.001000,0.001000,0.001000,0.001000
1017.134615,0.037463,0.001000,0.001000,0.001000,0.001000,0.001000
1017.153846,0.036667,0.001000,0.001000,0.001000,0.001000,0.001000
1017.173077,0.035850,0.001000,0.001000,0.001000,0.001000,0.001000
1017.192308,0.035013,0.001000,0.001000,0.001000,0.001000,0.001000
1017.211538,0.034156,0.001000,0.001000,0.001000,0.001000,0.001000
1017.230769,0.033280,0.001000,0.001000,0.001000,0.001000,0.001000
1017.250000,0.032385,0.001000,0.001000,0.001000,0.001000,0.001000
1017.269231,0.031472,0.001000,0.001000,0.001000,0.001000,0.001000
1017.288462,0.030541,0.001000,0.001000,0.001000,0.001000,0.001000
1017.307692,0.029593,0.001000,0.001000,0.001000,0.001000,0.001000
1017.326923,0.028628,0.001000,0.001000,0.001000,0.001000,0.001000
1017.346154,0.027648,0.001000,0.001000,0.001000,0.001000,0.001000
1017.365385,0.026651,0.001000,0.001000,0.001000,0.001000,0.001000
1017.384615,0.025640,0.001000,0.001000,0.001000,0.001000,0.001000
1017.403846,0.024614,0.001000,0.001000,0.001000,0.001000,0.001000
1017.423077,0.023575,0.001000,0.001000,0.001000,0.001000,0.001000
1017.442308,0.022522,0.001000,0.001000,0.001000,0.001000,0.001000
1017.461538,0.021456,0.001000,0.001000,0.001000,0.001000,0.001000
1017.480769,0.020378,0.001000,0.001000,0.001000,0.001000,0.001000
1017.500000,0.019289,0.001000,0.001000,0.001000,0.001000,0.001000
1017.519231,0.018189,0.001000,0.001000,0.001000,0.001000,0.001000
1017.538462,0.017079,0.001000,0.001000,0.001000,0.001000,0.001000
1017.557692,0.015959,0.001000,0.001000,0.001000,0.001000,0.001000
1017.576923,0.014830,0.001000,0.001000,0.001000,0.001000,0.001000
1017.596154,0.013693,0.001000,0.001000,0.001000,0.001000,0.001000
1017.615385,0.012548,0.001000,0.001000,0.001000,0.001000,0.001000
1017.634615,0.011396,0.001000,0.001000,0.001000,0.001000,0.001000
1017.653846,0.010238,0.001000,0.001000,0.001000,0.001000,0.001000
1017.673077,0.009073,0.001000,0.001000,0.001000,0.001000,0.001000
1017.692308,0.007904,0.001000,0.001000,0.001000,0.001000,0.001000
1017.711538,0.006730,0.001000,0.001000,0.001000,0.001000,0.001000
1017.730769,0.005553,0.001000,0.001000,0.001000,0.001000,0.001000
1017.750000,0.004372,0.001000,0.001000,0.001000,0.001000,0.001000
1017.769231,0.003189,0.001000,0.001000,0.001000,0.001000,0.001000
1017.788462,0.002004,0.001000,0.001000,0.001000,0.001000,0.001000
1017.807692,0.000818,0.001000,0.001000,0.001000,0.001000,0.001000
1017.826923,-0.000368,0.001000,0.001000,0.001000,0.001000,0.001000
1017.846154,-0.001555,0.001000,0.001000,0.001000,0.001000,0.001000
1017.865385,-0.002740,0.001000,0.001000,0.001000,0.001000,0.001000
1017.884615,-0.003924,0.001000,0.001000,0.001000,0.001000,0.001000
1017.903846,-0.005106,0.001000,0.001000,0.001000,0.001000,0.001000
1017.923077,-0.006284,0.001000,0.001000,0.001000,0.001000,0.001000
1017.942308,-0.007460,0.001000,0.001000,0.001000,0.001000,0.001000
1017.961538,-0.008631,0.001000,0.001000,0.001000,0.001000,0.001000
1017.980769,-0.009797,0.001000,0.001000,0.001000,0.001000,0.001000
1018.000000,-0.010958,0.001000,0.001000,0.001000,0.001000,0.001000
1018.019231,-0.012112,0.001000,0.001000,0.001000,0.001000,0.001000
1018.038462,-0.013260,0.001000,0.001000,0.001000,0.001000,0.001000
1018.057692,-0.014400,0.001000,0.001000,0.001000,0.001000,0.001000
1018.076923,-0.015532,0.001000,0.001000,0.001000,0.001000,0.001000
1018.096154,-0.016655,0.001000,0.001000,0.001000,0.001000,0.001000
1018.115385,-0.017769,0.001000,0.001000,0.001000,0.001000,0.001000
1018.134615,-0.018873,0.001000,0.001000,0.001000,0.001000,0.001000
1018.153846,-0.019967,0.001000,0.001000,0.001000,0.001000,0.001000
1018.173077,-0.021049,0.001000,0.001000,0.001000,0.001000,0.001000
1018.192308,-0.022119,0.001000,0.001000,0.001000,0.001000,0.001000
1018.211538,-0.023177,0.001000,0.001000,0.001000,0.001000,0.001000
1018.230769,-0.024222,0.001000,0.001000,0.001000,0.001000,0.001000
1018.250000,-0.025253,0.001000,0.001000,0.001000,0.001000,0.001000
1018.269231,-0.026270,0.001000,0.001000,0.001000,0.001000,0.001000
1018.288462,-0.027272,0.001000,0.001000,0.001000,0.001000,0.001000
1018.307692,-0.028258,0.001000,0.001000,0.001000,0.001000,0.001000
1018.326923,-0.029229,0.001000,0.001000,0.001000,0.001000,0.001000
1018.346154,-0.030184,0.001000,0.001000,0.001000,0.001000,0.001000
1018.365385,-0.031121,0.001000,0.001000,0.001000,0.001000,0.001000
1018.384615,-0.032041,0.001000,0.001000,0.001000,0.001000,0.001000
1018.403846,-0.032943,0.001000,0.001000,0.001000,0.001000,0.001000
1018.423077,-0.033826,0.001000,0.001000,0.001000,0.001000,0.001000
1018.442308,-0.034690,0.001000,0.001000,0.001000,0.001000,0.001000
1018.461538,-0.035535,0.001000,0.001000,0.001000,0.001000,0.001000
1018.480769,-0.036359,0.001000,0.001000,0.001000,0.001000,0.001000
1018.500000,-0.037164,0.001000,0.001000,0.001000,0.001000,0.001000
1018.519231,-0.037947,0.001000,0.001000,0.001000,0.001000,0.001000
1018.538462,-0.038709,0.001000,0.001000,0.001000,0.001000,0.001000
1018.557692,-0.039449,0.001000,0.001000,0.001000,0.001000,0.001000
1018.576923,-0.040167,0.001000,0.001000,0.001000,0.001000,0.001000
1018.596154,-0.040862,0.001000,0.001000,0.001000,0.001000,0.001000
1018.615385,-0.041534,0.001000,0.001000,0.001000,0.001000,0.001000
1018.634615,-0.042183,0.001000,0.001000,0.001000,0.001000,0.001000
1018.653846,-0.042808,0.001000,0.001000,0.001000,0.001000,0.001000
1018.673077,-0.043409,0.001000,0.001000,0.001000,0.001000,0.001000
1018.692308,-0.043986,0.001000,0.001000,0.001000,0.001000,0.001000
1018.711538,-0.044537,0.001000,0.001000,0.001000,0.001000,0.001000
1018.730769,-0.045064,0.001000,0.001000,0.001000,0.001000,0.001000
1018.750000,-0.045565,0.001000,0.001000,0.001000,0.001000,0.001000
1018.769231,-0.046041,0.001000,0.001000,0.001000,0.001000,0.001000
1018.788462,-0.046491,0.001000,0.001000,0.001000,0.001000,0.001000
1018.807692,-0.046914,0.001000,0.001000,0.001000,0.001000,0.001000
1018.826923,-0.047311,0.001000,0.001000,0.001000,0.001000,0.001000
1018.846154,-0.047682,0.001000,0.001000,0.001000,0.001000,0.001000
1018.865385,-0.048026,0.001000,0.001000,0.001000,0.001000,0.001000
1018.884615,-0.048342,0.001000,0.001000,0.001000,0.001000,0.001000
1018.903846,-0.048632,0.001000,0.001000,0.001000,0.001000,0.001000
1018.923077,-0.048894,0.001000,0.001000,0.001000,0.001000,0.001000
1018.942308,-0.049128,0.001000,0.001000,0.001000,0.001000,0.001000
1018.961538,-0.049335,0.001000,0.001000,0.001000,0.001000,0.001000
1018.980769,-0.049514,0.001000,0.001000,0.001000,0.001000,0.001000
1019.000000,-0.049665,0.001000,0.001000,0.001000,0.001000,0.001000
1019.019231,-0.049788,0.001000,0.001000,0.001000,0.001000,0.001000
1019.038462,-0.049883,0.001000,0.001000,0.001000,0.001000,0.001000
1019.057692,-0.049950,0.001000,0.001000,0.001000,0.001000,0.001000
1019.076923,-0.049989,0.001000,0.001000,0.001000,0.001000,0.001000
1019.096154,-0.050000,0.001000,0.001000,0.001000,0.001000,0.001000
1019.115385,-0.049982,0.001000,0.001000,0.001000,0.001000,0.001000
1019.134615,-0.049937,0.001000,0.001000,0.001000,0.001000,0.001000
1019.153846,-0.049863,0.001000,0.001000,0.001000,0.001000,0.001000
1019.173077,-0.049761,0.001000,0.001000,0.001000,0.001000,0.001000
1019.192308,-0.049632,0.001000,0.001000,0.001000,0.001000,0.001000
1019.211538,-0.049474,0.001000,0.001000,0.001000,0.001000,0.001000
1019.230769,-0.049288,0.001000,0.001000,0.001000,0.001000,0.001000
1019.250000,-0.049075,0.001000,0.001000,0.001000,0.001000,0.001000
1019.269231,-0.048834,0.001000,0.001000,0.001000,0.001000,0.001000
1019.288462,-0.048566,0.001000,0.001000,0.001000,0.001000,0.001000
1019.307692,-0.048270,0.001000,0.001000,0.001000,0.001000,0.001000
1019.326923,-0.047947,0.001000,0.001000,0.001000,0.001000,0.001000
1019.346154,-0.047597,0.001000,0.001000,0.001000,0.001000,0.001000
1019.365385,-0.047220,0.001000,0.001000,0.001000,0.001000,0.001000
1019.384615,-0.046816,0.001000,0.001000,0.001000,0.001000,0.001000
1019.403846,-0.046387,0.001000,0.001000,0.001000,0.001000,0.001000
1019.423077,-0.045931,0.001000,0.001000,0.001000,0.001000,0.001000
1019.442308,-0.045449,0.001000,0.001000,0.001000,0.001000,0.001000
1019.461538,-0.044942,0.001000,0.001000,0.001000,0.001000,0.001000
1019.480769,-0.044409,0.001000,0.001000,0.001000,0.001000,0.001000
1019.500000,-0.043851,0.001000,0.001000,0.001000,0.001000,0.001000
1019.519231,-0.043269,0.001000,0.001000,0.001000,0.001000,0.001000
1019.538462,-0.042662,0.001000,0.001000,0.001000,0.001000,0.001000
1019.557692,-0.042032,0.001000,0.001000,0.001000,0.001000,0.001000
1019.576923,-0.041377,0.001000,0.001000,0.001000,0.001000,0.001000
1019.596154,-0.040699,0.001000,0.001000,0.001000,0.001000,0.001000
1019.615385,-0.039999,0.001000,0.001000,0.001000,0.001000,0.001000
1019.634615,-0.039276,0.001000,0.001000,0.001000,0.001000,0.001000
1019.653846,-0.038530,0.001000,0.001000,0.001000,0.001000,0.001000
1019.673077,-0.037763,0.001000,0.001000,0.001000,0.001000,0.001000
1019.692308,-0.036975,0.001000,0.001000,0.001000,0.001000,0.001000
1019.711538,-0.036166,0.001000,0.001000,0.001000,0.001000,0.001000
1019.730769,-0.035337,0.001000,0.001000,0.001000,0.001000,0.001000
1019.750000,-0.034487,0.001000,0.001000,0.001000,0.001000,0.001000
1019.769231,-0.033619,0.001000,0.001000,0.001000,0.001000,0.001000
1019.788462,-0.032731,0.001000,0.001000,0.001000,0.001000,0.001000
1019.807692,-0.031825,0.001000,0.001000,0.001000,0.001000,0.001000
1019.826923,-0.030901,0.001000,0.001000,0.001000,0.001000,0.001000
1019.846154,-0.029959,0.001000,0.001000,0.001000,0.001000,0.001000
1019.865385,-0.029001,0.001000,0.001000,0.001000,0.001000,0.001000
1019.884615,-0.028026,0.001000,0.001000,0.001000,0.001000,0.001000
1019.903846,-0.027036,0.001000,0.001000,0.001000,0.001000,0.001000
1019.923077,-0.026030,0.001000,0.001000,0.001000,0.001000,0.001000
1019.942308,-0.025010,0.001000,0.001000,0.001000,0.001000,0.001000
1019.961538,-0.023976,0.001000,0.001000,0.001000,0.001000,0.001000
1019.980769,-0.022928,0.001000,0.001000,0.001000,0.001000,0.001000
1020.000000,-0.021867,0.001000,0.001000,0.001000,0.001000,0.001000
1020.019231,-0.020794,0.001000,0.001000,0.001000,0.001000,0.001000
1020.038462,-0.019709,0.001000,0.001000,0.001000,0.001000,0.001000
1020.057692,-0.018613,0.001000,0.001000,0.001000,0.001000,0.001000
1020.076923,-0.017507,0.001000,0.001000,0.001000,0.001000,0.001000
1020.096154,-0.016390,0.001000,0.001000,0.001000,0.001000,0.001000
1020.115385,-0.015265,0.001000,0.001000,0.001000,0.001000,0.001000
1020.134615,-0.014131,0.001000,0.001000,0.001000,0.001000,0.001000
1020.153846,-0.012989,0.001000,0.001000,0.001000,0.001000,0.001000
1020.173077,-0.011839,0.001000,0.001000,0.001000,0.001000,0.001000
1020.192308,-0.010683,0.001000,0.001000,0.001000,0.001000,0.001000
1020.211538,-0.009521,0.001000,0.001000,0.001000,0.001000,0.001000
1020.230769,-0.008354,0.001000,0.001000,0.001000,0.001000,0.001000
1020.250000,-0.007182,0.001000,0.001000,0.001000,0.001000,0.001000
1020.269231,-0.006006,0.001000,0.001000,0.001000,0.001000,0.001000
1020.288462,-0.004826,0.001000,0.001000,0.001000,0.001000,0.001000
1020.307692,-0.003644,0.001000,0.001000,0.001000,0.001000,0.001000
1020.326923,-0.002460,0.001000,0.001000,0.001000,0.001000,0.001000
1020.346154,-0.001274,0.001000,0.001000,0.001000,0.001000,0.001000
1020.365385,-0.000088,0.001000,0.001000,0.001000,0.001000,0.001000
1020.384615,0.001099,0.001000,0.001000,0.001000,0.001000,0.001000
1020.403846,0.002285,0.001000,0.001000,0.001000,0.001000,0.001000
1020.423077,0.003469,0.001000,0.001000,0.001000,0.001000,0.001000
1020.442308,0.004652,0.001000,0.001000,0.001000,0.001000,0.001000
1020.461538,0.005832,0.001000,0.001000,0.001000,0.001000,0.001000
1020.480769,0.007009,0.001000,0.001000,0.001000,0.001000,0.001000
1020.500000,0.008181,0.001000,0.001000,0.001000,0.001000,0.001000
1020.519231,0.009349,0.001000,0.001000,0.001000,0.001000,0.001000
1020.538462,0.010512,0.001000,0.001000,0.001000,0.001000,0.001000
1020.557692,0.011669,0.001000,0.001000,0.001000,0.001000,0.001000
1020.576923,0.012820,0.001000,0.001000,0.001000,0.001000,0.001000
1020.596154,0.013963,0.001000,0.001000,0.001000,0.001000,0.001000
1020.615385,0.015098,0.001000,0.001000,0.001000,0.001000,0.001000
1020.634615,0.016225,0.001000,0.001000,0.001000,0.001000,0.001000
1020.653846,0.017343,0.001000,0.001000,0.001000,0.001000,0.001000
1020.673077,0.018450,0.001000,0.001000,0.001000,0.001000,0.001000
1020.692308,0.019548,0.001000,0.001000,0.001000,0.001000,0.001000
1020.711538,0.020634,0.001000,0.001000,0.001000,0.001000,0.001000
1020.730769,0.021709,0.001000,0.001000,0.001000,0.001000,0.001000
1020.750000,0.022772,0.001000,0.001000,0.001000,0.001000,0.001000
1020.769231,0.023822,0.001000,0.001000,0.001000,0.001000,0.001000
1020.788462,0.024858,0.001000,0.001000,0.001000,0.001000,0.001000
1020.807692,0.025881,0.001000,0.001000,0.001000,0.001000,0.001000
1020.826923,0.026889,0.001000,0.001000,0.001000,0.001000,0.001000
1020.846154,0.027881,0.001000,0.001000,0.001000,0.001000,0.001000
1020.865385,0.028858,0.001000,0.001000,0.001000,0.001000,0.001000
1020.884615,0.029819,0.001000,0.001000,0.001000,0.001000,0.001000
1020.903846,0.030763,0.001000,0.001000,0.001000,0.001000,0.001000
1020.923077,0.031690,0.001000,0.001000,0.001000,0.001000,0.001000
1020.942308,0.032598,0.001000,0.001000,0.001000,0.001000,0.001000
1020.961538,0.033489,0.001000,0.001000,0.001000,0.001000,0.001000
1020.980769,0.034360,0.001000,0.001000,0.001000,0.001000,0.001000
1021.000000,0.035213,0.001000,0.001000,0.001000,0.001000,0.001000
1021.019231,0.036045,0.001000,0.001000,0.001000,0.001000,0.001000
1021.038462,0.036857,0.001000,0.001000,0.001000,0.001000,0.001000
1021.057692,0.037648,0.001000,0.001000,0.001000,0.001000,0.001000
1021.076923,0.038419,0.001000,0.001000,0.001000,0.001000,0.001000
1021.096154,0.039167,0.001000,0.001000,0.001000,0.001000,0.001000
1021.115385,0.039893,0.001000,0.001000,0.001000,0.001000,0.001000
1021.134615,0.040597,0.001000,0.001000,0.001000,0.001000,0.001000
1021.153846,0.041279,0.001000,0.001000,0.001000,0.001000,0.001000
1021.173077,0.041936,0.001000,0.001000,0.001000,0.001000,0.001000
1021.192308,0.042571,0.001000,0.001000,0.001000,0.001000,0.001000
1021.211538,0.043181,0.001000,0.001000,0.001000,0.001000,0.001000
1021.230769,0.043767,0.001000,0.001000,0.001000,0.001000,0.001000
1021.250000,0.044328,0.001000,0.001000,0.001000,0.001000,0.001000
1021.269231,0.044865,0.001000,0.001000,0.001000,0.001000,0.001000
1021.288462,0.045376,0.001000,0.001000,0.001000,0.001000,0.001000
1021.307692,0.045861,0.001000,0.001000,0.001000,0.001000,0.001000
1021.326923,0.046321,0.001000,0.001000,0.001000,0.001000,0.001000
1021.346154,0.046755,0.001000,0.001000,0.001000,0.001000,0.001000
1021.365385,0.047162,0.001000,0.001000,0.001000,0.001000,0.001000
1021.384615,0.047543,0.001000,0.001000,0.001000,0.001000,0.001000
1021.403846,0.047897,0.001000,0.001000,0.001000,0.001000,0.001000
1021.423077,0.048224,0.001000,0.001000,0.001000,0.001000,0.001000
1021.442308,0.048524,0.001000,0.001000,0.001000,0.001000,0.001000
1021.461538,0.048796,0.001000,0.001000,0.001000,0.001000,0.001000
1021.480769,0.049041,0.001000,0.001000,0.001000,0.001000,0.001000
1021.500000,0.049259,0.001000,0.001000,0.001000,0.001000,0.001000
1021.519231,0.049448,0.001000,0.001000,0.001000,0.001000,0.001000
1021.538462,0.049610,0.001000,0.001000,0.001000,0.001000,0.001000
1021.557692,0.049744,0.001000,0.001000,0.001000,0.001000,0.001000
1021.576923,0.049850,0.001000,0.001000,0.001000,0.001000,0.001000
1021.596154,0.049928,0.001000,0.001000,0.001000,0.001000,0.001000
1021.615385,0.049977,0.001000,0.001000,0.001000,0.001000,0.001000
1021.634615,0.049999,0.001000,0.001000,0.001000,0.001000,0.001000
1021.653846,0.049992,0.001000,0.001000,0.001000,0.001000,0.001000
1021.673077,0.049958,0.001000,0.001000,0.001000,0.001000,0.001000
1021.692308,0.049895,0.001000,0.001000,0.001000,0.001000,0.001000
1021.711538,0.049804,0.001000,0.001000,0.001000,0.001000,0.001000
1021.730769,0.049685,0.001000,0.001000,0.001000,0.001000,0.001000
1021.750000,0.049538,0.001000,0.001000,0.001000,0.001000,0.001000
1021.769231,0.049363,0.001000,0.001000,0.001000,0.001000,0.001000
1021.788462,0.049160,0.001000,0.001000,0.001000,0.001000,0.001000
1021.807692,0.048930,0.001000,0.001000,0.001000,0.001000,0.001000
1021.826923,0.048672,0.001000,0.001000,0.001000,0.001000,0.001000
1021.846154,0.048387,0.001000,0.001000,0.001000,0.001000,0.001000
1021.865385,0.048074,0.001000,0.001000,0.001000,0.001000,0.001000
1021.884615,0.047734,0.001000,0.001000,0.001000,0.001000,0.001000
1021.903846,0.047368,0.001000,0.001000,0.001000,0.001000,0.001000
1021.923077,0.046975,0.001000,0.001000,0.001000,0.001000,0.001000
1021.942308,0.046555,0.001000,0.001000,0.001000,0.001000,0.001000
1021.961538,0.046109,0.001000,0.001000,0.001000,0.001000,0.001000
1021.980769,0.045637,0.001000,0.001000,0.001000,0.001000,0.001000
1022.000000,0.045140,0.001000,0.001000,0.001000,0.001000,0.001000
1022.019231,0.044617,0.001000,0.001000,0.001000,0.001000,0.001000
1022.038462,0.044069,0.001000,0.001000,0.001000,0.001000,0.001000
1022.057692,0.043496,0.001000,0.001000,0.001000,0.001000,0.001000
1022.076923,0.042898,0.001000,0.001000,0.001000,0.001000,0.001000
1022.096154,0.042277,0.001000,0.001000,0.001000,0.001000,0.001000
1022.115385,0.041631,0.001000,0.001000,0.001000,0.001000,0.001000
1022.134615,0.040963,0.001000,0.001000,0.001000,0.001000,0.001000
1022.153846,0.040271,0.001000,0.001000,0.001000,0.001000,0.001000
1022.173077,0.039556,0.001000,0.001000,0.001000,0.001000,0.001000
1022.192308,0.038819,0.001000,0.001000,0.001000,0.001000,0.001000
1022.211538,0.038061,0.001000,0.001000,0.001000,0.001000,0.001000
1022.230769,0.037280,0.001000,0.001000,0.001000,0.001000,0.001000
1022.250000,0.036479,0.001000,0.001000,0.001000,0.001000,0.001000
1022.269231,0.035658,0.001000,0.001000,0.001000,0.001000,0.001000
1022.288462,0.034816,0.001000,0.001000,0.001000,0.001000,0.001000
1022.307692,0.033955,0.001000,0.001000,0.001000,0.001000,0.001000
1022.326923,0.033074,0.001000,0.001000,0.001000,0.001000,0.001000
1022.346154,0.032175,0.001000,0.001000,0.001000,0.001000,0.001000
1022.365385,0.031258,0.001000,0.001000,0.001000,0.001000,0.001000
1022.384615,0.030323,0.001000,0.001000,0.001000,0.001000,0.001000
1022.403846,0.029371,0.001000,0.001000,0.001000,0.001000,0.001000
1022.423077,0.028403,0.001000,0.001000,0.001000,0.001000,0.001000
1022.442308,0.027418,0.001000,0.001000,0.001000,0.001000,0.001000
1022.461538,0.026418,0.001000,0.001000,0.001000,0.001000,0.001000
1022.480769,0.025404,0.001000,0.001000,0.001000,0.001000,0.001000
1022.500000,0.024375,0.001000,0.001000,0.001000,0.001000,0.001000
1022.519231,0.023332,0.001000,0.001000,0.001000,0.001000,0.001000
1022.538462,0.022276,0.001000,0.001000,0.001000,0.001000,0.001000
1022.557692,0.021208,0.001000,0.001000,0.001000,0.001000,0.001000
1022.576923,0.020127,0.001000,0.001000,0.001000,0.001000,0.001000
1022.596154,0.019035,0.001000,0.001000,0.001000,0.001000,0.001000
1022.615385,0.017933,0.001000,0.001000,0.001000,0.001000,0.001000
1022.634615,0.016820,0.001000,0.001000,0.001000,0.001000,0.001000
1022.653846,0.015698,0.001000,0.001000,0.001000,0.001000,0.001000
1022.673077,0.014568,0.001000,0.001000,0.001000,0.001000,0.001000
1022.692308,0.013429,0.001000,0.001000,0.001000,0.001000,0.001000
1022.711538,0.012282,0.001000,0.001000,0.001000,0.001000,0.001000
1022.730769,0.011128,0.001000,0.001000,0.001000,0.001000,0.001000
1022.750000,0.009969,0.001000,0.001000,0.001000,0.001000,0.001000
1022.769231,0.008803,0.001000,0.001000,0.001000,0.001000,0.001000
1022.788462,0.007633,0.001000,0.001000,0.001000,0.001000,0.001000
1022.807692,0.006458,0.001000,0.001000,0.001000,0.001000,0.001000
1022.826923,0.005280,0.001000,0.001000,0.001000,0.001000,0.001000
1022.846154,0.004098,0.001000,0.001000,0.001000,0.001000,0.001000
1022.865385,0.002915,0.001000,0.001000,0.001000,0.001000,0.001000
1022.884615,0.001730,0.001000,0.001000,0.001000,0.001000,0.001000
1022.903846,0.000543,0.001000,0.001000,0.001000,0.001000,0.001000
1022.923077,-0.000643,0.001000,0.001000,0.001000,0.001000,0.001000
1022.942308,-0.001829,0.001000,0.001000,0.001000,0.001000,0.001000
1022.961538,-0.003014,0.001000,0.001000,0.001000,0.001000,0.001000
1022.980769,-0.004198,0.001000,0.001000,0.001000,0.001000,0.001000
1023.000000,-0.005379,0.001000,0.001000,0.001000,0.001000,0.001000
1023.019231,-0.006557,0.001000,0.001000,0.001000,0.001000,0.001000
1023.038462,-0.007731,0.001000,0.001000,0.001000,0.001000,0.001000
1023.057692,-0.008901,0.001000,0.001000,0.001000,0.001000,0.001000
1023.076923,-0.010066,0.001000,0.001000,0.001000,0.001000,0.001000
1023.096154,-0.011225,0.001000,0.001000,0.001000,0.001000,0.001000
1023.115385,-0.012378,0.001000,0.001000,0.001000,0.001000,0.001000
1023.134615,-0.013524,0.001000,0.001000,0.001000,0.001000,0.001000
1023.153846,-0.014663,0.001000,0.001000,0.001000,0.001000,0.001000
1023.173077,-0.015793,0.001000,0.001000,0.001000,0.001000,0.001000
1023.192308,-0.016914,0.001000,0.001000,0.001000,0.001000,0.001000
1023.211538,-0.018026,0.001000,0.001000,0.001000,0.001000,0.001000
1023.230769,-0.019128,0.001000,0.001000,0.001000,0.001000,0.001000
1023.250000,-0.020218,0.001000,0.001000,0.001000,0.001000,0.001000
1023.269231,-0.021298,0.001000,0.001000,0.001000,0.001000,0.001000
1023.288462,-0.022365,0.001000,0.001000,0.001000,0.001000,0.001000
1023.307692,-0.023420,0.001000,0.001000,0.001000,0.001000,0.001000
1023.326923,-0.024462,0.001000,0.001000,0.001000,0.001000,0.001000
1023.346154,-0.025490,0.001000,0.001000,0.001000,0.001000,0.001000
1023.365385,-0.026503,0.001000,0.001000,0.001000,0.001000,0.001000
1023.384615,-0.027502,0.001000,0.001000,0.001000,0.001000,0.001000
1023.403846,-0.028485,0.001000,0.001000,0.001000,0.001000,0.001000
1023.423077,-0.029452,0.001000,0.001000,0.001000,0.001000,0.001000
1023.442308,-0.030402,0.001000,0.001000,0.001000,0.001000,0.001000
1023.461538,-0.031336,0.001000,0.001000,0.001000,0.001000,0.001000
1023.480769,-0.032251,0.001000,0.001000,0.001000,0.001000,0.001000
1023.500000,-0.033149,0.001000,0.001000,0.001000,0.001000,0.001000
1023.519231,-0.034028,0.001000,0.001000,0.001000,0.001000,0.001000
1023.538462,-0.034887,0.001000,0.001000,0.001000,0.001000,0.001000
1023.557692,-0.035728,0.001000,0.001000,0.001000,0.001000,0.001000
1023.576923,-0.036547,0.001000,0.001000,0.001000,0.001000,0.001000
1023.596154,-0.037347,0.001000,0.001000,0.001000,0.001000,0.001000
1023.615385,-0.038125,0.001000,0.001000,0.001000,0.001000,0.001000
1023.634615,-0.038882,0.001000,0.001000,0.001000,0.001000,0.001000
1023.653846,-0.039617,0.001000,0.001000,0.001000,0.001000,0.001000
1023.673077,-0.040330,0.001000,0.001000,0.001000,0.001000,0.001000
1023.692308,-0.041020,0.001000,0.001000,0.001000,0.001000,0.001000
1023.711538,-0.041686,0.001000,0.001000,0.001000,0.001000,0.001000
1023.730769,-0.042330,0.001000,0.001000,0.001000,0.001000,0.001000
1023.750000,-0.042949,0.001000,0.001000,0.001000,0.001000,0.001000
1023.769231,-0.043545,0.001000,0.001000,0.001000,0.001000,0.001000
1023.788462,-0.044116,0.001000,0.001000,0.001000,0.001000,0.001000
1023.807692,-0.044662,0.001000,0.001000,0.001000,0.001000,0.001000
1023.826923,-0.045182,0.001000,0.001000,0.001000,0.001000,0.001000
1023.846154,-0.045678,0.001000,0.001000,0.001000,0.001000,0.001000
1023.865385,-0.046147,0.001000,0.001000,0.001000,0.001000,0.001000
1023.884615,-0.046591,0.001000,0.001000,0.001000,0.001000,0.001000
1023.903846,-0.047009,0.001000,0.001000,0.001000,0.001000,0.001000
1023.923077,-0.047400,0.001000,0.001000,0.001000,0.001000,0.001000
1023.942308,-0.047764,0.001000,0.001000,0.001000,0.001000,0.001000
1023.961538,-0.048101,0.001000,0.001000,0.001000,0.001000,0.001000
1023.980769,-0.048412,0.001000,0.001000,0.001000,0.001000,0.001000
1024.000000,-0.048695,0.001000,0.001000,0.001000,0.001000,0.001000
1024.019231,-0.048950,0.001000,0.001000,0.001000,0.001000,0.001000
1024.038462,-0.049178,0.001000,0.001000,0.001000,0.001000,0.001000
1024.057692,-0.049379,0.001000,0.001000,0.001000,0.001000,0.001000
1024.076923,-0.049551,0.001000,0.001000,0.001000,0.001000,0.001000
1024.096154,-0.049696,0.001000,0.001000,0.001000,0.001000,0.001000
1024.115385,-0.049813,0.001000,0.001000,0.001000,0.001000,0.001000
1024.134615,-0.049901,0.001000,0.001000,0.001000,0.001000,0.001000
1024.153846,-0.049962,0.001000,0.001000,0.001000,0.001000,0.001000
1024.173077,-0.049994,0.001000,0.001000,0.001000,0.001000,0.001000
1024.192308,-0.049998,0.001000,0.001000,0.001000,0.001000,0.001000
1024.211538,-0.049974,0.001000,0.001000,0.001000,0.001000,0.001000
1024.230769,-0.049922,0.001000,0.001000,0.001000,0.001000,0.001000
1024.250000,-0.049842,0.001000,0.001000,0.001000,0.001000,0.001000
1024.269231,-0.049734,0.001000,0.001000,0.001000,0.001000,0.001000
1024.288462,-0.049598,0.001000,0.001000,0.001000,0.001000,0.001000
1024.307692,-0.049433,0.001000,0.001000,0.001000,0.001000,0.001000
1024.326923,-0.049241,0.001000,0.001000,0.001000,0.001000,0.001000
1024.346154,-0.049022,0.001000,0.001000,0.001000,0.001000,0.001000
1024.365385,-0.048774,0.001000,0.001000,0.001000,0.001000,0.001000
1024.384615,-0.048499,0.001000,0.001000,0.001000,0.001000,0.001000
1024.403846,-0.048197,0.001000,0.001000,0.001000,0.001000,0.001000
1024.423077,-0.047868,0.001000,0.001000,0.001000,0.001000,0.001000
1024.442308,-0.047512,0.001000,0.001000,0.001000,0.001000,0.001000
1024.461538,-0.047129,0.001000,0.001000,0.001000,0.001000,0.001000
1024.480769,-0.046719,0.001000,0.001000,0.001000,0.001000,0.001000
1024.500000,-0.046283,0.001000,0.001000,0.001000,0.001000,0.001000
1024.519231,-0.045822,0.001000,0.001000,0.001000,0.001000,0.001000
1024.538462,-0.045334,0.001000,0.001000,0.001000,0.001000,0.001000
1024.557692,-0.044821,0.001000,0.001000,0.001000,0.001000,0.001000
1024.576923,-0.044282,0.001000,0.001000,0.001000,0.001000,0.001000
1024.596154,-0.043719,0.001000,0.001000,0.001000,0.001000,0.001000
1024.615385,-0.043131,0.001000,0.001000,0.001000,0.001000,0.001000
1024.634615,-0.042518,0.001000,0.001000,0.001000,0.001000,0.001000
1024.653846,-0.041882,0.001000,0.001000,0.001000,0.001000,0.001000
1024.673077,-0.041222,0.001000,0.001000,0.001000,0.001000,0.001000
1024.692308,-0.040539,0.001000,0.001000,0.001000,0.001000,0.001000
1024.711538,-0.039833,0.001000,0.001000,0.001000,0.001000,0.001000
1024.730769,-0.039105,0.001000,0.001000,0.001000,0.001000,0.001000
1024.750000,-0.038355,0.001000,0.001000,0.001000,0.001000,0.001000
1024.769231,-0.037583,0.001000,0.001000,0.001000,0.001000,0.001000
1024.788462,-0.036790,0.001000,0.001000,0.001000,0.001000,0.001000
1024.807692,-0.035976,0.001000,0.001000,0.001000,0.001000,0.001000
1024.826923,-0.035142,0.001000,0.001000,0.001000,0.001000,0.001000
1024.846154,-0.034288,0.001000,0.001000,0.001000,0.001000,0.001000
1024.865385,-0.033415,0.001000,0.001000,0.001000,0.001000,0.001000
1024.884615,-0.032523,0.001000,0.001000,0.001000,0.001000,0.001000
1024.903846,-0.031612,0.001000,0.001000,0.001000,0.001000,0.001000
1024.923077,-0.030684,0.001000,0.001000,0.001000,0.001000,0.001000
1024.942308,-0.029739,0.001000,0.001000,0.001000,0.001000,0.001000
1024.961538,-0.028777,0.001000,0.001000,0.001000,0.001000,0.001000
1024.980769,-0.027798,0.001000,0.001000,0.001000,0.001000,0.001000
1025.000000,-0.026804,0.001000,0.001000,0.001000,0.001000,0.001000
1025.019231,-0.025795,0.001000,0.001000,0.001000,0.001000,0.001000
1025.038462,-0.024772,0.001000,0.001000,0.001000,0.001000,0.001000
1025.057692,-0.023734,0.001000,0.001000,0.001000,0.001000,0.001000
1025.076923,-0.022683,0.001000,0.001000,0.001000,0.001000,0.001000
1025.096154,-0.021620,0.001000,0.001000,0.001000,0.001000,0.001000
1025.115385,-0.020544,0.001000,0.001000,0.001000,0.001000,0.001000
1025.134615,-0.019456,0.001000,0.001000,0.001000,0.001000,0.001000
1025.153846,-0.018358,0.001000,0.001000,0.001000,0.001000,0.001000
1025.173077,-0.017249,0.001000,0.001000,0.001000,0.001000,0.001000
1025.192308,-0.016131,0.001000,0.001000,0.001000,0.001000,0.001000
1025.211538,-0.015003,0.001000,0.001000,0.001000,0.001000,0.001000
1025.230769,-0.013867,0.001000,0.001000,0.001000,0.001000,0.001000
1025.250000,-0.012723,0.001000,0.001000,0.001000,0.001000,0.001000
1025.269231,-0.011572,0.001000,0.001000,0.001000,0.001000,0.001000
1025.288462,-0.010415,0.001000,0.001000,0.001000,0.001000,0.001000
1025.307692,-0.009252,0.001000,0.001000,0.001000,0.001000,0.001000
1025.326923,-0.008083,0.001000,0.001000,0.001000,0.001000,0.001000
1025.346154,-0.006910,0.001000,0.001000,0.001000,0.001000,0.001000
1025.365385,-0.005733,0.001000,0.001000,0.001000,0.001000,0.001000
1025.384615,-0.004553,0.001000,0.001000,0.001000,0.001000,0.001000
1025.403846,-0.003370,0.001000,0.001000,0.001000,0.001000,0.001000
1025.423077,-0.002185,0.001000,0.001000,0.001000,0.001000,0.001000
1025.442308,-0.000999,0.001000,0.001000,0.001000,0.001000,0.001000
1025.461538,0.000187,0.001000,0.001000,0.001000,0.001000,0.001000
1025.480769,0.001374,0.001000,0.001000,0.001000,0.001000,0.001000
1025.500000,0.002559,0.001000,0.001000,0.001000,0.001000,0.001000
1025.519231,0.003743,0.001000,0.001000,0.001000,0.001000,0.001000
1025.538462,0.004925,0.001000,0.001000,0.001000,0.001000,0.001000
1025.557692,0.006105,0.001000,0.001000,0.001000,0.001000,0.001000
1025.576923,0.007280,0.001000,0.001000,0.001000,0.001000,0.001000
1025.596154,0.008452,0.001000,0.001000,0.001000,0.001000,0.001000
1025.615385,0.009619,0.001000,0.001000,0.001000,0.001000,0.001000
1025.634615,0.010781,0.001000,0.001000,0.001000,0.001000,0.001000
1025.653846,0.011936,0.001000,0.001000,0.001000,0.001000,0.001000
1025.673077,0.013085,0.001000,0.001000,0.001000,0.001000,0.001000
1025.692308,0.014226,0.001000,0.001000,0.001000,0.001000,0.001000
1025.711538,0.015360,0.001000,0.001000,0.001000,0.001000,0.001000
1025.730769,0.016485,0.001000,0.001000,0.001000,0.001000,0.001000
1025.750000,0.017600,0.001000,0.001000,0.001000,0.001000,0.001000
1025.769231,0.018706,0.001000,0.001000,0.001000,0.001000,0.001000
1025.788462,0.019801,0.001000,0.001000,0.001000,0.001000,0.001000
1025.807692,0.020884,0.001000,0.001000,0.001000,0.001000,0.001000
1025.826923,0.021957,0.001000,0.001000,0.001000,0.001000,0.001000
1025.846154,0.023016,0.001000,0.001000,0.001000,0.001000,0.001000
1025.865385,0.024063,0.001000,0.001000,0.001000,0.001000,0.001000
1025.884615,0.025096,0.001000,0.001000,0.001000,0.001000,0.001000
1025.903846,0.026115,0.001000,0.001000,0.001000,0.001000,0.001000
1025.923077,0.027120,0.001000,0.001000,0.001000,0.001000,0.001000
1025.942308,0.028109,0.001000,0.001000,0.001000,0.001000,0.001000
1025.961538,0.029082,0.001000,0.001000,0.001000,0.001000,0.001000
1025.980769,0.030039,0.001000,0.001000,0.001000,0.001000,0.001000
1026.000000,0.030979,0.001000,0.001000,0.001000,0.001000,0.001000
1026.019231,0.031902,0.001000,0.001000,0.001000,0.001000,0.001000
1026.038462,0.032806,0.001000,0.001000,0.001000,0.001000,0.001000
1026.057692,0.033692,0.001000,0.001000,0.001000,0.001000,0.001000
1026.076923,0.034559,0.001000,0.001000,0.001000,0.001000,0.001000
1026.096154,0.035407,0.001000,0.001000,0.001000,0.001000,0.001000
1026.115385,0.036235,0.001000,0.001000,0.001000,0.001000,0.001000
1026.134615,0.037042,0.001000,0.001000,0.001000,0.001000,0.001000
1026.153846,0.037829,0.001000,0.001000,0.001000,0.001000,0.001000
1026.173077,0.038594,0.001000,0.001000,0.001000,0.001000,0.001000
1026.192308,0.039337,0.001000,0.001000,0.001000,0.001000,0.001000
1026.211538,0.040059,0.001000,0.001000,0.001000,0.001000,0.001000
1026.230769,0.040757,0.001000,0.001000,0.001000,0.001000,0.001000
1026.250000,0.041433,0.001000,0.001000,0.001000,0.001000,0.001000
1026.269231,0.042085,0.001000,0.001000,0.001000,0.001000,0.001000
1026.288462,0.042714,0.001000,0.001000,0.001000,0.001000,0.001000
1026.307692,0.043319,0.001000,0.001000,0.001000,0.001000,0.001000
1026.326923,0.043899,0.001000,0.001000,0.001000,0.001000,0.001000
1026.346154,0.044455,0.001000,0.001000,0.001000,0.001000,0.001000
1026.365385,0.044985,0.001000,0.001000,0.001000,0.001000,0.001000
1026.384615,0.045490,0.001000,0.001000,0.001000,0.001000,0.001000
1026.403846,0.045970,0.001000,0.001000,0.001000,0.001000,0.001000
1026.423077,0.046424,0.001000,0.001000,0.001000,0.001000,0.001000
1026.442308,0.046851,0.001000,0.001000,0.001000,0.001000,0.001000
1026.461538,0.047253,0.001000,0.001000,0.001000,0.001000,0.001000
1026.480769,0.047627,0.001000,0.001000,0.001000,0.001000,0.001000
1026.500000,0.047975,0.001000,0.001000,0.001000,0.001000,0.001000
1026.519231,0.048296,0.001000,0.001000,0.001000,0.001000,0.001000
1026.538462,0.048589,0.001000,0.001000,0.001000,0.001000,0.001000
1026.557692,0.048855,0.001000,0.001000,0.001000,0.001000,0.001000
1026.576923,0.049094,0.001000,0.001000,0.001000,0.001000,0.001000
1026.596154,0.049305,0.001000,0.001000,0.001000,0.001000,0.001000
1026.615385,0.049488,0.001000,0.001000,0.001000,0.001000,0.001000
1026.634615,0.049644,0.001000,0.001000,0.001000,0.001000,0.001000
1026.653846,0.049771,0.001000,0.001000,0.001000,0.001000,0.001000
1026.673077,0.049870,0.001000,0.001000,0.001000,0.001000,0.001000
1026.692308,0.049942,0.001000,0.001000,0.001000,0.001000,0.001000
1026.711538,0.049985,0.001000,0.001000,0.001000,0.001000,0.001000
1026.730769,0.050000,0.001000,0.001000,0.001000,0.001000,0.001000
1026.750000,0.049987,0.001000,0.001000,0.001000,0.001000,0.001000
1026.769231,0.049946,0.001000,0.001000,0.001000,0.001000,0.001000
1026.788462,0.049876,0.001000,0.001000,0.001000,0.001000,0.001000
1026.807692,0.049779,0.001000,0.001000,0.001000,0.001000,0.001000
1026.826923,0.049653,0.001000,0.001000,0.001000,0.001000,0.001000
1026.846154,0.049500,0.001000,0.001000,0.001000,0.001000,0.001000
1026.865385,0.049318,0.001000,0.001000,0.001000,0.001000,0.001000
1026.884615,0.049109,0.001000,0.001000,0.001000,0.001000,0.001000
1026.903846,0.048873,0.001000,0.001000,0.001000,0.001000,0.001000
1026.923077,0.048608,0.001000,0.001000,0.001000,0.001000,0.001000
1026.942308,0.048317,0.001000,0.001000,0.001000,0.001000,0.001000
1026.961538,0.047998,0.001000,0.001000,0.001000,0.001000,0.001000
1026.980769,0.047652,0.001000,0.001000,0.001000,0.001000,0.001000
1027.000000,0.047279,0.001000,0.001000,0.001000,0.001000,0.001000
1027.019231,0.046880,0.001000,0.001000,0.001000,0.001000,0.001000
1027.038462,0.046454,0.001000,0.001000,0.001000,0.001000,0.001000
1027.057692,0.046002,0.001000,0.001000,0.001000,0.001000,0.001000
1027.076923,0.045524,0.001000,0.001000,0.001000,0.001000,0.001000
1027.096154,0.045021,0.001000,0.001000,0.001000,0.001000,0.001000
1027.115385,0.044492,0.001000,0.001000,0.001000,0.001000,0.001000
1027.134615,0.043938,0.001000,0.001000,0.001000,0.001000,0.001000
1027.153846,0.043360,0.001000,0.001000,0.001000,0.001000,0.001000
1027.173077,0.042756,0.001000,0.001000,0.001000,0.001000,0.001000
1027.192308,0.042129,0.001000,0.001000,0.001000,0.001000,0.001000
1027.211538,0.041479,0.001000,0.001000,0.001000,0.001000,0.001000
1027.230769,0.040804,0.001000,0.001000,0.001000,0.001000,0.001000
1027.250000,0.040107,0.001000,0.001000,0.001000,0.001000,0.001000
1027.269231,0.039387,0.001000,0.001000,0.001000,0.001000,0.001000
1027.288462,0.038646,0.001000,0.001000,0.001000,0.001000,0.001000
1027.307692,0.037882,0.001000,0.001000,0.001000,0.001000,0.001000
1027.326923,0.037097,0.001000,0.001000,0.001000,0.001000,0.001000
1027.346154,0.036291,0.001000,0.001000,0.001000,0.001000,0.001000
1027.365385,0.035465,0.001000,0.001000,0.001000,0.001000,0.001000
1027.384615,0.034618,0.001000,0.001000,0.001000,0.001000,0.001000
1027.403846,0.033752,0.001000,0.001000,0.001000,0.001000,0.001000
1027.423077,0.032868,0.001000,0.001000,0.001000,0.001000,0.001000
1027.442308,0.031964,0.001000,0.001000,0.001000,0.001000,0.001000
1027.461538,0.031043,0.001000,0.001000,0.001000,0.001000,0.001000
1027.480769,0.030104,0.001000,0.001000,0.001000,0.001000,0.001000
1027.500000,0.029148,0.001000,0.001000,0.001000,0.001000,0.001000
1027.519231,0.028176,0.001000,0.001000,0.001000,0.001000,0.001000
1027.538462,0.027188,0.001000,0.001000,0.001000,0.001000,0.001000
1027.557692,0.026185,0.001000,0.001000,0.001000,0.001000,0.001000
1027.576923,0.025167,0.001000,0.001000,0.001000,0.001000,0.001000
1027.596154,0.024134,0.001000,0.001000,0.001000,0.001000,0.001000
1027.615385,0.023089,0.001000,0.001000,0.001000,0.001000,0.001000
1027.634615,0.022030,0.001000,0.001000,0.001000,0.001000,0.001000
1027.653846,0.020958,0.001000,0.001000,0.001000,0.001000,0.001000
1027.673077,0.019875,0.001000,0.001000,0.001000,0.001000,0.001000
1027.692308,0.018781,0.001000,0.001000,0.001000,0.001000,0.001000
1027.711538,0.017676,0.001000,0.001000,0.001000,0.001000,0.001000
1027.730769,0.016561,0.001000,0.001000,0.001000,0.001000,0.001000
1027.750000,0.015437,0.001000,0.001000,0.001000,0.001000,0.001000
1027.769231,0.014305,0.001000,0.001000,0.001000,0.001000,0.001000
1027.788462,0.013164,0.001000,0.001000,0.001000,0.001000,0.001000
1027.807692,0.012015,0.001000,0.001000,0.001000,0.001000,0.001000
1027.826923,0.010860,0.001000,0.001000,0.001000,0.001000,0.001000
1027.846154,0.009699,0.001000,0.001000,0.001000,0.001000,0.001000
1027.865385,0.008533,0.001000,0.001000,0.001000,0.001000,0.001000
1027.884615,0.007361,0.001000,0.001000,0.001000,0.001000,0.001000
1027.903846,0.006186,0.001000,0.001000,0.001000,0.001000,0.001000
1027.923077,0.005006,0.001000,0.001000,0.001000,0.001000,0.001000
1027.942308,0.003825,0.001000,0.001000,0.001000,0.001000,0.001000
1027.961538,0.002641,0.001000,0.001000,0.001000,0.001000,0.001000
1027.980769,0.001455,0.001000,0.001000,0.001000,0.001000,0.001000
1028.000000,0.000269,0.001000,0.001000,0.001000,0.001000,0.001000
1028.019231,-0.000918,0.001000,0.001000,0.001000,0.001000,0.001000
1028.038462,-0.002104,0.001000,0.001000,0.001000,0.001000,0.001000
1028.057692,-0.003289,0.001000,0.001000,0.001000,0.001000,0.001000
1028.076923,-0.004472,0.001000,0.001000,0.001000,0.001000,0.001000
1028.096154,-0.005652,0.001000,0.001000,0.001000,0.001000,0.001000
1028.115385,-0.006829,0.001000,0.001000,0.001000,0.001000,0.001000
1028.134615,-0.008003,0.001000,0.001000,0.001000,0.001000,0.001000
1028.153846,-0.009171,0.001000,0.001000,0.001000,0.001000,0.001000
1028.173077,-0.010335,0.001000,0.001000,0.001000,0.001000,0.001000
1028.192308,-0.011493,0.001000,0.001000,0.001000,0.001000,0.001000
1028.211538,-0.012644,0.001000,0.001000,0.001000,0.001000,0.001000
1028.230769,-0.013789,0.001000,0.001000,0.001000,0.001000,0.001000
1028.250000,-0.014925,0.001000,0.001000,0.001000,0.001000,0.001000
1028.269231,-0.016053,0.001000,0.001000,0.001000,0.001000,0.001000
1028.288462,-0.017173,0.001000,0.001000,0.001000,0.001000,0.001000
1028.307692,-0.018282,0.001000,0.001000,0.001000,0.001000,0.001000
1028.326923,-0.019381,0.001000,0.001000,0.001000,0.001000,0.001000
1028.346154,-0.020469,0.001000,0.001000,0.001000,0.001000,0.001000
1028.365385,-0.021546,0.001000,0.001000,0.001000,0.001000,0.001000
1028.384615,-0.022611,0.001000,0.001000,0.001000,0.001000,0.001000
1028.403846,-0.023662,0.001000,0.001000,0.001000,0.001000,0.001000
1028.423077,-0.024701,0.001000,0.001000,0.001000,0.001000,0.001000
1028.442308,-0.025726,0.001000,0.001000,0.001000,0.001000,0.001000
1028.461538,-0.026736,0.001000,0.001000,0.001000,0.001000,0.001000
1028.480769,-0.027731,0.001000,0.001000,0.001000,0.001000,0.001000
1028.500000,-0.028710,0.001000,0.001000,0.001000,0.001000,0.001000
1028.519231,-0.029673,0.001000,0.001000,0.001000,0.001000,0.001000
1028.538462,-0.030620,0.001000,0.001000,0.001000,0.001000,0.001000
1028.557692,-0.031549,0.001000,0.001000,0.001000,0.001000,0.001000
1028.576923,-0.032461,0.001000,0.001000,0.001000,0.001000,0.001000
1028.596154,-0.033354,0.001000,0.001000,0.001000,0.001000,0.001000
1028.615385,-0.034229,0.001000,0.001000,0.001000,0.001000,0.001000
1028.634615,-0.035084,0.001000,0.001000,0.001000,0.001000,0.001000
1028.653846,-0.035919,0.001000,0.001000,0.001000,0.001000,0.001000
1028.673077,-0.036734,0.001000,0.001000,0.001000,0.001000,0.001000
1028.692308,-0.037529,0.001000,0.001000,0.001000,0.001000,0.001000
1028.711538,-0.038302,0.001000,0.001000,0.001000,0.001000,0.001000
1028.730769,-0.039054,0.001000,0.001000,0.001000,0.001000,0.001000
1028.750000,-0.039784,0.001000,0.001000,0.001000,0.001000,0.001000
1028.769231,-0.040491,0.001000,0.001000,0.001000,0.001000,0.001000
1028.788462,-0.041176,0.001000,0.001000,0.001000,0.001000,0.001000
1028.807692,-0.041838,0.001000,0.001000,0.001000,0.001000,0.001000
1028.826923,-0.042475,0.001000,0.001000,0.001000,0.001000,0.001000
1028.846154,-0.043089,0.001000,0.001000,0.001000,0.001000,0.001000
1028.865385,-0.043679,0.001000,0.001000,0.001000,0.001000,0.001000
1028.884615,-0.044244,0.001000,0.001000,0.001000,0.001000,0.001000
1028.903846,-0.044784,0.001000,0.001000,0.001000,0.001000,0.001000
1028.923077,-0.045299,0.001000,0.001000,0.001000,0.001000,0.001000
1028.942308,-0.045789,0.001000,0.001000,0.001000,0.001000,0.001000
1028.961538,-0.046253,0.001000,0.001000,0.001000,0.001000,0.001000
1028.980769,-0.046690,0.001000,0.001000,0.001000,0.001000,0.001000
1029.000000,-0.047102,0.001000,0.001000,0.001000,0.001000,0.001000
1029.019231,-0.047486,0.001000,0.001000,0.001000,0.001000,0.001000
1029.038462,-0.047844,0.001000,0.001000,0.001000,0.001000,0.001000
1029.057692,-0.048176,0.001000,0.001000,0.001000,0.001000,0.001000
1029.076923,-0.048480,0.001000,0.001000,0.001000,0.001000,0.001000
1029.096154,-0.048756,0.001000,0.001000,0.001000,0.001000,0.001000
1029.115385,-0.049006,0.001000,0.001000,0.001000,0.001000,0.001000
1029.134615,-0.049227,0.001000,0.001000,0.001000,0.001000,0.001000
1029.153846,-0.049421,0.001000,0.001000,0.001000,0.001000,0.001000
1029.173077,-0.049587,0.001000,0.001000,0.001000,0.001000,0.001000
1029.192308,-0.049725,0.001000,0.001000,0.001000,0.001000,0.001000
1029.211538,-0.049836,0.001000,0.001000,0.001000,0.001000,0.001000
1029.230769,-0.049918,0.001000,0.001000,0.001000,0.001000,0.001000
1029.250000,-0.049972,0.001000,0.001000,0.001000,0.001000,0.001000
1029.269231,-0.049998,0.001000,0.001000,0.001000,0.001000,0.001000
1029.288462,-0.049995,0.001000,0.001000,0.001000,0.001000,0.001000
1029.307692,-0.049965,0.001000,0.001000,0.001000,0.001000,0.001000
1029.326923,-0.049906,0.001000,0.001000,0.001000,0.001000,0.001000
1029.346154,-0.049820,0.001000,0.001000,0.001000,0.001000,0.001000
1029.365385,-0.049705,0.001000,0.001000,0.001000,0.001000,0.001000
1029.384615,-0.049562,0.001000,0.001000,0.001000,0.001000,0.001000
1029.403846,-0.049391,0.001000,0.001000,0.001000,0.001000,0.001000
1029.423077,-0.049193,0.001000,0.001000,0.001000,0.001000,0.001000
1029.442308,-0.048967,0.001000,0.001000,0.001000,0.001000,0.001000
1029.461538,-0.048713,0.001000,0.001000,0.001000,0.001000,0.001000
1029.480769,-0.048432,0.001000,0.001000,0.001000,0.001000,0.001000
1029.500000,-0.048123,0.001000,0.001000,0.001000,0.001000,0.001000
1029.519231,-0.047788,0.001000,0.001000,0.001000,0.001000,0.001000
1029.538462,-0.047425,0.001000,0.001000,0.001000,0.001000,0.001000
1029.557692,-0.047036,0.001000,0.001000,0.001000,0.001000,0.001000
1029.576923,-0.046621,0.001000,0.001000,0.001000,0.001000,0.001000
1029.596154,-0.046179,0.001000,0.001000,0.001000,0.001000,0.001000
1029.615385,-0.045711,0.001000,0.001000,0.001000,0.001000,0.001000
1029.634615,-0.045217,0.001000,0.001000,0.001000,0.001000,0.001000
1029.653846,-0.044698,0.001000,0.001000,0.001000,0.001000,0.001000
1029.673077,-0.044154,0.001000,0.001000,0.001000,0.001000,0.001000
1029.692308,-0.043585,0.001000,0.001000,0.001000,0.001000,0.001000
1029.711538,-0.042991,0.001000,0.001000,0.001000,0.001000,0.001000
1029.730769,-0.042373,0.001000,0.001000,0.001000,0.001000,0.001000
1029.750000,-0.041731,0.001000,0.001000,0.001000,0.001000,0.001000
1029.769231,-0.041066,0.001000,0.001000,0.001000,0.001000,0.001000
1029.788462,-0.040378,0.001000,0.001000,0.001000,0.001000,0.001000
1029.807692,-0.039667,0.001000,0.001000,0.001000,0.001000,0.001000
1029.826923,-0.038933,0.001000,0.001000,0.001000,0.001000,0.001000
1029.846154,-0.038178,0.001000,0.001000,0.001000,0.001000,0.001000
1029.865385,-0.037401,0.001000,0.001000,0.001000,0.001000,0.001000
1029.884615,-0.036603,0.001000,0.001000,0.001000,0.001000,0.001000
1029.903846,-0.035784,0.001000,0.001000,0.001000,0.001000,0.001000
1029.923077,-0.034946,0.001000,0.001000,0.001000,0.001000,0.001000
1029.942308,-0.034087,0.001000,0.001000,0.001000,0.001000,0.001000
1029.961538,-0.033210,0.001000,0.001000,0.001000,0.001000,0.001000
1029.980769,-0.032314,0.001000,0.001000,0.001000,0.001000,0.001000
1030.000000,0.000000,0.001000,0.001000,0.001000,0.001000,0.001000
1030.019231,0.001219,0.001000,0.001000,0.001000,0.001000,0.001000
1030.038462,0.002438,0.001000,0.001000,0.001000,0.001000,0.001000
1030.057692,0.003655,0.001000,0.001000,0.001000,0.001000,0.001000
1030.076923,0.004870,0.001000,0.001000,0.001000,0.001000,0.001000
1030.096154,0.006081,0.001000,0.001000,0.001000,0.001000,0.001000
1030.115385,0.007290,0.001000,0.001000,0.001000,0.001000,0.001000
1030.134615,0.008494,0.001000,0.001000,0.001000,0.001000,0.001000
1030.153846,0.009693,0.001000,0.001000,0.001000,0.001000,0.001000
1030.173077,0.010886,0.001000,0.001000,0.001000,0.001000,0.001000
1030.192308,0.012073,0.001000,0.001000,0.001000,0.001000,0.001000
1030.211538,0.013252,0.001000,0.001000,0.001000,0.001000,0.001000
1030.230769,0.014424,0.001000,0.001000,0.001000,0.001000,0.001000
1030.250000,0.015587,0.001000,0.001000,0.001000,0.001000,0.001000
1030.269231,0.016741,0.001000,0.001000,0.001000,0.001000,0.001000
1030.288462,0.017885,0.001000,0.001000,0.001000,0.001000,0.001000
1030.307692,0.019018,0.001000,0.001000,0.001000,0.001000,0.001000
1030.326923,0.020140,0.001000,0.001000,0.001000,0.001000,0.001000
1030.346154,0.021250,0.001000,0.001000,0.001000,0.001000,0.001000
1030.365385,0.022347,0.001000,0.001000,0.001000,0.001000,0.001000
1030.384615,0.023431,0.001000,0.001000,0.001000,0.001000,0.001000
1030.403846,0.024501,0.001000,0.001000,0.001000,0.001000,0.001000
1030.423077,0.025556,0.001000,0.001000,0.001000,0.001000,0.001000
1030.442308,0.026597,0.001000,0.001000,0.001000,0.001000,0.001000
1030.461538,0.027621,0.001000,0.001000,0.001000,0.001000,0.001000
1030.480769,0.028629,0.001000,0.001000,0.001000,0.001000,0.001000
1030.500000,0.029620,0.001000,0.001000,0.001000,0.001000,0.001000
1030.519231,0.030594,0.001000,0.001000,0.001000,0.001000,0.001000
1030.538462,0.031549,0.001000,0.001000,0.001000,0.001000,0.001000
1030.557692,0.032485,0.001000,0.001000,0.001000,0.001000,0.001000
1030.576923,0.033403,0.001000,0.001000,0.001000,0.001000,0.001000
1030.596154,0.034300,0.001000,0.001000,0.001000,0.001000,0.001000
1030.615385,0.035177,0.001000,0.001000,0.001000,0.001000,0.001000
1030.634615,0.036033,0.001000,0.001000,0.001000,0.001000,0.001000
1030.653846,0.036867,0.001000,0.001000,0.001000,0.001000,0.001000
1030.673077,0.037680,0.001000,0.001000,0.001000,0.001000,0.001000
1030.692308,0.038470,0.001000,0.001000,0.001000,0.001000,0.001000
1030.711538,0.039237,0.001000,0.001000,0.001000,0.001000,0.001000
1030.730769,0.039981,0.001000,0.001000,0.001000,0.001000,0.001000
1030.750000,0.040702,0.001000,0.001000,0.001000,0.001000,0.001000
1030.769231,0.041398,0.001000,0.001000,0.001000,0.001000,0.001000
1030.788462,0.042069,0.001000,0.001000,0.001000,0.001000,0.001000
1030.807692,0.042716,0.001000,0.001000,0.001000,0.001000,0.001000
1030.826923,0.043337,0.001000,0.001000,0.001000,0.001000,0.001000
1030.846154,0.043932,0.001000,0.001000,0.001000,0.001000,0.001000
1030.865385,0.044501,0.001000,0.001000,0.001000,0.001000,0.001000
1030.884615,0.045043,0.001000,0.001000,0.001000,0.001000,0.001000
1030.903846,0.045559,0.001000,0.001000,0.001000,0.001000,0.001000
1030.923077,0.046048,0.001000,0.001000,0.001000,0.001000,0.001000
1030.942308,0.046509,0.001000,0.001000,0.001000,0.001000,0.001000
1030.961538,0.046943,0.001000,0.001000,0.001000,0.001000,0.001000
1030.980769,0.047349,0.001000,0.001000,0.001000,0.001000,0.001000
1031.000000,0.047727,0.001000,0.001000,0.001000,0.001000,0.001000
1031.019231,0.048076,0.001000,0.001000,0.001000,0.001000,0.001000
1031.038462,0.048397,0.001000,0.001000,0.001000,0.001000,0.001000
1031.057692,0.048688,0.001000,0.001000,0.001000,0.001000,0.001000
1031.076923,0.048951,0.001000,0.001000,0.001000,0.001000,0.001000
1031.096154,0.049185,0.001000,0.001000,0.001000,0.001000,0.001000
1031.115385,0.049390,0.001000,0.001000,0.001000,0.001000,0.001000
1031.134615,0.049565,0.001000,0.001000,0.001000,0.001000,0.001000
1031.153846,0.049711,0.001000,0.001000,0.001000,0.001000,0.001000
1031.173077,0.049827,0.001000,0.001000,0.001000,0.001000,0.001000
1031.192308,0.049913,0.001000,0.001000,0.001000,0.001000,0.001000
1031.211538,0.049970,0.001000,0.001000,0.001000,0.001000,0.001000
1031.230769,0.049997,0.001000,0.001000,0.001000,0.001000,0.001000
1031.250000,0.049995,0.001000,0.001000,0.001000,0.001000,0.001000
1031.269231,0.049963,0.001000,0.001000,0.001000,0.001000,0.001000
1031.288462,0.049901,0.001000,0.001000,0.001000,0.001000,0.001000
1031.307692,0.049809,0.001000,0.001000,0.001000,0.001000,0.001000
1031.326923,0.049688,0.001000,0.001000,0.001000,0.001000,0.001000
1031.346154,0.049537,0.001000,0.001000,0.001000,0.001000,0.001000
1031.365385,0.049356,0.001000,0.001000,0.001000,0.001000,0.001000
1031.384615,0.049147,0.001000,0.001000,0.001000,0.001000,0.001000
1031.403846,0.048908,0.001000,0.001000,0.001000,0.001000,0.001000
1031.423077,0.048640,0.001000,0.001000,0.001000,0.001000,0.001000
1031.442308,0.048343,0.001000,0.001000,0.001000,0.001000,0.001000
1031.461538,0.048017,0.001000,0.001000,0.001000,0.001000,0.001000
1031.480769,0.047663,0.001000,0.001000,0.001000,0.001000,0.001000
1031.500000,0.047280,0.001000,0.001000,0.001000,0.001000,0.001000
1031.519231,0.046870,0.001000,0.001000,0.001000,0.001000,0.001000
1031.538462,0.046431,0.001000,0.001000,0.001000,0.001000,0.001000
1031.557692,0.045965,0.001000,0.001000,0.001000,0.001000,0.001000
1031.576923,0.045472,0.001000,0.001000,0.001000,0.001000,0.001000
1031.596154,0.044951,0.001000,0.001000,0.001000,0.001000,0.001000
1031.615385,0.044404,0.001000,0.001000,0.001000,0.001000,0.001000
1031.634615,0.043830,0.001000,0.001000,0.001000,0.001000,0.001000
1031.653846,0.043231,0.001000,0.001000,0.001000,0.001000,0.001000
1031.673077,0.042605,0.001000,0.001000,0.001000,0.001000,0.001000
1031.692308,0.041954,0.001000,0.001000,0.001000,0.001000,0.001000
1031.711538,0.041279,0.001000,0.001000,0.001000,0.001000,0.001000
1031.730769,0.040578,0.001000,0.001000,0.001000,0.001000,0.001000
1031.750000,0.039854,0.001000,0.001000,0.001000,0.001000,0.001000
1031.769231,0.039106,0.001000,0.001000,0.001000,0.001000,0.001000
1031.788462,0.038335,0.001000,0.001000,0.001000,0.001000,0.001000
1031.807692,0.037540,0.001000,0.001000,0.001000,0.001000,0.001000
1031.826923,0.036724,0.001000,0.001000,0.001000,0.001000,0.001000
1031.846154,0.035886,0.001000,0.001000,0.001000,0.001000,0.001000
1031.865385,0.035026,0.001000,0.001000,0.001000,0.001000,0.001000
1031.884615,0.034146,0.001000,0.001000,0.001000,0.001000,0.001000
1031.903846,0.033245,0.001000,0.001000,0.001000,0.001000,0.001000
1031.923077,0.032324,0.001000,0.001000,0.001000,0.001000,0.001000
1031.942308,0.031384,0.001000,0.001000,0.001000,0.001000,0.001000
1031.961538,0.030426,0.001000,0.001000,0.001000,0.001000,0.001000
1031.980769,0.029449,0.001000,0.001000,0.001000,0.001000,0.001000
1032.000000,0.028455,0.001000,0.001000,0.001000,0.001000,0.001000
1032.019231,0.027444,0.001000,0.001000,0.001000,0.001000,0.001000
1032.038462,0.026417,0.001000,0.001000,0.001000,0.001000,0.001000
1032.057692,0.025374,0.001000,0.001000,0.001000,0.001000,0.001000
1032.076923,0.024316,0.001000,0.001000,0.001000,0.001000,0.001000
1032.096154,0.023244,0.001000,0.001000,0.001000,0.001000,0.001000
1032.115385,0.022157,0.001000,0.001000,0.001000,0.001000,0.001000
1032.134615,0.021058,0.001000,0.001000,0.001000,0.001000,0.001000
1032.153846,0.019946,0.001000,0.001000,0.001000,0.001000,0.001000
1032.173077,0.018822,0.001000,0.001000,0.001000,0.001000,0.001000
1032.192308,0.017687,0.001000,0.001000,0.001000,0.001000,0.001000
1032.211538,0.016541,0.001000,0.001000,0.001000,0.001000,0.001000
1032.230769,0.015386,0.001000,0.001000,0.001000,0.001000,0.001000
1032.250000,0.014221,0.001000,0.001000,0.001000,0.001000,0.001000
1032.269231,0.013048,0.001000,0.001000,0.001000,0.001000,0.001000
1032.288462,0.011867,0.001000,0.001000,0.001000,0.001000,0.001000
1032.307692,0.010679,0.001000,0.001000,0.001000,0.001000,0.001000
1032.326923,0.009485,0.001000,0.001000,0.001000,0.001000,0.001000
1032.346154,0.008285,0.001000,0.001000,0.001000,0.001000,0.001000
1032.365385,0.007080,0.001000,0.001000,0.001000,0.001000,0.001000
1032.384615,0.005871,0.001000,0.001000,0.001000,0.001000,0.001000
1032.403846,0.004659,0.001000,0.001000,0.001000,0.001000,0.001000
1032.423077,0.003443,0.001000,0.001000,0.001000,0.001000,0.001000
1032.442308,0.002226,0.001000,0.001000,0.001000,0.001000,0.001000
1032.461538,0.001007,0.001000,0.001000,0.001000,0.001000,0.001000
1032.480769,-0.000212,0.001000,0.001000,0.001000,0.001000,0.001000
1032.500000,-0.001431,0.001000,0.001000,0.001000,0.001000,0.001000
1032.519231,-0.002649,0.001000,0.001000,0.001000,0.001000,0.001000
1032.538462,-0.003866,0.001000,0.001000,0.001000,0.001000,0.001000
1032.557692,-0.005080,0.001000,0.001000,0.001000,0.001000,0.001000
1032.576923,-0.006292,0.001000,0.001000,0.001000,0.001000,0.001000
1032.596154,-0.007499,0.001000,0.001000,0.001000,0.001000,0.001000
1032.615385,-0.008702,0.001000,0.001000,0.001000,0.001000,0.001000
1032.634615,-0.009900,0.001000,0.001000,0.001000,0.001000,0.001000
1032.653846,-0.011093,0.001000,0.001000,0.001000,0.001000,0.001000
1032.673077,-0.012278,0.001000,0.001000,0.001000,0.001000,0.001000
1032.692308,-0.013456,0.001000,0.001000,0.001000,0.001000,0.001000
1032.711538,-0.014626,0.001000,0.001000,0.001000,0.001000,0.001000
1032.730769,-0.015788,0.001000,0.001000,0.001000,0.001000,0.001000
1032.750000,-0.016940,0.001000,0.001000,0.001000,0.001000,0.001000
1032.769231,-0.018082,0.001000,0.001000,0.001000,0.001000,0.001000
1032.788462,-0.019213,0.001000,0.001000,0.001000,0.001000,0.001000
1032.807692,-0.020333,0.001000,0.001000,0.001000,0.001000,0.001000
1032.826923,-0.021441,0.001000,0.001000,0.001000,0.001000,0.001000
1032.846154,-0.022536,0.001000,0.001000,0.001000,0.001000,0.001000
1032.865385,-0.023618,0.001000,0.001000,0.001000,0.001000,0.001000
1032.884615,-0.024685,0.001000,0.001000,0.001000,0.001000,0.001000
1032.903846,-0.025738,0.001000,0.001000,0.001000,0.001000,0.001000
1032.923077,-0.026776,0.001000,0.001000,0.001000,0.001000,0.001000
1032.942308,-0.027798,0.001000,0.001000,0.001000,0.001000,0.001000
1032.961538,-0.028803,0.001000,0.001000,0.001000,0.001000,0.001000
1032.980769,-0.029791,0.001000,0.001000,0.001000,0.001000,0.001000
1033.000000,-0.030761,0.001000,0.001000,0.001000,0.001000,0.001000
1033.019231,-0.031713,0.001000,0.001000,0.001000,0.001000,0.001000
1033.038462,-0.032646,0.001000,0.001000,0.001000,0.001000,0.001000
1033.057692,-0.033560,0.001000,0.001000,0.001000,0.001000,0.001000
1033.076923,-0.034454,0.001000,0.001000,0.001000,0.001000,0.001000
1033.096154,-0.035327,0.001000,0.001000,0.001000,0.001000,0.001000
1033.115385,-0.036179,0.001000,0.001000,0.001000,0.001000,0.001000
1033.134615,-0.037010,0.001000,0.001000,0.001000,0.001000,0.001000
1033.153846,-0.037819,0.001000,0.001000,0.001000,0.001000,0.001000
1033.173077,-0.038605,0.001000,0.001000,0.001000,0.001000,0.001000
1033.192308,-0.039368,0.001000,0.001000,0.001000,0.001000,0.001000
1033.211538,-0.040108,0.001000,0.001000,0.001000,0.001000,0.001000
1033.230769,-0.040824,0.001000,0.001000,0.001000,0.001000,0.001000
1033.250000,-0.041516,0.001000,0.001000,0.001000,0.001000,0.001000
1033.269231,-0.042183,0.001000,0.001000,0.001000,0.001000,0.001000
1033.288462,-0.042825,0.001000,0.001000,0.001000,0.001000,0.001000
1033.307692,-0.043442,0.001000,0.001000,0.001000,0.001000,0.001000
1033.326923,-0.044032,0.001000,0.001000,0.001000,0.001000,0.001000
1033.346154,-0.044597,0.001000,0.001000,0.001000,0.001000,0.001000
1033.365385,-0.045135,0.001000,0.001000,0.001000,0.001000,0.001000
1033.384615,-0.045646,0.001000,0.001000,0.001000,0.001000,0.001000
1033.403846,-0.046130,0.001000,0.001000,0.001000,0.001000,0.001000
1033.423077,-0.046587,0.001000,0.001000,0.001000,0.001000,0.001000
1033.442308,-0.047016,0.001000,0.001000,0.001000,0.001000,0.001000
1033.461538,-0.047417,0.001000,0.001000,0.001000,0.001000,0.001000
1033.480769,-0.047789,0.001000,0.001000,0.001000,0.001000,0.001000
1033.500000,-0.048134,0.001000,0.001000,0.001000,0.001000,0.001000
1033.519231,-0.048449,0.001000,0.001000,0.001000,0.001000,0.001000
1033.538462,-0.048736,0.001000,0.001000,0.001000,0.001000,0.001000
1033.557692,-0.048994,0.001000,0.001000,0.001000,0.001000,0.001000
1033.576923,-0.049223,0.001000,0.001000,0.001000,0.001000,0.001000
1033.596154,-0.049422,0.001000,0.001000,0.001000,0.001000,0.001000
1033.615385,-0.049592,0.001000,0.001000,0.001000,0.001000,0.001000
1033.634615,-0.049733,0.001000,0.001000,0.001000,0.001000,0.001000
1033.653846,-0.049844,0.001000,0.001000,0.001000,0.001000,0.001000
1033.673077,-0.049925,0.001000,0.001000,0.001000,0.001000,0.001000
1033.692308,-0.049977,0.001000,0.001000,0.001000,0.001000,0.001000
1033.711538,-0.049999,0.001000,0.001000,0.001000,0.001000,0.001000
1033.730769,-0.049991,0.001000,0.001000,0.001000,0.001000,0.001000
1033.750000,-0.049954,0.001000,0.001000,0.001000,0.001000,0.001000
1033.769231,-0.049887,0.001000,0.001000,0.001000,0.001000,0.001000
1033.788462,-0.049790,0.001000,0.001000,0.001000,0.001000,0.001000
1033.807692,-0.049663,0.001000,0.001000,0.001000,0.001000,0.001000
1033.826923,-0.049507,0.001000,0.001000,0.001000,0.001000,0.001000
1033.846154,-0.049322,0.001000,0.001000,0.001000,0.001000,0.001000
1033.865385,-0.049107,0.001000,0.001000,0.001000,0.001000,0.001000
1033.884615,-0.048863,0.001000,0.001000,0.001000,0.001000,0.001000
1033.903846,-0.048590,0.001000,0.001000,0.001000,0.001000,0.001000
1033.923077,-0.048288,0.001000,0.001000,0.001000,0.001000,0.001000
1033.942308,-0.047958,0.001000,0.001000,0.001000,0.001000,0.001000
1033.961538,-0.047599,0.001000,0.001000,0.001000,0.001000,0.001000
1033.980769,-0.047211,0.001000,0.001000,0.001000,0.001000,0.001000
1034.000000,-0.046796,0.001000,0.001000,0.001000,0.001000,0.001000
1034.019231,-0.046352,0.001000,0.001000,0.001000,0.001000,0.001000
1034.038462,-0.045881,0.001000,0.001000,0.001000,0.001000,0.001000
1034.057692,-0.045383,0.001000,0.001000,0.001000,0.001000,0.001000
1034.076923,-0.044858,0.001000,0.001000,0.001000,0.001000,0.001000
1034.096154,-0.044306,0.001000,0.001000,0.001000,0.001000,0.001000
1034.115385,-0.043728,0.001000,0.001000,0.001000,0.001000,0.001000
1034.134615,-0.043124,0.001000,0.001000,0.001000,0.001000,0.001000
1034.153846,-0.042494,0.001000,0.001000,0.001000,0.001000,0.001000
1034.173077,-0.041839,0.001000,0.001000,0.001000,0.001000,0.001000
1034.192308,-0.041159,0.001000,0.001000,0.001000,0.001000,0.001000
1034.211538,-0.040454,0.001000,0.001000,0.001000,0.001000,0.001000
1034.230769,-0.039726,0.001000,0.001000,0.001000,0.001000,0.001000
1034.250000,-0.038974,0.001000,0.001000,0.001000,0.001000,0.001000
1034.269231,-0.038198,0.001000,0.001000,0.001000,0.001000,0.001000
1034.288462,-0.037400,0.001000,0.001000,0.001000,0.001000,0.001000
1034.307692,-0.036580,0.001000,0.001000,0.001000,0.001000,0.001000
1034.326923,-0.035738,0.001000,0.001000,0.001000,0.001000,0.001000
1034.346154,-0.034875,0.001000,0.001000,0.001000,0.001000,0.001000
1034.365385,-0.033991,0.001000,0.001000,0.001000,0.001000,0.001000
1034.384615,-0.033086,0.001000,0.001000,0.001000,0.001000,0.001000
1034.403846,-0.032162,0.001000,0.001000,0.001000,0.001000,0.001000
1034.423077,-0.031219,0.001000,0.001000,0.001000,0.001000,0.001000
1034.442308,-0.030258,0.001000,0.001000,0.001000,0.001000,0.001000
1034.461538,-0.029278,0.001000,0.001000,0.001000,0.001000,0.001000
1034.480769,-0.028281,0.001000,0.001000,0.001000,0.001000,0.001000
1034.500000,-0.027267,0.001000,0.001000,0.001000,0.001000,0.001000
1034.519231,-0.026237,0.001000,0.001000,0.001000,0.001000,0.001000
1034.538462,-0.025192,0.001000,0.001000,0.001000,0.001000,0.001000
1034.557692,-0.024131,0.001000,0.001000,0.001000,0.001000,0.001000
1034.576923,-0.023056,0.001000,0.001000,0.001000,0.001000,0.001000
1034.596154,-0.021967,0.001000,0.001000,0.001000,0.001000,0.001000
1034.615385,-0.020865,0.001000,0.001000,0.001000,0.001000,0.001000
1034.634615,-0.019751,0.001000,0.001000,0.001000,0.001000,0.001000
1034.653846,-0.018625,0.001000,0.001000,0.001000,0.001000,0.001000
1034.673077,-0.017488,0.001000,0.001000,0.001000,0.001000,0.001000
