timestamp,ax,ay,az,gx,gy,gz
1000.000000,0.000000,0.001000,0.001000,0.001000,0.001000,0.001000
1000.019231,0.001107,0.001000,0.001000,0.001000,0.001000,0.001000
1000.038462,0.002213,0.001000,0.001000,0.001000,0.001000,0.001000
1000.057692,0.003319,0.001000,0.001000,0.001000,0.001000,0.001000
1000.076923,0.004422,0.001000,0.001000,0.001000,0.001000,0.001000
1000.096154,0.005524,0.001000,0.001000,0.001000,0.001000,0.001000
1000.115385,0.006623,0.001000,0.001000,0.001000,0.001000,0.001000
1000.134615,0.007718,0.001000,0.001000,0.001000,0.001000,0.001000
1000.153846,0.008810,0.001000,0.001000,0.001000,0.001000,0.001000
1000.173077,0.009897,0.001000,0.001000,0.001000,0.001000,0.001000
1000.192308,0.010980,0.001000,0.001000,0.001000,0.001000,0.001000
1000.211538,0.012057,0.001000,0.001000,0.001000,0.001000,0.001000
1000.230769,0.013128,0.001000,0.001000,0.001000,0.001000,0.001000
1000.250000,0.014193,0.001000,0.001000,0.001000,0.001000,0.001000
1000.269231,0.015251,0.001000,0.001000,0.001000,0.001000,0.001000
1000.288462,0.016302,0.001000,0.001000,0.001000,0.001000,0.001000
1000.307692,0.017344,0.001000,0.001000,0.001000,0.001000,0.001000
1000.326923,0.018378,0.001000,0.001000,0.001000,0.001000,0.001000
1000.346154,0.019403,0.001000,0.001000,0.001000,0.001000,0.001000
1000.365385,0.020418,0.001000,0.001000,0.001000,0.001000,0.001000
1000.384615,0.021424,0.001000,0.001000,0.001000,0.001000,0.001000
1000.403846,0.022419,0.001000,0.001000,0.001000,0.001000,0.001000
1000.423077,0.023403,0.001000,0.001000,0.001000,0.001000,0.001000
1000.442308,0.024375,0.001000,0.001000,0.001000,0.001000,0.001000
1000.461538,0.025336,0.001000,0.001000,0.001000,0.001000,0.001000
1000.480769,0.026284,0.001000,0.001000,0.001000,0.001000,0.001000
1000.500000,0.027219,0.001000,0.001000,0.001000,0.001000,0.001000
1000.519231,0.028141,0.001000,0.001000,0.001000,0.001000,0.001000
1000.538462,0.029049,0.001000,0.001000,0.001000,0.001000,0.001000
1000.557692,0.029943,0.001000,0.001000,0.001000,0.001000,0.001000
1000.576923,0.030822,0.001000,0.001000,0.001000,0.001000,0.001000
1000.596154,0.031686,0.001000,0.001000,0.001000,0.001000,0.001000
1000.615385,0.032534,0.001000,0.001000,0.001000,0.001000,0.001000
1000.634615,0.033367,0.001000,0.001000,0.001000,0.001000,0.001000
1000.653846,0.034183,0.001000,0.001000,0.001000,0.001000,0.001000
1000.673077,0.034983,0.001000,0.001000,0.001000,0.001000,0.001000
1000.692308,0.035765,0.001000,0.001000,0.001000,0.001000,0.001000
1000.711538,0.036530,0.001000,0.001000,0.001000,0.001000,0.001000
1000.730769,0.037276,0.001000,0.001000,0.001000,0.001000,0.001000
1000.750000,0.038005,0.001000,0.001000,0.001000,0.001000,0.001000
1000.769231,0.038715,0.001000,0.001000,0.001000,0.001000,0.001000
1000.788462,0.039406,0.001000,0.001000,0.001000,0.001000,0.001000
1000.807692,0.040078,0.001000,0.001000,0.001000,0.001000,0.001000
1000.826923,0.040730,0.001000,0.001000,0.001000,0.001000,0.001000
1000.846154,0.041362,0.001000,0.001000,0.001000,0.001000,0.001000
1000.865385,0.041974,0.001000,0.001000,0.001000,0.001000,0.001000
1000.884615,0.042565,0.001000,0.001000,0.001000,0.001000,0.001000
1000.903846,0.043135,0.001000,0.001000,0.001000,0.001000,0.001000
1000.923077,0.043684,0.001000,0.001000,0.001000,0.001000,0.001000
1000.942308,0.044212,0.001000,0.001000,0.001000,0.001000,0.001000
1000.961538,0.044718,0.001000,0.001000,0.001000,0.001000,0.001000
1000.980769,0.045203,0.001000,0.001000,0.001000,0.001000,0.001000
1001.000000,0.045665,0.001000,0.001000,0.001000,0.001000,0.001000
1001.019231,0.046104,0.001000,0.001000,0.001000,0.001000,0.001000
1001.038462,0.046521,0.001000,0.001000,0.001000,0.001000,0.001000
1001.057692,0.046916,0.001000,0.001000,0.001000,0.001000,0.001000
1001.076923,0.047287,0.001000,0.001000,0.001000,0.001000,0.001000
1001.096154,0.047635,0.001000,0.001000,0.001000,0.001000,0.001000
1001.115385,0.047960,0.001000,0.001000,0.001000,0.001000,0.001000
1001.134615,0.048261,0.001000,0.001000,0.001000,0.001000,0.001000
1001.153846,0.048538,0.001000,0.001000,0.001000,0.001000,0.001000
1001.173077,0.048792,0.001000,0.001000,0.001000,0.001000,0.001000
1001.192308,0.049022,0.001000,0.001000,0.001000,0.001000,0.001000
1001.211538,0.049228,0.001000,0.001000,0.001000,0.001000,0.001000
1001.230769,0.049410,0.001000,0.001000,0.001000,0.001000,0.001000
1001.250000,0.049567,0.001000,0.001000,0.001000,0.001000,0.001000
1001.269231,0.049700,0.001000,0.001000,0.001000,0.001000,0.001000
1001.288462,0.049809,0.001000,0.001000,0.001000,0.001000,0.001000
1001.307692,0.049894,0.001000,0.001000,0.001000,0.001000,0.001000
1001.326923,0.049954,0.001000,0.001000,0.001000,0.001000,0.001000
1001.346154,0.049989,0.001000,0.001000,0.001000,0.001000,0.001000
1001.365385,0.050000,0.001000,0.001000,0.001000,0.001000,0.001000
1001.384615,0.049986,0.001000,0.001000,0.001000,0.001000,0.001000
1001.403846,0.049948,0.001000,0.001000,0.001000,0.001000,0.001000
1001.423077,0.049886,0.001000,0.001000,0.001000,0.001000,0.001000
1001.442308,0.049799,0.001000,0.001000,0.001000,0.001000,0.001000
1001.461538,0.049687,0.001000,0.001000,0.001000,0.001000,0.001000
1001.480769,0.049552,0.001000,0.001000,0.001000,0.001000,0.001000
1001.500000,0.049392,0.001000,0.001000,0.001000,0.001000,0.001000
1001.519231,0.049207,0.001000,0.001000,0.001000,0.001000,0.001000
1001.538462,0.048999,0.001000,0.001000,0.001000,0.001000,0.001000
1001.557692,0.048767,0.001000,0.001000,0.001000,0.001000,0.001000
1001.576923,0.048510,0.001000,0.001000,0.001000,0.001000,0.001000
1001.596154,0.048230,0.001000,0.001000,0.001000,0.001000,0.001000
1001.615385,0.047927,0.001000,0.001000,0.001000,0.001000,0.001000
1001.634615,0.047599,0.001000,0.001000,0.001000,0.001000,0.001000
1001.653846,0.047249,0.001000,0.001000,0.001000,0.001000,0.001000
1001.673077,0.046875,0.001000,0.001000,0.001000,0.001000,0.001000
1001.692308,0.046479,0.001000,0.001000,0.001000,0.001000,0.001000
1001.711538,0.046059,0.001000,0.001000,0.001000,0.001000,0.001000
1001.730769,0.045617,0.001000,0.001000,0.001000,0.001000,0.001000
1001.750000,0.045153,0.001000,0.001000,0.001000,0.001000,0.001000
1001.769231,0.044666,0.001000,0.001000,0.001000,0.001000,0.001000
1001.788462,0.044158,0.001000,0.001000,0.001000,0.001000,0.001000
1001.807692,0.043628,0.001000,0.001000,0.001000,0.001000,0.001000
1001.826923,0.043076,0.001000,0.001000,0.001000,0.001000,0.001000
1001.846154,0.042504,0.001000,0.001000,0.001000,0.001000,0.001000
1001.865385,0.041910,0.001000,0.001000,0.001000,0.001000,0.001000
1001.884615,0.041296,0.001000,0.001000,0.001000,0.001000,0.001000
1001.903846,0.040662,0.001000,0.001000,0.001000,0.001000,0.001000
1001.923077,0.040008,0.001000,0.001000,0.001000,0.001000,0.001000
1001.942308,0.039334,0.001000,0.001000,0.001000,0.001000,0.001000
1001.961538,0.038641,0.001000,0.001000,0.001000,0.001000,0.001000
1001.980769,0.037930,0.001000,0.001000,0.001000,0.001000,0.001000
1002.000000,0.037199,0.001000,0.001000,0.001000,0.001000,0.001000
1002.019231,0.036450,0.001000,0.001000,0.001000,0.001000,0.001000
1002.038462,0.035684,0.001000,0.001000,0.001000,0.001000,0.001000
1002.057692,0.034899,0.001000,0.001000,0.001000,0.001000,0.001000
1002.076923,0.034098,0.001000,0.001000,0.001000,0.001000,0.001000
1002.096154,0.033280,0.001000,0.001000,0.001000,0.001000,0.001000
1002.115385,0.032446,0.001000,0.001000,0.001000,0.001000,0.001000
1002.134615,0.031596,0.001000,0.001000,0.001000,0.001000,0.001000
1002.153846,0.030730,0.001000,0.001000,0.001000,0.001000,0.001000
1002.173077,0.029850,0.001000,0.001000,0.001000,0.001000,0.001000
1002.192308,0.028954,0.001000,0.001000,0.001000,0.001000,0.001000
1002.211538,0.028045,0.001000,0.001000,0.001000,0.001000,0.001000
1002.230769,0.027121,0.001000,0.001000,0.001000,0.001000,0.001000
1002.250000,0.026185,0.001000,0.001000,0.001000,0.001000,0.001000
1002.269231,0.025235,0.001000,0.001000,0.001000,0.001000,0.001000
1002.288462,0.024274,0.001000,0.001000,0.001000,0.001000,0.001000
1002.307692,0.023300,0.001000,0.001000,0.001000,0.001000,0.001000
1002.326923,0.022315,0.001000,0.001000,0.001000,0.001000,0.001000
1002.346154,0.021319,0.001000,0.001000,0.001000,0.001000,0.001000
1002.365385,0.020312,0.001000,0.001000,0.001000,0.001000,0.001000
1002.384615,0.019296,0.001000,0.001000,0.001000,0.001000,0.001000
1002.403846,0.018270,0.001000,0.001000,0.001000,0.001000,0.001000
1002.423077,0.017235,0.001000,0.001000,0.001000,0.001000,0.001000
1002.442308,0.016192,0.001000,0.001000,0.001000,0.001000,0.001000
1002.461538,0.015141,0.001000,0.001000,0.001000,0.001000,0.001000
1002.480769,0.014082,0.001000,0.001000,0.001000,0.001000,0.001000
1002.500000,0.013016,0.001000,0.001000,0.001000,0.001000,0.001000
1002.519231,0.011944,0.001000,0.001000,0.001000,0.001000,0.001000
1002.538462,0.010867,0.001000,0.001000,0.001000,0.001000,0.001000
1002.557692,0.009783,0.001000,0.001000,0.001000,0.001000,0.001000
1002.576923,0.008696,0.001000,0.001000,0.001000,0.001000,0.001000
1002.596154,0.007603,0.001000,0.001000,0.001000,0.001000,0.001000
1002.615385,0.006507,0.001000,0.001000,0.001000,0.001000,0.001000
1002.634615,0.005408,0.001000,0.001000,0.001000,0.001000,0.001000
1002.653846,0.004307,0.001000,0.001000,0.001000,0.001000,0.001000
1002.673077,0.003203,0.001000,0.001000,0.001000,0.001000,0.001000
1002.692308,0.002097,0.001000,0.001000,0.001000,0.001000,0.001000
1002.711538,0.000991,0.001000,0.001000,0.001000,0.001000,0.001000
1002.730769,-0.000116,0.001000,0.001000,0.001000,0.001000,0.001000
1002.750000,-0.001223,0.001000,0.001000,0.001000,0.001000,0.001000
1002.769231,-0.002329,0.001000,0.001000,0.001000,0.001000,0.001000
1002.788462,-0.003434,0.001000,0.001000,0.001000,0.001000,0.001000
1002.807692,-0.004538,0.001000,0.001000,0.001000,0.001000,0.001000
1002.826923,-0.005639,0.001000,0.001000,0.001000,0.001000,0.001000
1002.846154,-0.006738,0.001000,0.001000,0.001000,0.001000,0.001000
1002.865385,-0.007833,0.001000,0.001000,0.001000,0.001000,0.001000
1002.884615,-0.008924,0.001000,0.001000,0.001000,0.001000,0.001000
1002.903846,-0.010011,0.001000,0.001000,0.001000,0.001000,0.001000
1002.923077,-0.011093,0.001000,0.001000,0.001000,0.001000,0.001000
1002.942308,-0.012170,0.001000,0.001000,0.001000,0.001000,0.001000
1002.961538,-0.013240,0.001000,0.001000,0.001000,0.001000,0.001000
1002.980769,-0.014305,0.001000,0.001000,0.001000,0.001000,0.001000
1003.000000,-0.015362,0.001000,0.001000,0.001000,0.001000,0.001000
1003.019231,-0.016411,0.001000,0.001000,0.001000,0.001000,0.001000
1003.038462,-0.017453,0.001000,0.001000,0.001000,0.001000,0.001000
1003.057692,-0.018486,0.001000,0.001000,0.001000,0.001000,0.001000
1003.076923,-0.019510,0.001000,0.001000,0.001000,0.001000,0.001000
1003.096154,-0.020524,0.001000,0.001000,0.001000,0.001000,0.001000
1003.115385,-0.021529,0.001000,0.001000,0.001000,0.001000,0.001000
1003.134615,-0.022522,0.001000,0.001000,0.001000,0.001000,0.001000
1003.153846,-0.023505,0.001000,0.001000,0.001000,0.001000,0.001000
1003.173077,-0.024476,0.001000,0.001000,0.001000,0.001000,0.001000
1003.192308,-0.025436,0.001000,0.001000,0.001000,0.001000,0.001000
1003.211538,-0.026382,0.001000,0.001000,0.001000,0.001000,0.001000
1003.230769,-0.027316,0.001000,0.001000,0.001000,0.001000,0.001000
1003.250000,-0.028237,0.001000,0.001000,0.001000,0.001000,0.001000
1003.269231,-0.029143,0.001000,0.001000,0.001000,0.001000,0.001000
1003.288462,-0.030036,0.001000,0.001000,0.001000,0.001000,0.001000
1003.307692,-0.030913,0.001000,0.001000,0.001000,0.001000,0.001000
1003.326923,-0.031776,0.001000,0.001000,0.001000,0.001000,0.001000
1003.346154,-0.032622,0.001000,0.001000,0.001000,0.001000,0.001000
1003.365385,-0.033453,0.001000,0.001000,0.001000,0.001000,0.001000
1003.384615,-0.034268,0.001000,0.001000,0.001000,0.001000,0.001000
1003.403846,-0.035065,0.001000,0.001000,0.001000,0.001000,0.001000
1003.423077,-0.035846,0.001000,0.001000,0.001000,0.001000,0.001000
1003.442308,-0.036609,0.001000,0.001000,0.001000,0.001000,0.001000
1003.461538,-0.037354,0.001000,0.001000,0.001000,0.001000,0.001000
1003.480769,-0.038080,0.001000,0.001000,0.001000,0.001000,0.001000
1003.500000,-0.038788,0.001000,0.001000,0.001000,0.001000,0.001000
1003.519231,-0.039477,0.001000,0.001000,0.001000,0.001000,0.001000
1003.538462,-0.040147,0.001000,0.001000,0.001000,0.001000,0.001000
1003.557692,-0.040797,0.001000,0.001000,0.001000,0.001000,0.001000
1003.576923,-0.041427,0.001000,0.001000,0.001000,0.001000,0.001000
1003.596154,-0.042037,0.001000,0.001000,0.001000,0.001000,0.001000
1003.615385,-0.042626,0.001000,0.001000,0.001000,0.001000,0.001000
1003.634615,-0.043194,0.001000,0.001000,0.001000,0.001000,0.001000
1003.653846,-0.043741,0.001000,0.001000,0.001000,0.001000,0.001000
1003.673077,-0.044266,0.001000,0.001000,0.001000,0.001000,0.001000
1003.692308,-0.044770,0.001000,0.001000,0.001000,0.001000,0.001000
1003.711538,-0.045252,0.001000,0.001000,0.001000,0.001000,0.001000
1003.730769,-0.045712,0.001000,0.001000,0.001000,0.001000,0.001000
1003.750000,-0.046149,0.001000,0.001000,0.001000,0.001000,0.001000
1003.769231,-0.046564,0.001000,0.001000,0.001000,0.001000,0.001000
1003.788462,-0.046956,0.001000,0.001000,0.001000,0.001000,0.001000
1003.807692,-0.047324,0.001000,0.001000,0.001000,0.001000,0.001000
1003.826923,-0.047670,0.001000,0.001000,0.001000,0.001000,0.001000
1003.846154,-0.047992,0.001000,0.001000,0.001000,0.001000,0.001000
1003.865385,-0.048291,0.001000,0.001000,0.001000,0.001000,0.001000
1003.884615,-0.048566,0.001000,0.001000,0.001000,0.001000,0.001000
1003.903846,-0.048817,0.001000,0.001000,0.001000,0.001000,0.001000
1003.923077,-0.049045,0.001000,0.001000,0.001000,0.001000,0.001000
1003.942308,-0.049248,0.001000,0.001000,0.001000,0.001000,0.001000
1003.961538,-0.049427,0.001000,0.001000,0.001000,0.001000,0.001000
1003.980769,-0.049582,0.001000,0.001000,0.001000,0.001000,0.001000
1004.000000,-0.049713,0.001000,0.001000,0.001000,0.001000,0.001000
1004.019231,-0.049819,0.001000,0.001000,0.001000,0.001000,0.001000
1004.038462,-0.049901,0.001000,0.001000,0.001000,0.001000,0.001000
1004.057692,-0.049958,0.001000,0.001000,0.001000,0.001000,0.001000
1004.076923,-0.049991,0.001000,0.001000,0.001000,0.001000,0.001000
1004.096154,-0.050000,0.001000,0.001000,0.001000,0.001000,0.001000
1004.115385,-0.049984,0.001000,0.001000,0.001000,0.001000,0.001000
1004.134615,-0.049943,0.001000,0.001000,0.001000,0.001000,0.001000
1004.153846,-0.049878,0.001000,0.001000,0.001000,0.001000,0.001000
1004.173077,-0.049788,0.001000,0.001000,0.001000,0.001000,0.001000
1004.192308,-0.049674,0.001000,0.001000,0.001000,0.001000,0.001000
1004.211538,-0.049536,0.001000,0.001000,0.001000,0.001000,0.001000
1004.230769,-0.049374,0.001000,0.001000,0.001000,0.001000,0.001000
1004.250000,-0.049187,0.001000,0.001000,0.001000,0.001000,0.001000
1004.269231,-0.048976,0.001000,0.001000,0.001000,0.001000,0.001000
1004.288462,-0.048741,0.001000,0.001000,0.001000,0.001000,0.001000
1004.307692,-0.048482,0.001000,0.001000,0.001000,0.001000,0.001000
1004.326923,-0.048200,0.001000,0.001000,0.001000,0.001000,0.001000
1004.346154,-0.047893,0.001000,0.001000,0.001000,0.001000,0.001000
1004.365385,-0.047564,0.001000,0.001000,0.001000,0.001000,0.001000
1004.384615,-0.047211,0.001000,0.001000,0.001000,0.001000,0.001000
1004.403846,-0.046835,0.001000,0.001000,0.001000,0.001000,0.001000
1004.423077,-0.046436,0.001000,0.001000,0.001000,0.001000,0.001000
1004.442308,-0.046014,0.001000,0.001000,0.001000,0.001000,0.001000
1004.461538,-0.045569,0.001000,0.001000,0.001000,0.001000,0.001000
1004.480769,-0.045103,0.001000,0.001000,0.001000,0.001000,0.001000
1004.500000,-0.044614,0.001000,0.001000,0.001000,0.001000,0.001000
1004.519231,-0.044103,0.001000,0.001000,0.001000,0.001000,0.001000
1004.538462,-0.043571,0.001000,0.001000,0.001000,0.001000,0.001000
1004.557692,-0.043017,0.001000,0.001000,0.001000,0.001000,0.001000
1004.576923,-0.042442,0.001000,0.001000,0.001000,0.001000,0.001000
1004.596154,-0.041847,0.001000,0.001000,0.001000,0.001000,0.001000
1004.615385,-0.041231,0.001000,0.001000,0.001000,0.001000,0.001000
1004.634615,-0.040595,0.001000,0.001000,0.001000,0.001000,0.001000
1004.653846,-0.039938,0.001000,0.001000,0.001000,0.001000,0.001000
1004.673077,-0.039263,0.001000,0.001000,0.001000,0.001000,0.001000
1004.692308,-0.038568,0.001000,0.001000,0.001000,0.001000,0.001000
1004.711538,-0.037854,0.001000,0.001000,0.001000,0.001000,0.001000
1004.730769,-0.037121,0.001000,0.001000,0.001000,0.001000,0.001000
1004.750000,-0.036371,0.001000,0.001000,0.001000,0.001000,0.001000
1004.769231,-0.035602,0.001000,0.001000,0.001000,0.001000,0.001000
1004.788462,-0.034816,0.001000,0.001000,0.001000,0.001000,0.001000
1004.807692,-0.034013,0.001000,0.001000,0.001000,0.001000,0.001000
1004.826923,-0.033194,0.001000,0.001000,0.001000,0.001000,0.001000
1004.846154,-0.032358,0.001000,0.001000,0.001000,0.001000,0.001000
1004.865385,-0.031506,0.001000,0.001000,0.001000,0.001000,0.001000
1004.884615,-0.030639,0.001000,0.001000,0.001000,0.001000,0.001000
1004.903846,-0.029756,0.001000,0.001000,0.001000,0.001000,0.001000
1004.923077,-0.028859,0.001000,0.001000,0.001000,0.001000,0.001000
1004.942308,-0.027948,0.001000,0.001000,0.001000,0.001000,0.001000
1004.961538,-0.027024,0.001000,0.001000,0.001000,0.001000,0.001000
1004.980769,-0.026086,0.001000,0.001000,0.001000,0.001000,0.001000
1005.000000,-0.025135,0.001000,0.001000,0.001000,0.001000,0.001000
1005.019231,-0.024172,0.001000,0.001000,0.001000,0.001000,0.001000
1005.038462,-0.023197,0.001000,0.001000,0.001000,0.001000,0.001000
1005.057692,-0.022211,0.001000,0.001000,0.001000,0.001000,0.001000
1005.076923,-0.021214,0.001000,0.001000,0.001000,0.001000,0.001000
1005.096154,-0.020206,0.001000,0.001000,0.001000,0.001000,0.001000
1005.115385,-0.019189,0.001000,0.001000,0.001000,0.001000,0.001000
1005.134615,-0.018162,0.001000,0.001000,0.001000,0.001000,0.001000
1005.153846,-0.017126,0.001000,0.001000,0.001000,0.001000,0.001000
1005.173077,-0.016082,0.001000,0.001000,0.001000,0.001000,0.001000
1005.192308,-0.015030,0.001000,0.001000,0.001000,0.001000,0.001000
1005.211538,-0.013970,0.001000,0.001000,0.001000,0.001000,0.001000
1005.230769,-0.012904,0.001000,0.001000,0.001000,0.001000,0.001000
1005.250000,-0.011832,0.001000,0.001000,0.001000,0.001000,0.001000
1005.269231,-0.010753,0.001000,0.001000,0.001000,0.001000,0.001000
1005.288462,-0.009670,0.001000,0.001000,0.001000,0.001000,0.001000
1005.307692,-0.008581,0.001000,0.001000,0.001000,0.001000,0.001000
1005.326923,-0.007489,0.001000,0.001000,0.001000,0.001000,0.001000
1005.346154,-0.006392,0.001000,0.001000,0.001000,0.001000,0.001000
1005.365385,-0.005293,0.001000,0.001000,0.001000,0.001000,0.001000
1005.384615,-0.004191,0.001000,0.001000,0.001000,0.001000,0.001000
1005.403846,-0.003087,0.001000,0.001000,0.001000,0.001000,0.001000
1005.423077,-0.001981,0.001000,0.001000,0.001000,0.001000,0.001000
1005.442308,-0.000875,0.001000,0.001000,0.001000,0.001000,0.001000
1005.461538,0.000232,0.001000,0.001000,0.001000,0.001000,0.001000
1005.480769,0.001339,0.001000,0.001000,0.001000,0.001000,0.001000
1005.500000,0.002445,0.001000,0.001000,0.001000,0.001000,0.001000
1005.519231,0.003550,0.001000,0.001000,0.001000,0.001000,0.001000
1005.538462,0.004654,0.001000,0.001000,0.001000,0.001000,0.001000
1005.557692,0.005755,0.001000,0.001000,0.001000,0.001000,0.001000
1005.576923,0.006853,0.001000,0.001000,0.001000,0.001000,0.001000
1005.596154,0.007948,0.001000,0.001000,0.001000,0.001000,0.001000
1005.615385,0.009038,0.001000,0.001000,0.001000,0.001000,0.001000
1005.634615,0.010125,0.001000,0.001000,0.001000,0.001000,0.001000
1005.653846,0.011206,0.001000,0.001000,0.001000,0.001000,0.001000
1005.673077,0.012282,0.001000,0.001000,0.001000,0.001000,0.001000
1005.692308,0.013352,0.001000,0.001000,0.001000,0.001000,0.001000
1005.711538,0.014416,0.001000,0.001000,0.001000,0.001000,0.001000
1005.730769,0.015472,0.001000,0.001000,0.001000,0.001000,0.001000
1005.750000,0.016521,0.001000,0.001000,0.001000,0.001000,0.001000
1005.769231,0.017562,0.001000,0.001000,0.001000,0.001000,0.001000
1005.788462,0.018594,0.001000,0.001000,0.001000,0.001000,0.001000
1005.807692,0.019617,0.001000,0.001000,0.001000,0.001000,0.001000
1005.826923,0.020630,0.001000,0.001000,0.001000,0.001000,0.001000
1005.846154,0.021633,0.001000,0.001000,0.001000,0.001000,0.001000
1005.865385,0.022626,0.001000,0.001000,0.001000,0.001000,0.001000
1005.884615,0.023608,0.001000,0.001000,0.001000,0.001000,0.001000
1005.903846,0.024578,0.001000,0.001000,0.001000,0.001000,0.001000
1005.923077,0.025536,0.001000,0.001000,0.001000,0.001000,0.001000
1005.942308,0.026481,0.001000,0.001000,0.001000,0.001000,0.001000
1005.961538,0.027413,0.001000,0.001000,0.001000,0.001000,0.001000
1005.980769,0.028332,0.001000,0.001000,0.001000,0.001000,0.001000
1006.000000,0.029238,0.001000,0.001000,0.001000,0.001000,0.001000
1006.019231,0.030128,0.001000,0.001000,0.001000,0.001000,0.001000
1006.038462,0.031004,0.001000,0.001000,0.001000,0.001000,0.001000
1006.057692,0.031865,0.001000,0.001000,0.001000,0.001000,0.001000
1006.076923,0.032710,0.001000,0.001000,0.001000,0.001000,0.001000
1006.096154,0.033540,0.001000,0.001000,0.001000,0.001000,0.001000
1006.115385,0.034352,0.001000,0.001000,0.001000,0.001000,0.001000
1006.134615,0.035148,0.001000,0.001000,0.001000,0.001000,0.001000
1006.153846,0.035927,0.001000,0.001000,0.001000,0.001000,0.001000
1006.173077,0.036688,0.001000,0.001000,0.001000,0.001000,0.001000
1006.192308,0.037431,0.001000,0.001000,0.001000,0.001000,0.001000
1006.211538,0.038156,0.001000,0.001000,0.001000,0.001000,0.001000
1006.230769,0.038862,0.001000,0.001000,0.001000,0.001000,0.001000
1006.250000,0.039549,0.001000,0.001000,0.001000,0.001000,0.001000
1006.269231,0.040216,0.001000,0.001000,0.001000,0.001000,0.001000
1006.288462,0.040864,0.001000,0.001000,0.001000,0.001000,0.001000
1006.307692,0.041492,0.001000,0.001000,0.001000,0.001000,0.001000
1006.326923,0.042099,0.001000,0.001000,0.001000,0.001000,0.001000
1006.346154,0.042686,0.001000,0.001000,0.001000,0.001000,0.001000
1006.365385,0.043252,0.001000,0.001000,0.001000,0.001000,0.001000
1006.384615,0.043797,0.001000,0.001000,0.001000,0.001000,0.001000
1006.403846,0.044320,0.001000,0.001000,0.001000,0.001000,0.001000
1006.423077,0.044822,0.001000,0.001000,0.001000,0.001000,0.001000
1006.442308,0.045301,0.001000,0.001000,0.001000,0.001000,0.001000
1006.461538,0.045759,0.001000,0.001000,0.001000,0.001000,0.001000
1006.480769,0.046194,0.001000,0.001000,0.001000,0.001000,0.001000
1006.500000,0.046606,0.001000,0.001000,0.001000,0.001000,0.001000
1006.519231,0.046995,0.001000,0.001000,0.001000,0.001000,0.001000
1006.538462,0.047362,0.001000,0.001000,0.001000,0.001000,0.001000
1006.557692,0.047705,0.001000,0.001000,0.001000,0.001000,0.001000
1006.576923,0.048025,0.001000,0.001000,0.001000,0.001000,0.001000
1006.596154,0.048321,0.001000,0.001000,0.001000,0.001000,0.001000
1006.615385,0.048594,0.001000,0.001000,0.001000,0.001000,0.001000
1006.634615,0.048842,0.001000,0.001000,0.001000,0.001000,0.001000
1006.653846,0.049067,0.001000,0.001000,0.001000,0.001000,0.001000
1006.673077,0.049268,0.001000,0.001000,0.001000,0.001000,0.001000
1006.692308,0.049445,0.001000,0.001000,0.001000,0.001000,0.001000
1006.711538,0.049597,0.001000,0.001000,0.001000,0.001000,0.001000
1006.730769,0.049725,0.001000,0.001000,0.001000,0.001000,0.001000
1006.750000,0.049829,0.001000,0.001000,0.001000,0.001000,0.001000
1006.769231,0.049908,0.001000,0.001000,0.001000,0.001000,0.001000
1006.788462,0.049963,0.001000,0.001000,0.001000,0.001000,0.001000
1006.807692,0.049993,0.001000,0.001000,0.001000,0.001000,0.001000
1006.826923,0.049999,0.001000,0.001000,0.001000,0.001000,0.001000
1006.846154,0.049980,0.001000,0.001000,0.001000,0.001000,0.001000
1006.865385,0.049937,0.001000,0.001000,0.001000,0.001000,0.001000
1006.884615,0.049870,0.001000,0.001000,0.001000,0.001000,0.001000
1006.903846,0.049778,0.001000,0.001000,0.001000,0.001000,0.001000
1006.923077,0.049661,0.001000,0.001000,0.001000,0.001000,0.001000
1006.942308,0.049520,0.001000,0.001000,0.001000,0.001000,0.001000
1006.961538,0.049355,0.001000,0.001000,0.001000,0.001000,0.001000
1006.980769,0.049166,0.001000,0.001000,0.001000,0.001000,0.001000
1007.000000,0.048952,0.001000,0.001000,0.001000,0.001000,0.001000
1007.019231,0.048715,0.001000,0.001000,0.001000,0.001000,0.001000
1007.038462,0.048454,0.001000,0.001000,0.001000,0.001000,0.001000
1007.057692,0.048169,0.001000,0.001000,0.001000,0.001000,0.001000
1007.076923,0.047860,0.001000,0.001000,0.001000,0.001000,0.001000
1007.096154,0.047528,0.001000,0.001000,0.001000,0.001000,0.001000
1007.115385,0.047172,0.001000,0.001000,0.001000,0.001000,0.001000
1007.134615,0.046794,0.001000,0.001000,0.001000,0.001000,0.001000
1007.153846,0.046392,0.001000,0.001000,0.001000,0.001000,0.001000
1007.173077,0.045968,0.001000,0.001000,0.001000,0.001000,0.001000
1007.192308,0.045522,0.001000,0.001000,0.001000,0.001000,0.001000
1007.211538,0.045053,0.001000,0.001000,0.001000,0.001000,0.001000
1007.230769,0.044561,0.001000,0.001000,0.001000,0.001000,0.001000
1007.250000,0.044048,0.001000,0.001000,0.001000,0.001000,0.001000
1007.269231,0.043514,0.001000,0.001000,0.001000,0.001000,0.001000
1007.288462,0.042958,0.001000,0.001000,0.001000,0.001000,0.001000
1007.307692,0.042381,0.001000,0.001000,0.001000,0.001000,0.001000
1007.326923,0.041783,0.001000,0.001000,0.001000,0.001000,0.001000
1007.346154,0.041165,0.001000,0.001000,0.001000,0.001000,0.001000
1007.365385,0.040527,0.001000,0.001000,0.001000,0.001000,0.001000
1007.384615,0.039868,0.001000,0.001000,0.001000,0.001000,0.001000
1007.403846,0.039191,0.001000,0.001000,0.001000,0.001000,0.001000
1007.423077,0.038494,0.001000,0.001000,0.001000,0.001000,0.001000
1007.442308,0.037778,0.001000,0.001000,0.001000,0.001000,0.001000
1007.461538,0.037043,0.001000,0.001000,0.001000,0.001000,0.001000
1007.480769,0.036291,0.001000,0.001000,0.001000,0.001000,0.001000
1007.500000,0.035521,0.001000,0.001000,0.001000,0.001000,0.001000
1007.519231,0.034733,0.001000,0.001000,0.001000,0.001000,0.001000
1007.538462,0.033928,0.001000,0.001000,0.001000,0.001000,0.001000
1007.557692,0.033107,0.001000,0.001000,0.001000,0.001000,0.001000
1007.576923,0.032269,0.001000,0.001000,0.001000,0.001000,0.001000
1007.596154,0.031416,0.001000,0.001000,0.001000,0.001000,0.001000
1007.615385,0.030547,0.001000,0.001000,0.001000,0.001000,0.001000
1007.634615,0.029663,0.001000,0.001000,0.001000,0.001000,0.001000
1007.653846,0.028765,0.001000,0.001000,0.001000,0.001000,0.001000
1007.673077,0.027852,0.001000,0.001000,0.001000,0.001000,0.001000
1007.692308,0.026926,0.001000,0.001000,0.001000,0.001000,0.001000
1007.711538,0.025987,0.001000,0.001000,0.001000,0.001000,0.001000
1007.730769,0.025035,0.001000,0.001000,0.001000,0.001000,0.001000
1007.750000,0.024070,0.001000,0.001000,0.001000,0.001000,0.001000
1007.769231,0.023094,0.001000,0.001000,0.001000,0.001000,0.001000
1007.788462,0.022107,0.001000,0.001000,0.001000,0.001000,0.001000
1007.807692,0.021108,0.001000,0.001000,0.001000,0.001000,0.001000
1007.826923,0.020100,0.001000,0.001000,0.001000,0.001000,0.001000
1007.846154,0.019081,0.001000,0.001000,0.001000,0.001000,0.001000
1007.865385,0.018054,0.001000,0.001000,0.001000,0.001000,0.001000
1007.884615,0.017017,0.001000,0.001000,0.001000,0.001000,0.001000
1007.903846,0.015972,0.001000,0.001000,0.001000,0.001000,0.001000
1007.923077,0.014919,0.001000,0.001000,0.001000,0.001000,0.001000
1007.942308,0.013859,0.001000,0.001000,0.001000,0.001000,0.001000
1007.961538,0.012792,0.001000,0.001000,0.001000,0.001000,0.001000
1007.980769,0.011719,0.001000,0.001000,0.001000,0.001000,0.001000
1008.000000,0.010640,0.001000,0.001000,0.001000,0.001000,0.001000
1008.019231,0.009556,0.001000,0.001000,0.001000,0.001000,0.001000
1008.038462,0.008467,0.001000,0.001000,0.001000,0.001000,0.001000
1008.057692,0.007374,0.001000,0.001000,0.001000,0.001000,0.001000
1008.076923,0.006277,0.001000,0.001000,0.001000,0.001000,0.001000
1008.096154,0.005177,0.001000,0.001000,0.001000,0.001000,0.001000
1008.115385,0.004075,0.001000,0.001000,0.001000,0.001000,0.001000
1008.134615,0.002971,0.001000,0.001000,0.001000,0.001000,0.001000
1008.153846,0.001865,0.001000,0.001000,0.001000,0.001000,0.001000
1008.173077,0.000759,0.001000,0.001000,0.001000,0.001000,0.001000
1008.192308,-0.000348,0.001000,0.001000,0.001000,0.001000,0.001000
1008.211538,-0.001455,0.001000,0.001000,0.001000,0.001000,0.001000
1008.230769,-0.002561,0.001000,0.001000,0.001000,0.001000,0.001000
1008.250000,-0.003666,0.001000,0.001000,0.001000,0.001000,0.001000
1008.269231,-0.004769,0.001000,0.001000,0.001000,0.001000,0.001000
1008.288462,-0.005870,0.001000,0.001000,0.001000,0.001000,0.001000
1008.307692,-0.006968,0.001000,0.001000,0.001000,0.001000,0.001000
1008.326923,-0.008062,0.001000,0.001000,0.001000,0.001000,0.001000
1008.346154,-0.009153,0.001000,0.001000,0.001000,0.001000,0.001000
1008.365385,-0.010239,0.001000,0.001000,0.001000,0.001000,0.001000
1008.384615,-0.011320,0.001000,0.001000,0.001000,0.001000,0.001000
1008.403846,-0.012395,0.001000,0.001000,0.001000,0.001000,0.001000
1008.423077,-0.013464,0.001000,0.001000,0.001000,0.001000,0.001000
1008.442308,-0.014527,0.001000,0.001000,0.001000,0.001000,0.001000
1008.461538,-0.015583,0.001000,0.001000,0.001000,0.001000,0.001000
1008.480769,-0.016631,0.001000,0.001000,0.001000,0.001000,0.001000
1008.500000,-0.017670,0.001000,0.001000,0.001000,0.001000,0.001000
1008.519231,-0.018702,0.001000,0.001000,0.001000,0.001000,0.001000
1008.538462,-0.019724,0.001000,0.001000,0.001000,0.001000,0.001000
1008.557692,-0.020736,0.001000,0.001000,0.001000,0.001000,0.001000
1008.576923,-0.021738,0.001000,0.001000,0.001000,0.001000,0.001000
1008.596154,-0.022730,0.001000,0.001000,0.001000,0.001000,0.001000
1008.615385,-0.023710,0.001000,0.001000,0.001000,0.001000,0.001000
1008.634615,-0.024679,0.001000,0.001000,0.001000,0.001000,0.001000
1008.653846,-0.025635,0.001000,0.001000,0.001000,0.001000,0.001000
1008.673077,-0.026579,0.001000,0.001000,0.001000,0.001000,0.001000
1008.692308,-0.027510,0.001000,0.001000,0.001000,0.001000,0.001000
1008.711538,-0.028428,0.001000,0.001000,0.001000,0.001000,0.001000
1008.730769,-0.029332,0.001000,0.001000,0.001000,0.001000,0.001000
1008.750000,-0.030221,0.001000,0.001000,0.001000,0.001000,0.001000
1008.769231,-0.031095,0.001000,0.001000,0.001000,0.001000,0.001000
1008.788462,-0.031955,0.001000,0.001000,0.001000,0.001000,0.001000
1008.807692,-0.032798,0.001000,0.001000,0.001000,0.001000,0.001000
1008.826923,-0.033626,0.001000,0.001000,0.001000,0.001000,0.001000
1008.846154,-0.034437,0.001000,0.001000,0.001000,0.001000,0.001000
1008.865385,-0.035231,0.001000,0.001000,0.001000,0.001000,0.001000
1008.884615,-0.036007,0.001000,0.001000,0.001000,0.001000,0.001000
1008.903846,-0.036767,0.001000,0.001000,0.001000,0.001000,0.001000
1008.923077,-0.037508,0.001000,0.001000,0.001000,0.001000,0.001000
1008.942308,-0.038231,0.001000,0.001000,0.001000,0.001000,0.001000
1008.961538,-0.038935,0.001000,0.001000,0.001000,0.001000,0.001000
1008.980769,-0.039620,0.001000,0.001000,0.001000,0.001000,0.001000
1009.000000,-0.040285,0.001000,0.001000,0.001000,0.001000,0.001000
1009.019231,-0.040931,0.001000,0.001000,0.001000,0.001000,0.001000
1009.038462,-0.041557,0.001000,0.001000,0.001000,0.001000,0.001000
1009.057692,-0.042162,0.001000,0.001000,0.001000,0.001000,0.001000
1009.076923,-0.042747,0.001000,0.001000,0.001000,0.001000,0.001000
1009.096154,-0.043310,0.001000,0.001000,0.001000,0.001000,0.001000
1009.115385,-0.043853,0.001000,0.001000,0.001000,0.001000,0.001000
1009.134615,-0.044374,0.001000,0.001000,0.001000,0.001000,0.001000
1009.153846,-0.044873,0.001000,0.001000,0.001000,0.001000,0.001000
1009.173077,-0.045350,0.001000,0.001000,0.001000,0.001000,0.001000
1009.192308,-0.045805,0.001000,0.001000,0.001000,0.001000,0.001000
1009.211538,-0.046238,0.001000,0.001000,0.001000,0.001000,0.001000
1009.230769,-0.046648,0.001000,0.001000,0.001000,0.001000,0.001000
1009.250000,-0.047035,0.001000,0.001000,0.001000,0.001000,0.001000
1009.269231,-0.047399,0.001000,0.001000,0.001000,0.001000,0.001000
1009.288462,-0.047740,0.001000,0.001000,0.001000,0.001000,0.001000
1009.307692,-0.048057,0.001000,0.001000,0.001000,0.001000,0.001000
1009.326923,-0.048351,0.001000,0.001000,0.001000,0.001000,0.001000
1009.346154,-0.048621,0.001000,0.001000,0.001000,0.001000,0.001000
1009.365385,-0.048867,0.001000,0.001000,0.001000,0.001000,0.001000
1009.384615,-0.049089,0.001000,0.001000,0.001000,0.001000,0.001000
1009.403846,-0.049288,0.001000,0.001000,0.001000,0.001000,0.001000
1009.423077,-0.049462,0.001000,0.001000,0.001000,0.001000,0.001000
1009.442308,-0.049612,0.001000,0.001000,0.001000,0.001000,0.001000
1009.461538,-0.049737,0.001000,0.001000,0.001000,0.001000,0.001000
1009.480769,-0.049838,0.001000,0.001000,0.001000,0.001000,0.001000
1009.500000,-0.049915,0.001000,0.001000,0.001000,0.001000,0.001000
1009.519231,-0.049967,0.001000,0.001000,0.001000,0.001000,0.001000
1009.538462,-0.049995,0.001000,0.001000,0.001000,0.001000,0.001000
1009.557692,-0.049998,0.001000,0.001000,0.001000,0.001000,0.001000
1009.576923,-0.049977,0.001000,0.001000,0.001000,0.001000,0.001000
1009.596154,-0.049931,0.001000,0.001000,0.001000,0.001000,0.001000
1009.615385,-0.049861,0.001000,0.001000,0.001000,0.001000,0.001000
1009.634615,-0.049766,0.001000,0.001000,0.001000,0.001000,0.001000
1009.653846,-0.049647,0.001000,0.001000,0.001000,0.001000,0.001000
1009.673077,-0.049504,0.001000,0.001000,0.001000,0.001000,0.001000
1009.692308,-0.049336,0.001000,0.001000,0.001000,0.001000,0.001000
1009.711538,-0.049144,0.001000,0.001000,0.001000,0.001000,0.001000
1009.730769,-0.048929,0.001000,0.001000,0.001000,0.001000,0.001000
1009.750000,-0.048689,0.001000,0.001000,0.001000,0.001000,0.001000
1009.769231,-0.048425,0.001000,0.001000,0.001000,0.001000,0.001000
1009.788462,-0.048137,0.001000,0.001000,0.001000,0.001000,0.001000
1009.807692,-0.047826,0.001000,0.001000,0.001000,0.001000,0.001000
1009.826923,-0.047492,0.001000,0.001000,0.001000,0.001000,0.001000
1009.846154,-0.047134,0.001000,0.001000,0.001000,0.001000,0.001000
1009.865385,-0.046753,0.001000,0.001000,0.001000,0.001000,0.001000
1009.884615,-0.046349,0.001000,0.001000,0.001000,0.001000,0.001000
1009.903846,-0.045922,0.001000,0.001000,0.001000,0.001000,0.001000
1009.923077,-0.045473,0.001000,0.001000,0.001000,0.001000,0.001000
1009.942308,-0.045002,0.001000,0.001000,0.001000,0.001000,0.001000
1009.961538,-0.044509,0.001000,0.001000,0.001000,0.001000,0.001000
1009.980769,-0.043993,0.001000,0.001000,0.001000,0.001000,0.001000
1010.000000,-0.043457,0.001000,0.001000,0.001000,0.001000,0.001000
1010.019231,-0.042898,0.001000,0.001000,0.001000,0.001000,0.001000
1010.038462,-0.042319,0.001000,0.001000,0.001000,0.001000,0.001000
1010.057692,-0.041719,0.001000,0.001000,0.001000,0.001000,0.001000
1010.076923,-0.041099,0.001000,0.001000,0.001000,0.001000,0.001000
1010.096154,-0.040459,0.001000,0.001000,0.001000,0.001000,0.001000
1010.115385,-0.039798,0.001000,0.001000,0.001000,0.001000,0.001000
1010.134615,-0.039118,0.001000,0.001000,0.001000,0.001000,0.001000
1010.153846,-0.038419,0.001000,0.001000,0.001000,0.001000,0.001000
1010.173077,-0.037702,0.001000,0.001000,0.001000,0.001000,0.001000
1010.192308,-0.036965,0.001000,0.001000,0.001000,0.001000,0.001000
1010.211538,-0.036211,0.001000,0.001000,0.001000,0.001000,0.001000
1010.230769,-0.035439,0.001000,0.001000,0.001000,0.001000,0.001000
1010.250000,-0.034649,0.001000,0.001000,0.001000,0.001000,0.001000
1010.269231,-0.033843,0.001000,0.001000,0.001000,0.001000,0.001000
1010.288462,-0.033019,0.001000,0.001000,0.001000,0.001000,0.001000
1010.307692,-0.032180,0.001000,0.001000,0.001000,0.001000,0.001000
1010.326923,-0.031325,0.001000,0.001000,0.001000,0.001000,0.001000
1010.346154,-0.030455,0.001000,0.001000,0.001000,0.001000,0.001000
1010.365385,-0.029569,0.001000,0.001000,0.001000,0.001000,0.001000
1010.384615,-0.028669,0.001000,0.001000,0.001000,0.001000,0.001000
1010.403846,-0.027756,0.001000,0.001000,0.001000,0.001000,0.001000
1010.423077,-0.026828,0.001000,0.001000,0.001000,0.001000,0.001000
1010.442308,-0.025887,0.001000,0.001000,0.001000,0.001000,0.001000
1010.461538,-0.024934,0.001000,0.001000,0.001000,0.001000,0.001000
1010.480769,-0.023968,0.001000,0.001000,0.001000,0.001000,0.001000
1010.500000,-0.022991,0.001000,0.001000,0.001000,0.001000,0.001000
1010.519231,-0.022003,0.001000,0.001000,0.001000,0.001000,0.001000
1010.538462,-0.021003,0.001000,0.001000,0.001000,0.001000,0.001000
1010.557692,-0.019993,0.001000,0.001000,0.001000,0.001000,0.001000
1010.576923,-0.018974,0.001000,0.001000,0.001000,0.001000,0.001000
1010.596154,-0.017945,0.001000,0.001000,0.001000,0.001000,0.001000
1010.615385,-0.016908,0.001000,0.001000,0.001000,0.001000,0.001000
1010.634615,-0.015862,0.001000,0.001000,0.001000,0.001000,0.001000
1010.653846,-0.014808,0.001000,0.001000,0.001000,0.001000,0.001000
1010.673077,-0.013747,0.001000,0.001000,0.001000,0.001000,0.001000
1010.692308,-0.012680,0.001000,0.001000,0.001000,0.001000,0.001000
1010.711538,-0.011606,0.001000,0.001000,0.001000,0.001000,0.001000
1010.730769,-0.010526,0.001000,0.001000,0.001000,0.001000,0.001000
1010.750000,-0.009442,0.001000,0.001000,0.001000,0.001000,0.001000
1010.769231,-0.008352,0.001000,0.001000,0.001000,0.001000,0.001000
1010.788462,-0.007259,0.001000,0.001000,0.001000,0.001000,0.001000
1010.807692,-0.006162,0.001000,0.001000,0.001000,0.001000,0.001000
1010.826923,-0.005062,0.001000,0.001000,0.001000,0.001000,0.001000
1010.846154,-0.003959,0.001000,0.001000,0.001000,0.001000,0.001000
1010.865385,-0.002855,0.001000,0.001000,0.001000,0.001000,0.001000
1010.884615,-0.001749,0.001000,0.001000,0.001000,0.001000,0.001000
1010.903846,-0.000642,0.001000,0.001000,0.001000,0.001000,0.001000
1010.923077,0.000465,0.001000,0.001000,0.001000,0.001000,0.001000
1010.942308,0.001571,0.001000,0.001000,0.001000,0.001000,0.001000
1010.961538,0.002677,0.001000,0.001000,0.001000,0.001000,0.001000
1010.980769,0.003782,0.001000,0.001000,0.001000,0.001000,0.001000
1011.000000,0.004885,0.001000,0.001000,0.001000,0.001000,0.001000
1011.019231,0.005985,0.001000,0.001000,0.001000,0.001000,0.001000
1011.038462,0.007083,0.001000,0.001000,0.001000,0.001000,0.001000
1011.057692,0.008177,0.001000,0.001000,0.001000,0.001000,0.001000
1011.076923,0.009267,0.001000,0.001000,0.001000,0.001000,0.001000
1011.096154,0.010352,0.001000,0.001000,0.001000,0.001000,0.001000
1011.115385,0.011433,0.001000,0.001000,0.001000,0.001000,0.001000
1011.134615,0.012507,0.001000,0.001000,0.001000,0.001000,0.001000
1011.153846,0.013576,0.001000,0.001000,0.001000,0.001000,0.001000
1011.173077,0.014638,0.001000,0.001000,0.001000,0.001000,0.001000
1011.192308,0.015693,0.001000,0.001000,0.001000,0.001000,0.001000
1011.211538,0.016740,0.001000,0.001000,0.001000,0.001000,0.001000
1011.230769,0.017779,0.001000,0.001000,0.001000,0.001000,0.001000
1011.250000,0.018809,0.001000,0.001000,0.001000,0.001000,0.001000
1011.269231,0.019830,0.001000,0.001000,0.001000,0.001000,0.001000
1011.288462,0.020842,0.001000,0.001000,0.001000,0.001000,0.001000
1011.307692,0.021843,0.001000,0.001000,0.001000,0.001000,0.001000
1011.326923,0.022833,0.001000,0.001000,0.001000,0.001000,0.001000
1011.346154,0.023812,0.001000,0.001000,0.001000,0.001000,0.001000
1011.365385,0.024780,0.001000,0.001000,0.001000,0.001000,0.001000
1011.384615,0.025735,0.001000,0.001000,0.001000,0.001000,0.001000
1011.403846,0.026678,0.001000,0.001000,0.001000,0.001000,0.001000
1011.423077,0.027607,0.001000,0.001000,0.001000,0.001000,0.001000
1011.442308,0.028523,0.001000,0.001000,0.001000,0.001000,0.001000
1011.461538,0.029426,0.001000,0.001000,0.001000,0.001000,0.001000
1011.480769,0.030313,0.001000,0.001000,0.001000,0.001000,0.001000
1011.500000,0.031186,0.001000,0.001000,0.001000,0.001000,0.001000
1011.519231,0.032044,0.001000,0.001000,0.001000,0.001000,0.001000
1011.538462,0.032886,0.001000,0.001000,0.001000,0.001000,0.001000
1011.557692,0.033711,0.001000,0.001000,0.001000,0.001000,0.001000
1011.576923,0.034521,0.001000,0.001000,0.001000,0.001000,0.001000
1011.596154,0.035313,0.001000,0.001000,0.001000,0.001000,0.001000
1011.615385,0.036088,0.001000,0.001000,0.001000,0.001000,0.001000
1011.634615,0.036845,0.001000,0.001000,0.001000,0.001000,0.001000
1011.653846,0.037584,0.001000,0.001000,0.001000,0.001000,0.001000
1011.673077,0.038305,0.001000,0.001000,0.001000,0.001000,0.001000
1011.692308,0.039007,0.001000,0.001000,0.001000,0.001000,0.001000
1011.711538,0.039690,0.001000,0.001000,0.001000,0.001000,0.001000
1011.730769,0.040354,0.001000,0.001000,0.001000,0.001000,0.001000
1011.750000,0.040997,0.001000,0.001000,0.001000,0.001000,0.001000
1011.769231,0.041621,0.001000,0.001000,0.001000,0.001000,0.001000
1011.788462,0.042224,0.001000,0.001000,0.001000,0.001000,0.001000
1011.807692,0.042807,0.001000,0.001000,0.001000,0.001000,0.001000
1011.826923,0.043368,0.001000,0.001000,0.001000,0.001000,0.001000
1011.846154,0.043908,0.001000,0.001000,0.001000,0.001000,0.001000
1011.865385,0.044427,0.001000,0.001000,0.001000,0.001000,0.001000
1011.884615,0.044924,0.001000,0.001000,0.001000,0.001000,0.001000
1011.903846,0.045399,0.001000,0.001000,0.001000,0.001000,0.001000
1011.923077,0.045852,0.001000,0.001000,0.001000,0.001000,0.001000
1011.942308,0.046282,0.001000,0.001000,0.001000,0.001000,0.001000
1011.961538,0.046690,0.001000,0.001000,0.001000,0.001000,0.001000
1011.980769,0.047074,0.001000,0.001000,0.001000,0.001000,0.001000
1012.000000,0.047436,0.001000,0.001000,0.001000,0.001000,0.001000
1012.019231,0.047774,0.001000,0.001000,0.001000,0.001000,0.001000
1012.038462,0.048089,0.001000,0.001000,0.001000,0.001000,0.001000
1012.057692,0.048380,0.001000,0.001000,0.001000,0.001000,0.001000
1012.076923,0.048648,0.001000,0.001000,0.001000,0.001000,0.001000
1012.096154,0.048892,0.001000,0.001000,0.001000,0.001000,0.001000
1012.115385,0.049111,0.001000,0.001000,0.001000,0.001000,0.001000
1012.134615,0.049307,0.001000,0.001000,0.001000,0.001000,0.001000
1012.153846,0.049479,0.001000,0.001000,0.001000,0.001000,0.001000
1012.173077,0.049626,0.001000,0.001000,0.001000,0.001000,0.001000
1012.192308,0.049749,0.001000,0.001000,0.001000,0.001000,0.001000
1012.211538,0.049848,0.001000,0.001000,0.001000,0.001000,0.001000
1012.230769,0.049922,0.001000,0.001000,0.001000,0.001000,0.001000
1012.250000,0.049971,0.001000,0.001000,0.001000,0.001000,0.001000
1012.269231,0.049997,0.001000,0.001000,0.001000,0.001000,0.001000
1012.288462,0.049997,0.001000,0.001000,0.001000,0.001000,0.001000
1012.307692,0.049973,0.001000,0.001000,0.001000,0.001000,0.001000
1012.326923,0.049925,0.001000,0.001000,0.001000,0.001000,0.001000
1012.346154,0.049852,0.001000,0.001000,0.001000,0.001000,0.001000
1012.365385,0.049755,0.001000,0.001000,0.001000,0.001000,0.001000
1012.384615,0.049633,0.001000,0.001000,0.001000,0.001000,0.001000
1012.403846,0.049488,0.001000,0.001000,0.001000,0.001000,0.001000
1012.423077,0.049317,0.001000,0.001000,0.001000,0.001000,0.001000
1012.442308,0.049123,0.001000,0.001000,0.001000,0.001000,0.001000
1012.461538,0.048905,0.001000,0.001000,0.001000,0.001000,0.001000
1012.480769,0.048662,0.001000,0.001000,0.001000,0.001000,0.001000
1012.500000,0.048396,0.001000,0.001000,0.001000,0.001000,0.001000
1012.519231,0.048106,0.001000,0.001000,0.001000,0.001000,0.001000
1012.538462,0.047792,0.001000,0.001000,0.001000,0.001000,0.001000
1012.557692,0.047455,0.001000,0.001000,0.001000,0.001000,0.001000
1012.576923,0.047095,0.001000,0.001000,0.001000,0.001000,0.001000
1012.596154,0.046712,0.001000,0.001000,0.001000,0.001000,0.001000
1012.615385,0.046305,0.001000,0.001000,0.001000,0.001000,0.001000
1012.634615,0.045876,0.001000,0.001000,0.001000,0.001000,0.001000
1012.653846,0.045425,0.001000,0.001000,0.001000,0.001000,0.001000
1012.673077,0.044951,0.001000,0.001000,0.001000,0.001000,0.001000
1012.692308,0.044456,0.001000,0.001000,0.001000,0.001000,0.001000
1012.711538,0.043938,0.001000,0.001000,0.001000,0.001000,0.001000
1012.730769,0.043399,0.001000,0.001000,0.001000,0.001000,0.001000
1012.750000,0.042839,0.001000,0.001000,0.001000,0.001000,0.001000
1012.769231,0.042257,0.001000,0.001000,0.001000,0.001000,0.001000
1012.788462,0.041655,0.001000,0.001000,0.001000,0.001000,0.001000
1012.807692,0.041033,0.001000,0.001000,0.001000,0.001000,0.001000
1012.826923,0.040390,0.001000,0.001000,0.001000,0.001000,0.001000
1012.846154,0.039728,0.001000,0.001000,0.001000,0.001000,0.001000
1012.865385,0.039046,0.001000,0.001000,0.001000,0.001000,0.001000
1012.884615,0.038345,0.001000,0.001000,0.001000,0.001000,0.001000
1012.903846,0.037625,0.001000,0.001000,0.001000,0.001000,0.001000
1012.923077,0.036887,0.001000,0.001000,0.001000,0.001000,0.001000
1012.942308,0.036131,0.001000,0.001000,0.001000,0.001000,0.001000
1012.961538,0.035357,0.001000,0.001000,0.001000,0.001000,0.001000
1012.980769,0.034565,0.001000,0.001000,0.001000,0.001000,0.001000
1013.000000,0.033757,0.001000,0.001000,0.001000,0.001000,0.001000
1013.019231,0.032932,0.001000,0.001000,0.001000,0.001000,0.001000
1013.038462,0.032091,0.001000,0.001000,0.001000,0.001000,0.001000
1013.057692,0.031234,0.001000,0.001000,0.001000,0.001000,0.001000
1013.076923,0.030362,0.001000,0.001000,0.001000,0.001000,0.001000
1013.096154,0.029476,0.001000,0.001000,0.001000,0.001000,0.001000
1013.115385,0.028574,0.001000,0.001000,0.001000,0.001000,0.001000
1013.134615,0.027659,0.001000,0.001000,0.001000,0.001000,0.001000
1013.153846,0.026730,0.001000,0.001000,0.001000,0.001000,0.001000
1013.173077,0.025788,0.001000,0.001000,0.001000,0.001000,0.001000
1013.192308,0.024833,0.001000,0.001000,0.001000,0.001000,0.001000
1013.211538,0.023866,0.001000,0.001000,0.001000,0.001000,0.001000
1013.230769,0.022888,0.001000,0.001000,0.001000,0.001000,0.001000
1013.250000,0.021898,0.001000,0.001000,0.001000,0.001000,0.001000
1013.269231,0.020898,0.001000,0.001000,0.001000,0.001000,0.001000
1013.288462,0.019887,0.001000,0.001000,0.001000,0.001000,0.001000
1013.307692,0.018866,0.001000,0.001000,0.001000,0.001000,0.001000
1013.326923,0.017837,0.001000,0.001000,0.001000,0.001000,0.001000
1013.346154,0.016798,0.001000,0.001000,0.001000,0.001000,0.001000
1013.365385,0.015752,0.001000,0.001000,0.001000,0.001000,0.001000
1013.384615,0.014697,0.001000,0.001000,0.001000,0.001000,0.001000
1013.403846,0.013636,0.001000,0.001000,0.001000,0.001000,0.001000
1013.423077,0.012567,0.001000,0.001000,0.001000,0.001000,0.001000
1013.442308,0.011493,0.001000,0.001000,0.001000,0.001000,0.001000
1013.461538,0.010413,0.001000,0.001000,0.001000,0.001000,0.001000
1013.480769,0.009327,0.001000,0.001000,0.001000,0.001000,0.001000
1013.500000,0.008238,0.001000,0.001000,0.001000,0.001000,0.001000
1013.519231,0.007144,0.001000,0.001000,0.001000,0.001000,0.001000
1013.538462,0.006047,0.001000,0.001000,0.001000,0.001000,0.001000
1013.557692,0.004946,0.001000,0.001000,0.001000,0.001000,0.001000
1013.576923,0.003844,0.001000,0.001000,0.001000,0.001000,0.001000
1013.596154,0.002739,0.001000,0.001000,0.001000,0.001000,0.001000
1013.615385,0.001633,0.001000,0.001000,0.001000,0.001000,0.001000
1013.634615,0.000526,0.001000,0.001000,0.001000,0.001000,0.001000
1013.653846,-0.000581,0.001000,0.001000,0.001000,0.001000,0.001000
1013.673077,-0.001687,0.001000,0.001000,0.001000,0.001000,0.001000
1013.692308,-0.002793,0.001000,0.001000,0.001000,0.001000,0.001000
1013.711538,-0.003898,0.001000,0.001000,0.001000,0.001000,0.001000
1013.730769,-0.005000,0.001000,0.001000,0.001000,0.001000,0.001000
1013.750000,-0.006100,0.001000,0.001000,0.001000,0.001000,0.001000
1013.769231,-0.007198,0.001000,0.001000,0.001000,0.001000,0.001000
1013.788462,-0.008291,0.001000,0.001000,0.001000,0.001000,0.001000
1013.807692,-0.009381,0.001000,0.001000,0.001000,0.001000,0.001000
1013.826923,-0.010466,0.001000,0.001000,0.001000,0.001000,0.001000
1013.846154,-0.011546,0.001000,0.001000,0.001000,0.001000,0.001000
1013.865385,-0.012620,0.001000,0.001000,0.001000,0.001000,0.001000
1013.884615,-0.013688,0.001000,0.001000,0.001000,0.001000,0.001000
1013.903846,-0.014749,0.001000,0.001000,0.001000,0.001000,0.001000
1013.923077,-0.015803,0.001000,0.001000,0.001000,0.001000,0.001000
1013.942308,-0.016849,0.001000,0.001000,0.001000,0.001000,0.001000
1013.961538,-0.017888,0.001000,0.001000,0.001000,0.001000,0.001000
1013.980769,-0.018917,0.001000,0.001000,0.001000,0.001000,0.001000
1014.000000,-0.019937,0.001000,0.001000,0.001000,0.001000,0.001000
1014.019231,-0.020947,0.001000,0.001000,0.001000,0.001000,0.001000
1014.038462,-0.021947,0.001000,0.001000,0.001000,0.001000,0.001000
1014.057692,-0.022936,0.001000,0.001000,0.001000,0.001000,0.001000
1014.076923,-0.023914,0.001000,0.001000,0.001000,0.001000,0.001000
1014.096154,-0.024880,0.001000,0.001000,0.001000,0.001000,0.001000
1014.115385,-0.025834,0.001000,0.001000,0.001000,0.001000,0.001000
1014.134615,-0.026776,0.001000,0.001000,0.001000,0.001000,0.001000
1014.153846,-0.027704,0.001000,0.001000,0.001000,0.001000,0.001000
1014.173077,-0.028619,0.001000,0.001000,0.001000,0.001000,0.001000
1014.192308,-0.029519,0.001000,0.001000,0.001000,0.001000,0.001000
1014.211538,-0.030406,0.001000,0.001000,0.001000,0.001000,0.001000
1014.230769,-0.031277,0.001000,0.001000,0.001000,0.001000,0.001000
1014.250000,-0.032133,0.001000,0.001000,0.001000,0.001000,0.001000
1014.269231,-0.032973,0.001000,0.001000,0.001000,0.001000,0.001000
1014.288462,-0.033797,0.001000,0.001000,0.001000,0.001000,0.001000
1014.307692,-0.034605,0.001000,0.001000,0.001000,0.001000,0.001000
1014.326923,-0.035395,0.001000,0.001000,0.001000,0.001000,0.001000
1014.346154,-0.036168,0.001000,0.001000,0.001000,0.001000,0.001000
1014.365385,-0.036924,0.001000,0.001000,0.001000,0.001000,0.001000
1014.384615,-0.037661,0.001000,0.001000,0.001000,0.001000,0.001000
1014.403846,-0.038380,0.001000,0.001000,0.001000,0.001000,0.001000
1014.423077,-0.039080,0.001000,0.001000,0.001000,0.001000,0.001000
1014.442308,-0.039761,0.001000,0.001000,0.001000,0.001000,0.001000
1014.461538,-0.040422,0.001000,0.001000,0.001000,0.001000,0.001000
1014.480769,-0.041064,0.001000,0.001000,0.001000,0.001000,0.001000
1014.500000,-0.041685,0.001000,0.001000,0.001000,0.001000,0.001000
1014.519231,-0.042286,0.001000,0.001000,0.001000,0.001000,0.001000
1014.538462,-0.042867,0.001000,0.001000,0.001000,0.001000,0.001000
1014.557692,-0.043426,0.001000,0.001000,0.001000,0.001000,0.001000
1014.576923,-0.043964,0.001000,0.001000,0.001000,0.001000,0.001000
1014.596154,-0.044480,0.001000,0.001000,0.001000,0.001000,0.001000
1014.615385,-0.044975,0.001000,0.001000,0.001000,0.001000,0.001000
1014.634615,-0.045448,0.001000,0.001000,0.001000,0.001000,0.001000
1014.653846,-0.045898,0.001000,0.001000,0.001000,0.001000,0.001000
1014.673077,-0.046326,0.001000,0.001000,0.001000,0.001000,0.001000
1014.692308,-0.046731,0.001000,0.001000,0.001000,0.001000,0.001000
1014.711538,-0.047113,0.001000,0.001000,0.001000,0.001000,0.001000
1014.730769,-0.047472,0.001000,0.001000,0.001000,0.001000,0.001000
1014.750000,-0.047808,0.001000,0.001000,0.001000,0.001000,0.001000
1014.769231,-0.048121,0.001000,0.001000,0.001000,0.001000,0.001000
1014.788462,-0.048409,0.001000,0.001000,0.001000,0.001000,0.001000
1014.807692,-0.048675,0.001000,0.001000,0.001000,0.001000,0.001000
1014.826923,-0.048916,0.001000,0.001000,0.001000,0.001000,0.001000
1014.846154,-0.049133,0.001000,0.001000,0.001000,0.001000,0.001000
1014.865385,-0.049326,0.001000,0.001000,0.001000,0.001000,0.001000
1014.884615,-0.049495,0.001000,0.001000,0.001000,0.001000,0.001000
1014.903846,-0.049640,0.001000,0.001000,0.001000,0.001000,0.001000
1014.923077,-0.049760,0.001000,0.001000,0.001000,0.001000,0.001000
1014.942308,-0.049856,0.001000,0.001000,0.001000,0.001000,0.001000
1014.961538,-0.049928,0.001000,0.001000,0.001000,0.001000,0.001000
1014.980769,-0.049975,0.001000,0.001000,0.001000,0.001000,0.001000
1015.000000,-0.049998,0.001000,0.001000,0.001000,0.001000,0.001000
1015.019231,-0.049996,0.001000,0.001000,0.001000,0.001000,0.001000
1015.038462,-0.049970,0.001000,0.001000,0.001000,0.001000,0.001000
1015.057692,-0.049919,0.001000,0.001000,0.001000,0.001000,0.001000
1015.076923,-0.049843,0.001000,0.001000,0.001000,0.001000,0.001000
1015.096154,-0.049743,0.001000,0.001000,0.001000,0.001000,0.001000
1015.115385,-0.049619,0.001000,0.001000,0.001000,0.001000,0.001000
1015.134615,-0.049471,0.001000,0.001000,0.001000,0.001000,0.001000
1015.153846,-0.049298,0.001000,0.001000,0.001000,0.001000,0.001000
1015.173077,-0.049101,0.001000,0.001000,0.001000,0.001000,0.001000
1015.192308,-0.048880,0.001000,0.001000,0.001000,0.001000,0.001000
1015.211538,-0.048635,0.001000,0.001000,0.001000,0.001000,0.001000
1015.230769,-0.048367,0.001000,0.001000,0.001000,0.001000,0.001000
1015.250000,-0.048074,0.001000,0.001000,0.001000,0.001000,0.001000
1015.269231,-0.047758,0.001000,0.001000,0.001000,0.001000,0.001000
1015.288462,-0.047419,0.001000,0.001000,0.001000,0.001000,0.001000
1015.307692,-0.047056,0.001000,0.001000,0.001000,0.001000,0.001000
1015.326923,-0.046670,0.001000,0.001000,0.001000,0.001000,0.001000
1015.346154,-0.046261,0.001000,0.001000,0.001000,0.001000,0.001000
1015.365385,-0.045830,0.001000,0.001000,0.001000,0.001000,0.001000
1015.384615,-0.045376,0.001000,0.001000,0.001000,0.001000,0.001000
1015.403846,-0.044900,0.001000,0.001000,0.001000,0.001000,0.001000
1015.423077,-0.044402,0.001000,0.001000,0.001000,0.001000,0.001000
1015.442308,-0.043882,0.001000,0.001000,0.001000,0.001000,0.001000
1015.461538,-0.043341,0.001000,0.001000,0.001000,0.001000,0.001000
1015.480769,-0.042779,0.001000,0.001000,0.001000,0.001000,0.001000
1015.500000,-0.042195,0.001000,0.001000,0.001000,0.001000,0.001000
1015.519231,-0.041591,0.001000,0.001000,0.001000,0.001000,0.001000
1015.538462,-0.040966,0.001000,0.001000,0.001000,0.001000,0.001000
1015.557692,-0.040322,0.001000,0.001000,0.001000,0.001000,0.001000
1015.576923,-0.039657,0.001000,0.001000,0.001000,0.001000,0.001000
1015.596154,-0.038973,0.001000,0.001000,0.001000,0.001000,0.001000
1015.615385,-0.038270,0.001000,0.001000,0.001000,0.001000,0.001000
1015.634615,-0.037549,0.001000,0.001000,0.001000,0.001000,0.001000
1015.653846,-0.036808,0.001000,0.001000,0.001000,0.001000,0.001000
1015.673077,-0.036050,0.001000,0.001000,0.001000,0.001000,0.001000
1015.692308,-0.035274,0.001000,0.001000,0.001000,0.001000,0.001000
1015.711538,-0.034481,0.001000,0.001000,0.001000,0.001000,0.001000
1015.730769,-0.033671,0.001000,0.001000,0.001000,0.001000,0.001000
1015.750000,-0.032845,0.001000,0.001000,0.001000,0.001000,0.001000
1015.769231,-0.032002,0.001000,0.001000,0.001000,0.001000,0.001000
1015.788462,-0.031144,0.001000,0.001000,0.001000,0.001000,0.001000
1015.807692,-0.030270,0.001000,0.001000,0.001000,0.001000,0.001000
1015.826923,-0.029382,0.001000,0.001000,0.001000,0.001000,0.001000
1015.846154,-0.028479,0.001000,0.001000,0.001000,0.001000,0.001000
1015.865385,-0.027562,0.001000,0.001000,0.001000,0.001000,0.001000
1015.884615,-0.026632,0.001000,0.001000,0.001000,0.001000,0.001000
1015.903846,-0.025688,0.001000,0.001000,0.001000,0.001000,0.001000
1015.923077,-0.024732,0.001000,0.001000,0.001000,0.001000,0.001000
1015.942308,-0.023764,0.001000,0.001000,0.001000,0.001000,0.001000
1015.961538,-0.022785,0.001000,0.001000,0.001000,0.001000,0.001000
1015.980769,-0.021794,0.001000,0.001000,0.001000,0.001000,0.001000
1016.000000,-0.020792,0.001000,0.001000,0.001000,0.001000,0.001000
1016.019231,-0.019780,0.001000,0.001000,0.001000,0.001000,0.001000
1016.038462,-0.018759,0.001000,0.001000,0.001000,0.001000,0.001000
1016.057692,-0.017728,0.001000,0.001000,0.001000,0.001000,0.001000
1016.076923,-0.016689,0.001000,0.001000,0.001000,0.001000,0.001000
1016.096154,-0.015641,0.001000,0.001000,0.001000,0.001000,0.001000
1016.115385,-0.014586,0.001000,0.001000,0.001000,0.001000,0.001000
1016.134615,-0.013524,0.001000,0.001000,0.001000,0.001000,0.001000
1016.153846,-0.012455,0.001000,0.001000,0.001000,0.001000,0.001000
1016.173077,-0.011380,0.001000,0.001000,0.001000,0.001000,0.001000
1016.192308,-0.010299,0.001000,0.001000,0.001000,0.001000,0.001000
1016.211538,-0.009213,0.001000,0.001000,0.001000,0.001000,0.001000
1016.230769,-0.008123,0.001000,0.001000,0.001000,0.001000,0.001000
1016.250000,-0.007029,0.001000,0.001000,0.001000,0.001000,0.001000
1016.269231,-0.005931,0.001000,0.001000,0.001000,0.001000,0.001000
1016.288462,-0.004831,0.001000,0.001000,0.001000,0.001000,0.001000
1016.307692,-0.003728,0.001000,0.001000,0.001000,0.001000,0.001000
1016.326923,-0.002623,0.001000,0.001000,0.001000,0.001000,0.001000
1016.346154,-0.001517,0.001000,0.001000,0.001000,0.001000,0.001000
1016.365385,-0.000410,0.001000,0.001000,0.001000,0.001000,0.001000
1016.384615,0.000697,0.001000,0.001000,0.001000,0.001000,0.001000
1016.403846,0.001803,0.001000,0.001000,0.001000,0.001000,0.001000
1016.423077,0.002909,0.001000,0.001000,0.001000,0.001000,0.001000
1016.442308,0.004014,0.001000,0.001000,0.001000,0.001000,0.001000
1016.461538,0.005116,0.001000,0.001000,0.001000,0.001000,0.001000
1016.480769,0.006216,0.001000,0.001000,0.001000,0.001000,0.001000
1016.500000,0.007313,0.001000,0.001000,0.001000,0.001000,0.001000
1016.519231,0.008406,0.001000,0.001000,0.001000,0.001000,0.001000
1016.538462,0.009495,0.001000,0.001000,0.001000,0.001000,0.001000
1016.557692,0.010579,0.001000,0.001000,0.001000,0.001000,0.001000
1016.576923,0.011659,0.001000,0.001000,0.001000,0.001000,0.001000
1016.596154,0.012732,0.001000,0.001000,0.001000,0.001000,0.001000
1016.615385,0.013799,0.001000,0.001000,0.001000,0.001000,0.001000
1016.634615,0.014860,0.001000,0.001000,0.001000,0.001000,0.001000
1016.653846,0.015913,0.001000,0.001000,0.001000,0.001000,0.001000
1016.673077,0.016959,0.001000,0.001000,0.001000,0.001000,0.001000
1016.692308,0.017996,0.001000,0.001000,0.001000,0.001000,0.001000
1016.711538,0.019024,0.001000,0.001000,0.001000,0.001000,0.001000
1016.730769,0.020043,0.001000,0.001000,0.001000,0.001000,0.001000
1016.750000,0.021052,0.001000,0.001000,0.001000,0.001000,0.001000
1016.769231,0.022051,0.001000,0.001000,0.001000,0.001000,0.001000
1016.788462,0.023039,0.001000,0.001000,0.001000,0.001000,0.001000
1016.807692,0.024016,0.001000,0.001000,0.001000,0.001000,0.001000
1016.826923,0.024981,0.001000,0.001000,0.001000,0.001000,0.001000
1016.846154,0.025934,0.001000,0.001000,0.001000,0.001000,0.001000
1016.865385,0.026874,0.001000,0.001000,0.001000,0.001000,0.001000
1016.884615,0.027801,0.001000,0.001000,0.001000,0.001000,0.001000
1016.903846,0.028714,0.001000,0.001000,0.001000,0.001000,0.001000
1016.923077,0.029613,0.001000,0.001000,0.001000,0.001000,0.001000
1016.942308,0.030498,0.001000,0.001000,0.001000,0.001000,0.001000
1016.961538,0.031367,0.001000,0.001000,0.001000,0.001000,0.001000
1016.980769,0.032222,0.001000,0.001000,0.001000,0.001000,0.001000
1017.000000,0.033060,0.001000,0.001000,0.001000,0.001000,0.001000
1017.019231,0.033883,0.001000,0.001000,0.001000,0.001000,0.001000
1017.038462,0.034688,0.001000,0.001000,0.001000,0.001000,0.001000
1017.057692,0.035477,0.001000,0.001000,0.001000,0.001000,0.001000
1017.076923,0.036248,0.001000,0.001000,0.001000,0.001000,0.001000
1017.096154,0.037002,0.001000,0.001000,0.001000,0.001000,0.001000
1017.115385,0.037737,0.001000,0.001000,0.001000,0.001000,0.001000
1017.134615,0.038454,0.001000,0.001000,0.001000,0.001000,0.001000
1017.153846,0.039152,0.001000,0.001000,0.001000,0.001000,0.001000
1017.173077,0.039831,0.001000,0.001000,0.001000,0.001000,0.001000
1017.192308,0.040490,0.001000,0.001000,0.001000,0.001000,0.001000
1017.211538,0.041130,0.001000,0.001000,0.001000,0.001000,0.001000
1017.230769,0.041749,0.001000,0.001000,0.001000,0.001000,0.001000
1017.250000,0.042348,0.001000,0.001000,0.001000,0.001000,0.001000
1017.269231,0.042926,0.001000,0.001000,0.001000,0.001000,0.001000
1017.288462,0.043483,0.001000,0.001000,0.001000,0.001000,0.001000
1017.307692,0.044019,0.001000,0.001000,0.001000,0.001000,0.001000
1017.326923,0.044533,0.001000,0.001000,0.001000,0.001000,0.001000
1017.346154,0.045026,0.001000,0.001000,0.001000,0.001000,0.001000
1017.365385,0.045496,0.001000,0.001000,0.001000,0.001000,0.001000
1017.384615,0.045944,0.001000,0.001000,0.001000,0.001000,0.001000
1017.403846,0.046369,0.001000,0.001000,0.001000,0.001000,0.001000
1017.423077,0.046772,0.001000,0.001000,0.001000,0.001000,0.001000
1017.442308,0.047152,0.001000,0.001000,0.001000,0.001000,0.001000
1017.461538,0.047509,0.001000,0.001000,0.001000,0.001000,0.001000
1017.480769,0.047842,0.001000,0.001000,0.001000,0.001000,0.001000
1017.500000,0.048152,0.001000,0.001000,0.001000,0.001000,0.001000
1017.519231,0.048438,0.001000,0.001000,0.001000,0.001000,0.001000
1017.538462,0.048701,0.001000,0.001000,0.001000,0.001000,0.001000
1017.557692,0.048940,0.001000,0.001000,0.001000,0.001000,0.001000
1017.576923,0.049154,0.001000,0.001000,0.001000,0.001000,0.001000
1017.596154,0.049345,0.001000,0.001000,0.001000,0.001000,0.001000
1017.615385,0.049512,0.001000,0.001000,0.001000,0.001000,0.001000
1017.634615,0.049654,0.001000,0.001000,0.001000,0.001000,0.001000
1017.653846,0.049772,0.001000,0.001000,0.001000,0.001000,0.001000
1017.673077,0.049865,0.001000,0.001000,0.001000,0.001000,0.001000
1017.692308,0.049934,0.001000,0.001000,0.001000,0.001000,0.001000
1017.711538,0.049979,0.001000,0.001000,0.001000,0.001000,0.001000
1017.730769,0.049999,0.001000,0.001000,0.001000,0.001000,0.001000
1017.750000,0.049994,0.001000,0.001000,0.001000,0.001000,0.001000
1017.769231,0.049965,0.001000,0.001000,0.001000,0.001000,0.001000
1017.788462,0.049912,0.001000,0.001000,0.001000,0.001000,0.001000
1017.807692,0.049834,0.001000,0.001000,0.001000,0.001000,0.001000
1017.826923,0.049732,0.001000,0.001000,0.001000,0.001000,0.001000
1017.846154,0.049605,0.001000,0.001000,0.001000,0.001000,0.001000
1017.865385,0.049454,0.001000,0.001000,0.001000,0.001000,0.001000
1017.884615,0.049279,0.001000,0.001000,0.001000,0.001000,0.001000
1017.903846,0.049079,0.001000,0.001000,0.001000,0.001000,0.001000
1017.923077,0.048856,0.001000,0.001000,0.001000,0.001000,0.001000
1017.942308,0.048608,0.001000,0.001000,0.001000,0.001000,0.001000
1017.961538,0.048337,0.001000,0.001000,0.001000,0.001000,0.001000
1017.980769,0.048042,0.001000,0.001000,0.001000,0.001000,0.001000
1018.000000,0.047723,0.001000,0.001000,0.001000,0.001000,0.001000
1018.019231,0.047382,0.001000,0.001000,0.001000,0.001000,0.001000
1018.038462,0.047016,0.001000,0.001000,0.001000,0.001000,0.001000
1018.057692,0.046628,0.001000,0.001000,0.001000,0.001000,0.001000
1018.076923,0.046217,0.001000,0.001000,0.001000,0.001000,0.001000
1018.096154,0.045784,0.001000,0.001000,0.001000,0.001000,0.001000
1018.115385,0.045327,0.001000,0.001000,0.001000,0.001000,0.001000
1018.134615,0.044849,0.001000,0.001000,0.001000,0.001000,0.001000
1018.153846,0.044349,0.001000,0.001000,0.001000,0.001000,0.001000
1018.173077,0.043827,0.001000,0.001000,0.001000,0.001000,0.001000
1018.192308,0.043283,0.001000,0.001000,0.001000,0.001000,0.001000
1018.211538,0.042718,0.001000,0.001000,0.001000,0.001000,0.001000
1018.230769,0.042133,0.001000,0.001000,0.001000,0.001000,0.001000
1018.250000,0.041526,0.001000,0.001000,0.001000,0.001000,0.001000
1018.269231,0.040900,0.001000,0.001000,0.001000,0.001000,0.001000
1018.288462,0.040253,0.001000,0.001000,0.001000,0.001000,0.001000
1018.307692,0.039586,0.001000,0.001000,0.001000,0.001000,0.001000
1018.326923,0.038900,0.001000,0.001000,0.001000,0.001000,0.001000
1018.346154,0.038196,0.001000,0.001000,0.001000,0.001000,0.001000
1018.365385,0.037472,0.001000,0.001000,0.001000,0.001000,0.001000
1018.384615,0.036730,0.001000,0.001000,0.001000,0.001000,0.001000
1018.403846,0.035970,0.001000,0.001000,0.001000,0.001000,0.001000
1018.423077,0.035192,0.001000,0.001000,0.001000,0.001000,0.001000
1018.442308,0.034397,0.001000,0.001000,0.001000,0.001000,0.001000
1018.461538,0.033585,0.001000,0.001000,0.001000,0.001000,0.001000
1018.480769,0.032757,0.001000,0.001000,0.001000,0.001000,0.001000
1018.500000,0.031913,0.001000,0.001000,0.001000,0.001000,0.001000
1018.519231,0.031053,0.001000,0.001000,0.001000,0.001000,0.001000
1018.538462,0.030178,0.001000,0.001000,0.001000,0.001000,0.001000
1018.557692,0.029288,0.001000,0.001000,0.001000,0.001000,0.001000
1018.576923,0.028383,0.001000,0.001000,0.001000,0.001000,0.001000
1018.596154,0.027465,0.001000,0.001000,0.001000,0.001000,0.001000
1018.615385,0.026533,0.001000,0.001000,0.001000,0.001000,0.001000
1018.634615,0.025589,0.001000,0.001000,0.001000,0.001000,0.001000
1018.653846,0.024631,0.001000,0.001000,0.001000,0.001000,0.001000
1018.673077,0.023662,0.001000,0.001000,0.001000,0.001000,0.001000
1018.692308,0.022681,0.001000,0.001000,0.001000,0.001000,0.001000
1018.711538,0.021689,0.001000,0.001000,0.001000,0.001000,0.001000
1018.730769,0.020686,0.001000,0.001000,0.001000,0.001000,0.001000
1018.750000,0.019674,0.001000,0.001000,0.001000,0.001000,0.001000
1018.769231,0.018651,0.001000,0.001000,0.001000,0.001000,0.001000
1018.788462,0.017620,0.001000,0.001000,0.001000,0.001000,0.001000
1018.807692,0.016579,0.001000,0.001000,0.001000,0.001000,0.001000
1018.826923,0.015531,0.001000,0.001000,0.001000,0.001000,0.001000
1018.846154,0.014475,0.001000,0.001000,0.001000,0.001000,0.001000
1018.865385,0.013412,0.001000,0.001000,0.001000,0.001000,0.001000
1018.884615,0.012342,0.001000,0.001000,0.001000,0.001000,0.001000
1018.903846,0.011267,0.001000,0.001000,0.001000,0.001000,0.001000
1018.923077,0.010185,0.001000,0.001000,0.001000,0.001000,0.001000
1018.942308,0.009099,0.001000,0.001000,0.001000,0.001000,0.001000
1018.961538,0.008009,0.001000,0.001000,0.001000,0.001000,0.001000
1018.980769,0.006914,0.001000,0.001000,0.001000,0.001000,0.001000
1019.000000,0.005816,0.001000,0.001000,0.001000,0.001000,0.001000
1019.019231,0.004715,0.001000,0.001000,0.001000,0.001000,0.001000
1019.038462,0.003612,0.001000,0.001000,0.001000,0.001000,0.001000
1019.057692,0.002507,0.001000,0.001000,0.001000,0.001000,0.001000
1019.076923,0.001401,0.001000,0.001000,0.001000,0.001000,0.001000
1019.096154,0.000294,0.001000,0.001000,0.001000,0.001000,0.001000
1019.115385,-0.000813,0.001000,0.001000,0.001000,0.001000,0.001000
1019.134615,-0.001919,0.001000,0.001000,0.001000,0.001000,0.001000
1019.153846,-0.003025,0.001000,0.001000,0.001000,0.001000,0.001000
1019.173077,-0.004129,0.001000,0.001000,0.001000,0.001000,0.001000
1019.192308,-0.005231,0.001000,0.001000,0.001000,0.001000,0.001000
1019.211538,-0.006331,0.001000,0.001000,0.001000,0.001000,0.001000
1019.230769,-0.007427,0.001000,0.001000,0.001000,0.001000,0.001000
1019.250000,-0.008520,0.001000,0.001000,0.001000,0.001000,0.001000
1019.269231,-0.009609,0.001000,0.001000,0.001000,0.001000,0.001000
1019.288462,-0.010693,0.001000,0.001000,0.001000,0.001000,0.001000
1019.307692,-0.011772,0.001000,0.001000,0.001000,0.001000,0.001000
1019.326923,-0.012844,0.001000,0.001000,0.001000,0.001000,0.001000
1019.346154,-0.013911,0.001000,0.001000,0.001000,0.001000,0.001000
1019.365385,-0.014971,0.001000,0.001000,0.001000,0.001000,0.001000
1019.384615,-0.016023,0.001000,0.001000,0.001000,0.001000,0.001000
1019.403846,-0.017068,0.001000,0.001000,0.001000,0.001000,0.001000
1019.423077,-0.018104,0.001000,0.001000,0.001000,0.001000,0.001000
1019.442308,-0.019132,0.001000,0.001000,0.001000,0.001000,0.001000
1019.461538,-0.020150,0.001000,0.001000,0.001000,0.001000,0.001000
1019.480769,-0.021158,0.001000,0.001000,0.001000,0.001000,0.001000
1019.500000,-0.022155,0.001000,0.001000,0.001000,0.001000,0.001000
1019.519231,-0.023142,0.001000,0.001000,0.001000,0.001000,0.001000
1019.538462,-0.024118,0.001000,0.001000,0.001000,0.001000,0.001000
1019.557692,-0.025082,0.001000,0.001000,0.001000,0.001000,0.001000
1019.576923,-0.026033,0.001000,0.001000,0.001000,0.001000,0.001000
1019.596154,-0.026972,0.001000,0.001000,0.001000,0.001000,0.001000
1019.615385,-0.027897,0.001000,0.001000,0.001000,0.001000,0.001000
1019.634615,-0.028809,0.001000,0.001000,0.001000,0.001000,0.001000
1019.653846,-0.029707,0.001000,0.001000,0.001000,0.001000,0.001000
1019.673077,-0.030590,0.001000,0.001000,0.001000,0.001000,0.001000
1019.692308,-0.031458,0.001000,0.001000,0.001000,0.001000,0.001000
1019.711538,-0.032310,0.001000,0.001000,0.001000,0.001000,0.001000
1019.730769,-0.033147,0.001000,0.001000,0.001000,0.001000,0.001000
1019.750000,-0.033968,0.001000,0.001000,0.001000,0.001000,0.001000
1019.769231,-0.034772,0.001000,0.001000,0.001000,0.001000,0.001000
1019.788462,-0.035559,0.001000,0.001000,0.001000,0.001000,0.001000
1019.807692,-0.036328,0.001000,0.001000,0.001000,0.001000,0.001000
1019.826923,-0.037080,0.001000,0.001000,0.001000,0.001000,0.001000
1019.846154,-0.037813,0.001000,0.001000,0.001000,0.001000,0.001000
1019.865385,-0.038528,0.001000,0.001000,0.001000,0.001000,0.001000
1019.884615,-0.039224,0.001000,0.001000,0.001000,0.001000,0.001000
1019.903846,-0.039901,0.001000,0.001000,0.001000,0.001000,0.001000
1019.923077,-0.040558,0.001000,0.001000,0.001000,0.001000,0.001000
1019.942308,-0.041196,0.001000,0.001000,0.001000,0.001000,0.001000
1019.961538,-0.041813,0.001000,0.001000,0.001000,0.001000,0.001000
1019.980769,-0.042410,0.001000,0.001000,0.001000,0.001000,0.001000
1020.000000,-0.042986,0.001000,0.001000,0.001000,0.001000,0.001000
1020.019231,-0.043541,0.001000,0.001000,0.001000,0.001000,0.001000
1020.038462,-0.044074,0.001000,0.001000,0.001000,0.001000,0.001000
1020.057692,-0.044586,0.001000,0.001000,0.001000,0.001000,0.001000
1020.076923,-0.045076,0.001000,0.001000,0.001000,0.001000,0.001000
1020.096154,-0.045544,0.001000,0.001000,0.001000,0.001000,0.001000
1020.115385,-0.045990,0.001000,0.001000,0.001000,0.001000,0.001000
1020.134615,-0.046413,0.001000,0.001000,0.001000,0.001000,0.001000
1020.153846,-0.046813,0.001000,0.001000,0.001000,0.001000,0.001000
1020.173077,-0.047190,0.001000,0.001000,0.001000,0.001000,0.001000
1020.192308,-0.047545,0.001000,0.001000,0.001000,0.001000,0.001000
1020.211538,-0.047876,0.001000,0.001000,0.001000,0.001000,0.001000
1020.230769,-0.048183,0.001000,0.001000,0.001000,0.001000,0.001000
1020.250000,-0.048467,0.001000,0.001000,0.001000,0.001000,0.001000
1020.269231,-0.048727,0.001000,0.001000,0.001000,0.001000,0.001000
1020.288462,-0.048963,0.001000,0.001000,0.001000,0.001000,0.001000
1020.307692,-0.049176,0.001000,0.001000,0.001000,0.001000,0.001000
1020.326923,-0.049364,0.001000,0.001000,0.001000,0.001000,0.001000
1020.346154,-0.049528,0.001000,0.001000,0.001000,0.001000,0.001000
1020.365385,-0.049667,0.001000,0.001000,0.001000,0.001000,0.001000
1020.384615,-0.049783,0.001000,0.001000,0.001000,0.001000,0.001000
1020.403846,-0.049874,0.001000,0.001000,0.001000,0.001000,0.001000
1020.423077,-0.049940,0.001000,0.001000,0.001000,0.001000,0.001000
1020.442308,-0.049982,0.001000,0.001000,0.001000,0.001000,0.001000
1020.461538,-0.049999,0.001000,0.001000,0.001000,0.001000,0.001000
1020.480769,-0.049992,0.001000,0.001000,0.001000,0.001000,0.001000
1020.500000,-0.049961,0.001000,0.001000,0.001000,0.001000,0.001000
1020.519231,-0.049905,0.001000,0.001000,0.001000,0.001000,0.001000
1020.538462,-0.049824,0.001000,0.001000,0.001000,0.001000,0.001000
1020.557692,-0.049719,0.001000,0.001000,0.001000,0.001000,0.001000
1020.576923,-0.049590,0.001000,0.001000,0.001000,0.001000,0.001000
1020.596154,-0.049437,0.001000,0.001000,0.001000,0.001000,0.001000
1020.615385,-0.049259,0.001000,0.001000,0.001000,0.001000,0.001000
1020.634615,-0.049057,0.001000,0.001000,0.001000,0.001000,0.001000
1020.653846,-0.048831,0.001000,0.001000,0.001000,0.001000,0.001000
1020.673077,-0.048581,0.001000,0.001000,0.001000,0.001000,0.001000
1020.692308,-0.048307,0.001000,0.001000,0.001000,0.001000,0.001000
1020.711538,-0.048010,0.001000,0.001000,0.001000,0.001000,0.001000
1020.730769,-0.047689,0.001000,0.001000,0.001000,0.001000,0.001000
1020.750000,-0.047344,0.001000,0.001000,0.001000,0.001000,0.001000
1020.769231,-0.046977,0.001000,0.001000,0.001000,0.001000,0.001000
1020.788462,-0.046586,0.001000,0.001000,0.001000,0.001000,0.001000
1020.807692,-0.046173,0.001000,0.001000,0.001000,0.001000,0.001000
1020.826923,-0.045737,0.001000,0.001000,0.001000,0.001000,0.001000
1020.846154,-0.045278,0.001000,0.001000,0.001000,0.001000,0.001000
1020.865385,-0.044798,0.001000,0.001000,0.001000,0.001000,0.001000
1020.884615,-0.044295,0.001000,0.001000,0.001000,0.001000,0.001000
1020.903846,-0.043771,0.001000,0.001000,0.001000,0.001000,0.001000
1020.923077,-0.043225,0.001000,0.001000,0.001000,0.001000,0.001000
1020.942308,-0.042658,0.001000,0.001000,0.001000,0.001000,0.001000
1020.961538,-0.042070,0.001000,0.001000,0.001000,0.001000,0.001000
1020.980769,-0.041462,0.001000,0.001000,0.001000,0.001000,0.001000
1021.000000,-0.040833,0.001000,0.001000,0.001000,0.001000,0.001000
1021.019231,-0.040184,0.001000,0.001000,0.001000,0.001000,0.001000
1021.038462,-0.039515,0.001000,0.001000,0.001000,0.001000,0.001000
1021.057692,-0.038827,0.001000,0.001000,0.001000,0.001000,0.001000
1021.076923,-0.038120,0.001000,0.001000,0.001000,0.001000,0.001000
1021.096154,-0.037395,0.001000,0.001000,0.001000,0.001000,0.001000
1021.115385,-0.036651,0.001000,0.001000,0.001000,0.001000,0.001000
1021.134615,-0.035889,0.001000,0.001000,0.001000,0.001000,0.001000
1021.153846,-0.035109,0.001000,0.001000,0.001000,0.001000,0.001000
1021.173077,-0.034313,0.001000,0.001000,0.001000,0.001000,0.001000
1021.192308,-0.033499,0.001000,0.001000,0.001000,0.001000,0.001000
1021.211538,-0.032669,0.001000,0.001000,0.001000,0.001000,0.001000
1021.230769,-0.031823,0.001000,0.001000,0.001000,0.001000,0.001000
1021.250000,-0.030962,0.001000,0.001000,0.001000,0.001000,0.001000
1021.269231,-0.030085,0.001000,0.001000,0.001000,0.001000,0.001000
1021.288462,-0.029193,0.001000,0.001000,0.001000,0.001000,0.001000
1021.307692,-0.028288,0.001000,0.001000,0.001000,0.001000,0.001000
1021.326923,-0.027368,0.001000,0.001000,0.001000,0.001000,0.001000
1021.346154,-0.026435,0.001000,0.001000,0.001000,0.001000,0.001000
1021.365385,-0.025489,0.001000,0.001000,0.001000,0.001000,0.001000
1021.384615,-0.024530,0.001000,0.001000,0.001000,0.001000,0.001000
1021.403846,-0.023560,0.001000,0.001000,0.001000,0.001000,0.001000
1021.423077,-0.022578,0.001000,0.001000,0.001000,0.001000,0.001000
1021.442308,-0.021584,0.001000,0.001000,0.001000,0.001000,0.001000
1021.461538,-0.020581,0.001000,0.001000,0.001000,0.001000,0.001000
1021.480769,-0.019567,0.001000,0.001000,0.001000,0.001000,0.001000
1021.500000,-0.018543,0.001000,0.001000,0.001000,0.001000,0.001000
1021.519231,-0.017511,0.001000,0.001000,0.001000,0.001000,0.001000
1021.538462,-0.016470,0.001000,0.001000,0.001000,0.001000,0.001000
1021.557692,-0.015421,0.001000,0.001000,0.001000,0.001000,0.001000
1021.576923,-0.014364,0.001000,0.001000,0.001000,0.001000,0.001000
1021.596154,-0.013300,0.001000,0.001000,0.001000,0.001000,0.001000
1021.615385,-0.012230,0.001000,0.001000,0.001000,0.001000,0.001000
1021.634615,-0.011153,0.001000,0.001000,0.001000,0.001000,0.001000
1021.653846,-0.010072,0.001000,0.001000,0.001000,0.001000,0.001000
1021.673077,-0.008985,0.001000,0.001000,0.001000,0.001000,0.001000
1021.692308,-0.007894,0.001000,0.001000,0.001000,0.001000,0.001000
1021.711538,-0.006799,0.001000,0.001000,0.001000,0.001000,0.001000
1021.730769,-0.005701,0.001000,0.001000,0.001000,0.001000,0.001000
1021.750000,-0.004599,0.001000,0.001000,0.001000,0.001000,0.001000
1021.769231,-0.003496,0.001000,0.001000,0.001000,0.001000,0.001000
1021.788462,-0.002391,0.001000,0.001000,0.001000,0.001000,0.001000
1021.807692,-0.001285,0.001000,0.001000,0.001000,0.001000,0.001000
1021.826923,-0.000178,0.001000,0.001000,0.001000,0.001000,0.001000
1021.846154,0.000929,0.001000,0.001000,0.001000,0.001000,0.001000
1021.865385,0.002036,0.001000,0.001000,0.001000,0.001000,0.001000
1021.884615,0.003141,0.001000,0.001000,0.001000,0.001000,0.001000
1021.903846,0.004245,0.001000,0.001000,0.001000,0.001000,0.001000
1021.923077,0.005347,0.001000,0.001000,0.001000,0.001000,0.001000
1021.942308,0.006446,0.001000,0.001000,0.001000,0.001000,0.001000
1021.961538,0.007542,0.001000,0.001000,0.001000,0.001000,0.001000
1021.980769,0.008635,0.001000,0.001000,0.001000,0.001000,0.001000
1022.000000,0.009723,0.001000,0.001000,0.001000,0.001000,0.001000
1022.019231,0.010806,0.001000,0.001000,0.001000,0.001000,0.001000
1022.038462,0.011884,0.001000,0.001000,0.001000,0.001000,0.001000
1022.057692,0.012957,0.001000,0.001000,0.001000,0.001000,0.001000
1022.076923,0.014023,0.001000,0.001000,0.001000,0.001000,0.001000
1022.096154,0.015082,0.001000,0.001000,0.001000,0.001000,0.001000
1022.115385,0.016133,0.001000,0.001000,0.001000,0.001000,0.001000
1022.134615,0.017177,0.001000,0.001000,0.001000,0.001000,0.001000
1022.153846,0.018212,0.001000,0.001000,0.001000,0.001000,0.001000
1022.173077,0.019239,0.001000,0.001000,0.001000,0.001000,0.001000
1022.192308,0.020256,0.001000,0.001000,0.001000,0.001000,0.001000
1022.211538,0.021263,0.001000,0.001000,0.001000,0.001000,0.001000
1022.230769,0.022260,0.001000,0.001000,0.001000,0.001000,0.001000
1022.250000,0.023245,0.001000,0.001000,0.001000,0.001000,0.001000
1022.269231,0.024220,0.001000,0.001000,0.001000,0.001000,0.001000
1022.288462,0.025182,0.001000,0.001000,0.001000,0.001000,0.001000
1022.307692,0.026132,0.001000,0.001000,0.001000,0.001000,0.001000
1022.326923,0.027069,0.001000,0.001000,0.001000,0.001000,0.001000
1022.346154,0.027993,0.001000,0.001000,0.001000,0.001000,0.001000
1022.365385,0.028904,0.001000,0.001000,0.001000,0.001000,0.001000
1022.384615,0.029800,0.001000,0.001000,0.001000,0.001000,0.001000
1022.403846,0.030681,0.001000,0.001000,0.001000,0.001000,0.001000
1022.423077,0.031548,0.001000,0.001000,0.001000,0.001000,0.001000
1022.442308,0.032399,0.001000,0.001000,0.001000,0.001000,0.001000
1022.461538,0.033234,0.001000,0.001000,0.001000,0.001000,0.001000
1022.480769,0.034053,0.001000,0.001000,0.001000,0.001000,0.001000
1022.500000,0.034855,0.001000,0.001000,0.001000,0.001000,0.001000
1022.519231,0.035640,0.001000,0.001000,0.001000,0.001000,0.001000
1022.538462,0.036408,0.001000,0.001000,0.001000,0.001000,0.001000
1022.557692,0.037158,0.001000,0.001000,0.001000,0.001000,0.001000
1022.576923,0.037889,0.001000,0.001000,0.001000,0.001000,0.001000
1022.596154,0.038602,0.001000,0.001000,0.001000,0.001000,0.001000
1022.615385,0.039296,0.001000,0.001000,0.001000,0.001000,0.001000
1022.634615,0.039971,0.001000,0.001000,0.001000,0.001000,0.001000
1022.653846,0.040626,0.001000,0.001000,0.001000,0.001000,0.001000
1022.673077,0.041262,0.001000,0.001000,0.001000,0.001000,0.001000
1022.692308,0.041877,0.001000,0.001000,0.001000,0.001000,0.001000
1022.711538,0.042471,0.001000,0.001000,0.001000,0.001000,0.001000
1022.730769,0.043045,0.001000,0.001000,0.001000,0.001000,0.001000
1022.750000,0.043598,0.001000,0.001000,0.001000,0.001000,0.001000
1022.769231,0.044129,0.001000,0.001000,0.001000,0.001000,0.001000
1022.788462,0.044638,0.001000,0.001000,0.001000,0.001000,0.001000
1022.807692,0.045126,0.001000,0.001000,0.001000,0.001000,0.001000
1022.826923,0.045592,0.001000,0.001000,0.001000,0.001000,0.001000
1022.846154,0.046035,0.001000,0.001000,0.001000,0.001000,0.001000
1022.865385,0.046456,0.001000,0.001000,0.001000,0.001000,0.001000
1022.884615,0.046854,0.001000,0.001000,0.001000,0.001000,0.001000
1022.903846,0.047229,0.001000,0.001000,0.001000,0.001000,0.001000
1022.923077,0.047581,0.001000,0.001000,0.001000,0.001000,0.001000
1022.942308,0.047909,0.001000,0.001000,0.001000,0.001000,0.001000
1022.961538,0.048214,0.001000,0.001000,0.001000,0.001000,0.001000
1022.980769,0.048495,0.001000,0.001000,0.001000,0.001000,0.001000
1023.000000,0.048753,0.001000,0.001000,0.001000,0.001000,0.001000
1023.019231,0.048987,0.001000,0.001000,0.001000,0.001000,0.001000
1023.038462,0.049196,0.001000,0.001000,0.001000,0.001000,0.001000
1023.057692,0.049382,0.001000,0.001000,0.001000,0.001000,0.001000
1023.076923,0.049543,0.001000,0.001000,0.001000,0.001000,0.001000
1023.096154,0.049681,0.001000,0.001000,0.001000,0.001000,0.001000
1023.115385,0.049793,0.001000,0.001000,0.001000,0.001000,0.001000
1023.134615,0.049882,0.001000,0.001000,0.001000,0.001000,0.001000
1023.153846,0.049946,0.001000,0.001000,0.001000,0.001000,0.001000
1023.173077,0.049985,0.001000,0.001000,0.001000,0.001000,0.001000
1023.192308,0.050000,0.001000,0.001000,0.001000,0.001000,0.001000
1023.211538,0.049990,0.001000,0.001000,0.001000,0.001000,0.001000
1023.230769,0.049956,0.001000,0.001000,0.001000,0.001000,0.001000
1023.250000,0.049898,0.001000,0.001000,0.001000,0.001000,0.001000
1023.269231,0.049815,0.001000,0.001000,0.001000,0.001000,0.001000
1023.288462,0.049707,0.001000,0.001000,0.001000,0.001000,0.001000
1023.307692,0.049575,0.001000,0.001000,0.001000,0.001000,0.001000
1023.326923,0.049419,0.001000,0.001000,0.001000,0.001000,0.001000
1023.346154,0.049239,0.001000,0.001000,0.001000,0.001000,0.001000
1023.365385,0.049034,0.001000,0.001000,0.001000,0.001000,0.001000
1023.384615,0.048806,0.001000,0.001000,0.001000,0.001000,0.001000
1023.403846,0.048553,0.001000,0.001000,0.001000,0.001000,0.001000
1023.423077,0.048277,0.001000,0.001000,0.001000,0.001000,0.001000
1023.442308,0.047977,0.001000,0.001000,0.001000,0.001000,0.001000
1023.461538,0.047654,0.001000,0.001000,0.001000,0.001000,0.001000
1023.480769,0.047307,0.001000,0.001000,0.001000,0.001000,0.001000
1023.500000,0.046937,0.001000,0.001000,0.001000,0.001000,0.001000
1023.519231,0.046544,0.001000,0.001000,0.001000,0.001000,0.001000
1023.538462,0.046128,0.001000,0.001000,0.001000,0.001000,0.001000
1023.557692,0.045690,0.001000,0.001000,0.001000,0.001000,0.001000
1023.576923,0.045229,0.001000,0.001000,0.001000,0.001000,0.001000
1023.596154,0.044746,0.001000,0.001000,0.001000,0.001000,0.001000
1023.615385,0.044241,0.001000,0.001000,0.001000,0.001000,0.001000
1023.634615,0.043714,0.001000,0.001000,0.001000,0.001000,0.001000
1023.653846,0.043166,0.001000,0.001000,0.001000,0.001000,0.001000
1023.673077,0.042597,0.001000,0.001000,0.001000,0.001000,0.001000
1023.692308,0.042007,0.001000,0.001000,0.001000,0.001000,0.001000
1023.711538,0.041397,0.001000,0.001000,0.001000,0.001000,0.001000
1023.730769,0.040766,0.001000,0.001000,0.001000,0.001000,0.001000
1023.750000,0.040115,0.001000,0.001000,0.001000,0.001000,0.001000
1023.769231,0.039444,0.001000,0.001000,0.001000,0.001000,0.001000
1023.788462,0.038754,0.001000,0.001000,0.001000,0.001000,0.001000
1023.807692,0.038045,0.001000,0.001000,0.001000,0.001000,0.001000
1023.826923,0.037318,0.001000,0.001000,0.001000,0.001000,0.001000
1023.846154,0.036572,0.001000,0.001000,0.001000,0.001000,0.001000
1023.865385,0.035808,0.001000,0.001000,0.001000,0.001000,0.001000
1023.884615,0.035027,0.001000,0.001000,0.001000,0.001000,0.001000
1023.903846,0.034228,0.001000,0.001000,0.001000,0.001000,0.001000
1023.923077,0.033413,0.001000,0.001000,0.001000,0.001000,0.001000
1023.942308,0.032581,0.001000,0.001000,0.001000,0.001000,0.001000
1023.961538,0.031734,0.001000,0.001000,0.001000,0.001000,0.001000
1023.980769,0.030870,0.001000,0.001000,0.001000,0.001000,0.001000
1024.000000,0.029992,0.001000,0.001000,0.001000,0.001000,0.001000
1024.019231,0.029099,0.001000,0.001000,0.001000,0.001000,0.001000
1024.038462,0.028192,0.001000,0.001000,0.001000,0.001000,0.001000
1024.057692,0.027271,0.001000,0.001000,0.001000,0.001000,0.001000
1024.076923,0.026336,0.001000,0.001000,0.001000,0.001000,0.001000
1024.096154,0.025389,0.001000,0.001000,0.001000,0.001000,0.001000
1024.115385,0.024429,0.001000,0.001000,0.001000,0.001000,0.001000
1024.134615,0.023457,0.001000,0.001000,0.001000,0.001000,0.001000
1024.153846,0.022474,0.001000,0.001000,0.001000,0.001000,0.001000
1024.173077,0.021480,0.001000,0.001000,0.001000,0.001000,0.001000
1024.192308,0.020475,0.001000,0.001000,0.001000,0.001000,0.001000
1024.211538,0.019460,0.001000,0.001000,0.001000,0.001000,0.001000
1024.230769,0.018435,0.001000,0.001000,0.001000,0.001000,0.001000
1024.250000,0.017402,0.001000,0.001000,0.001000,0.001000,0.001000
1024.269231,0.016360,0.001000,0.001000,0.001000,0.001000,0.001000
1024.288462,0.015310,0.001000,0.001000,0.001000,0.001000,0.001000
1024.307692,0.014253,0.001000,0.001000,0.001000,0.001000,0.001000
1024.326923,0.013188,0.001000,0.001000,0.001000,0.001000,0.001000
1024.346154,0.012117,0.001000,0.001000,0.001000,0.001000,0.001000
1024.365385,0.011040,0.001000,0.001000,0.001000,0.001000,0.001000
1024.384615,0.009958,0.001000,0.001000,0.001000,0.001000,0.001000
1024.403846,0.008871,0.001000,0.001000,0.001000,0.001000,0.001000
1024.423077,0.007779,0.001000,0.001000,0.001000,0.001000,0.001000
1024.442308,0.006684,0.001000,0.001000,0.001000,0.001000,0.001000
1024.461538,0.005585,0.001000,0.001000,0.001000,0.001000,0.001000
1024.480769,0.004484,0.001000,0.001000,0.001000,0.001000,0.001000
1024.500000,0.003380,0.001000,0.001000,0.001000,0.001000,0.001000
1024.519231,0.002275,0.001000,0.001000,0.001000,0.001000,0.001000
1024.538462,0.001169,0.001000,0.001000,0.001000,0.001000,0.001000
1024.557692,0.000062,0.001000,0.001000,0.001000,0.001000,0.001000
1024.576923,-0.001045,0.001000,0.001000,0.001000,0.001000,0.001000
1024.596154,-0.002152,0.001000,0.001000,0.001000,0.001000,0.001000
1024.615385,-0.003257,0.001000,0.001000,0.001000,0.001000,0.001000
1024.634615,-0.004361,0.001000,0.001000,0.001000,0.001000,0.001000
1024.653846,-0.005462,0.001000,0.001000,0.001000,0.001000,0.001000
1024.673077,-0.006561,0.001000,0.001000,0.001000,0.001000,0.001000
1024.692308,-0.007657,0.001000,0.001000,0.001000,0.001000,0.001000
1024.711538,-0.008749,0.001000,0.001000,0.001000,0.001000,0.001000
1024.730769,-0.009837,0.001000,0.001000,0.001000,0.001000,0.001000
1024.750000,-0.010920,0.001000,0.001000,0.001000,0.001000,0.001000
1024.769231,-0.011997,0.001000,0.001000,0.001000,0.001000,0.001000
1024.788462,-0.013069,0.001000,0.001000,0.001000,0.001000,0.001000
1024.807692,-0.014134,0.001000,0.001000,0.001000,0.001000,0.001000
1024.826923,-0.015192,0.001000,0.001000,0.001000,0.001000,0.001000
1024.846154,-0.016243,0.001000,0.001000,0.001000,0.001000,0.001000
1024.865385,-0.017286,0.001000,0.001000,0.001000,0.001000,0.001000
1024.884615,-0.018321,0.001000,0.001000,0.001000,0.001000,0.001000
1024.903846,-0.019346,0.001000,0.001000,0.001000,0.001000,0.001000
1024.923077,-0.020362,0.001000,0.001000,0.001000,0.001000,0.001000
1024.942308,-0.021368,0.001000,0.001000,0.001000,0.001000,0.001000
1024.961538,-0.022363,0.001000,0.001000,0.001000,0.001000,0.001000
1024.980769,-0.023348,0.001000,0.001000,0.001000,0.001000,0.001000
1025.000000,-0.024321,0.001000,0.001000,0.001000,0.001000,0.001000
1025.019231,-0.025282,0.001000,0.001000,0.001000,0.001000,0.001000
1025.038462,-0.026231,0.001000,0.001000,0.001000,0.001000,0.001000
1025.057692,-0.027167,0.001000,0.001000,0.001000,0.001000,0.001000
1025.076923,-0.028090,0.001000,0.001000,0.001000,0.001000,0.001000
1025.096154,-0.028998,0.001000,0.001000,0.001000,0.001000,0.001000
1025.115385,-0.029893,0.001000,0.001000,0.001000,0.001000,0.001000
1025.134615,-0.030773,0.001000,0.001000,0.001000,0.001000,0.001000
1025.153846,-0.031638,0.001000,0.001000,0.001000,0.001000,0.001000
1025.173077,-0.032487,0.001000,0.001000,0.001000,0.001000,0.001000
1025.192308,-0.033321,0.001000,0.001000,0.001000,0.001000,0.001000
1025.211538,-0.034138,0.001000,0.001000,0.001000,0.001000,0.001000
1025.230769,-0.034938,0.001000,0.001000,0.001000,0.001000,0.001000
1025.250000,-0.035722,0.001000,0.001000,0.001000,0.001000,0.001000
1025.269231,-0.036487,0.001000,0.001000,0.001000,0.001000,0.001000
1025.288462,-0.037235,0.001000,0.001000,0.001000,0.001000,0.001000
1025.307692,-0.037965,0.001000,0.001000,0.001000,0.001000,0.001000
1025.326923,-0.038676,0.001000,0.001000,0.001000,0.001000,0.001000
1025.346154,-0.039368,0.001000,0.001000,0.001000,0.001000,0.001000
1025.365385,-0.040041,0.001000,0.001000,0.001000,0.001000,0.001000
1025.384615,-0.040694,0.001000,0.001000,0.001000,0.001000,0.001000
1025.403846,-0.041327,0.001000,0.001000,0.001000,0.001000,0.001000
1025.423077,-0.041940,0.001000,0.001000,0.001000,0.001000,0.001000
1025.442308,-0.042532,0.001000,0.001000,0.001000,0.001000,0.001000
1025.461538,-0.043104,0.001000,0.001000,0.001000,0.001000,0.001000
1025.480769,-0.043654,0.001000,0.001000,0.001000,0.001000,0.001000
1025.500000,-0.044183,0.001000,0.001000,0.001000,0.001000,0.001000
1025.519231,-0.044691,0.001000,0.001000,0.001000,0.001000,0.001000
1025.538462,-0.045176,0.001000,0.001000,0.001000,0.001000,0.001000
1025.557692,-0.045639,0.001000,0.001000,0.001000,0.001000,0.001000
1025.576923,-0.046080,0.001000,0.001000,0.001000,0.001000,0.001000
1025.596154,-0.046499,0.001000,0.001000,0.001000,0.001000,0.001000
1025.615385,-0.046894,0.001000,0.001000,0.001000,0.001000,0.001000
1025.634615,-0.047267,0.001000,0.001000,0.001000,0.001000,0.001000
1025.653846,-0.047616,0.001000,0.001000,0.001000,0.001000,0.001000
1025.673077,-0.047942,0.001000,0.001000,0.001000,0.001000,0.001000
1025.692308,-0.048245,0.001000,0.001000,0.001000,0.001000,0.001000
1025.711538,-0.048524,0.001000,0.001000,0.001000,0.001000,0.001000
1025.730769,-0.048779,0.001000,0.001000,0.001000,0.001000,0.001000
1025.750000,-0.049010,0.001000,0.001000,0.001000,0.001000,0.001000
1025.769231,-0.049217,0.001000,0.001000,0.001000,0.001000,0.001000
1025.788462,-0.049400,0.001000,0.001000,0.001000,0.001000,0.001000
1025.807692,-0.049559,0.001000,0.001000,0.001000,0.001000,0.001000
1025.826923,-0.049694,0.001000,0.001000,0.001000,0.001000,0.001000
1025.846154,-0.049804,0.001000,0.001000,0.001000,0.001000,0.001000
1025.865385,-0.049890,0.001000,0.001000,0.001000,0.001000,0.001000
1025.884615,-0.049951,0.001000,0.001000,0.001000,0.001000,0.001000
1025.903846,-0.049988,0.001000,0.001000,0.001000,0.001000,0.001000
1025.923077,-0.050000,0.001000,0.001000,0.001000,0.001000,0.001000
1025.942308,-0.049988,0.001000,0.001000,0.001000,0.001000,0.001000
1025.961538,-0.049951,0.001000,0.001000,0.001000,0.001000,0.001000
1025.980769,-0.049890,0.001000,0.001000,0.001000,0.001000,0.001000
1026.000000,-0.049804,0.001000,0.001000,0.001000,0.001000,0.001000
1026.019231,-0.049694,0.001000,0.001000,0.001000,0.001000,0.001000
1026.038462,-0.049560,0.001000,0.001000,0.001000,0.001000,0.001000
1026.057692,-0.049401,0.001000,0.001000,0.001000,0.001000,0.001000
1026.076923,-0.049218,0.001000,0.001000,0.001000,0.001000,0.001000
1026.096154,-0.049011,0.001000,0.001000,0.001000,0.001000,0.001000
1026.115385,-0.048780,0.001000,0.001000,0.001000,0.001000,0.001000
1026.134615,-0.048525,0.001000,0.001000,0.001000,0.001000,0.001000
1026.153846,-0.048247,0.001000,0.001000,0.001000,0.001000,0.001000
1026.173077,-0.047944,0.001000,0.001000,0.001000,0.001000,0.001000
1026.192308,-0.047618,0.001000,0.001000,0.001000,0.001000,0.001000
1026.211538,-0.047269,0.001000,0.001000,0.001000,0.001000,0.001000
1026.230769,-0.046897,0.001000,0.001000,0.001000,0.001000,0.001000
1026.250000,-0.046501,0.001000,0.001000,0.001000,0.001000,0.001000
1026.269231,-0.046083,0.001000,0.001000,0.001000,0.001000,0.001000
1026.288462,-0.045642,0.001000,0.001000,0.001000,0.001000,0.001000
1026.307692,-0.045179,0.001000,0.001000,0.001000,0.001000,0.001000
1026.326923,-0.044694,0.001000,0.001000,0.001000,0.001000,0.001000
1026.346154,-0.044187,0.001000,0.001000,0.001000,0.001000,0.001000
1026.365385,-0.043658,0.001000,0.001000,0.001000,0.001000,0.001000
1026.384615,-0.043108,0.001000,0.001000,0.001000,0.001000,0.001000
1026.403846,-0.042536,0.001000,0.001000,0.001000,0.001000,0.001000
1026.423077,-0.041944,0.001000,0.001000,0.001000,0.001000,0.001000
1026.442308,-0.041331,0.001000,0.001000,0.001000,0.001000,0.001000
1026.461538,-0.040698,0.001000,0.001000,0.001000,0.001000,0.001000
1026.480769,-0.040045,0.001000,0.001000,0.001000,0.001000,0.001000
1026.500000,-0.039373,0.001000,0.001000,0.001000,0.001000,0.001000
1026.519231,-0.038681,0.001000,0.001000,0.001000,0.001000,0.001000
1026.538462,-0.037970,0.001000,0.001000,0.001000,0.001000,0.001000
1026.557692,-0.037240,0.001000,0.001000,0.001000,0.001000,0.001000
1026.576923,-0.036492,0.001000,0.001000,0.001000,0.001000,0.001000
1026.596154,-0.035727,0.001000,0.001000,0.001000,0.001000,0.001000
1026.615385,-0.034944,0.001000,0.001000,0.001000,0.001000,0.001000
1026.634615,-0.034143,0.001000,0.001000,0.001000,0.001000,0.001000
1026.653846,-0.033326,0.001000,0.001000,0.001000,0.001000,0.001000
1026.673077,-0.032493,0.001000,0.001000,0.001000,0.001000,0.001000
1026.692308,-0.031644,0.001000,0.001000,0.001000,0.001000,0.001000
1026.711538,-0.030779,0.001000,0.001000,0.001000,0.001000,0.001000
1026.730769,-0.029899,0.001000,0.001000,0.001000,0.001000,0.001000
1026.750000,-0.029005,0.001000,0.001000,0.001000,0.001000,0.001000
1026.769231,-0.028096,0.001000,0.001000,0.001000,0.001000,0.001000
1026.788462,-0.027173,0.001000,0.001000,0.001000,0.001000,0.001000
1026.807692,-0.026237,0.001000,0.001000,0.001000,0.001000,0.001000
1026.826923,-0.025289,0.001000,0.001000,0.001000,0.001000,0.001000
1026.846154,-0.024328,0.001000,0.001000,0.001000,0.001000,0.001000
1026.865385,-0.023355,0.001000,0.001000,0.001000,0.001000,0.001000
1026.884615,-0.022370,0.001000,0.001000,0.001000,0.001000,0.001000
1026.903846,-0.021375,0.001000,0.001000,0.001000,0.001000,0.001000
1026.923077,-0.020369,0.001000,0.001000,0.001000,0.001000,0.001000
1026.942308,-0.019353,0.001000,0.001000,0.001000,0.001000,0.001000
1026.961538,-0.018327,0.001000,0.001000,0.001000,0.001000,0.001000
1026.980769,-0.017293,0.001000,0.001000,0.001000,0.001000,0.001000
1027.000000,-0.016250,0.001000,0.001000,0.001000,0.001000,0.001000
1027.019231,-0.015199,0.001000,0.001000,0.001000,0.001000,0.001000
1027.038462,-0.014141,0.001000,0.001000,0.001000,0.001000,0.001000
1027.057692,-0.013076,0.001000,0.001000,0.001000,0.001000,0.001000
1027.076923,-0.012004,0.001000,0.001000,0.001000,0.001000,0.001000
1027.096154,-0.010927,0.001000,0.001000,0.001000,0.001000,0.001000
1027.115385,-0.009844,0.001000,0.001000,0.001000,0.001000,0.001000
1027.134615,-0.008756,0.001000,0.001000,0.001000,0.001000,0.001000
1027.153846,-0.007664,0.001000,0.001000,0.001000,0.001000,0.001000
1027.173077,-0.006569,0.001000,0.001000,0.001000,0.001000,0.001000
1027.192308,-0.005470,0.001000,0.001000,0.001000,0.001000,0.001000
1027.211538,-0.004368,0.001000,0.001000,0.001000,0.001000,0.001000
1027.230769,-0.003264,0.001000,0.001000,0.001000,0.001000,0.001000
1027.250000,-0.002159,0.001000,0.001000,0.001000,0.001000,0.001000
1027.269231,-0.001053,0.001000,0.001000,0.001000,0.001000,0.001000
1027.288462,0.000054,0.001000,0.001000,0.001000,0.001000,0.001000
1027.307692,0.001161,0.001000,0.001000,0.001000,0.001000,0.001000
1027.326923,0.002268,0.001000,0.001000,0.001000,0.001000,0.001000
1027.346154,0.003373,0.001000,0.001000,0.001000,0.001000,0.001000
1027.365385,0.004476,0.001000,0.001000,0.001000,0.001000,0.001000
1027.384615,0.005578,0.001000,0.001000,0.001000,0.001000,0.001000
1027.403846,0.006676,0.001000,0.001000,0.001000,0.001000,0.001000
1027.423077,0.007772,0.001000,0.001000,0.001000,0.001000,0.001000
1027.442308,0.008863,0.001000,0.001000,0.001000,0.001000,0.001000
1027.461538,0.009951,0.001000,0.001000,0.001000,0.001000,0.001000
1027.480769,0.011033,0.001000,0.001000,0.001000,0.001000,0.001000
1027.500000,0.012110,0.001000,0.001000,0.001000,0.001000,0.001000
1027.519231,0.013181,0.001000,0.001000,0.001000,0.001000,0.001000
1027.538462,0.014245,0.001000,0.001000,0.001000,0.001000,0.001000
1027.557692,0.015303,0.001000,0.001000,0.001000,0.001000,0.001000
1027.576923,0.016353,0.001000,0.001000,0.001000,0.001000,0.001000
1027.596154,0.017395,0.001000,0.001000,0.001000,0.001000,0.001000
1027.615385,0.018429,0.001000,0.001000,0.001000,0.001000,0.001000
1027.634615,0.019453,0.001000,0.001000,0.001000,0.001000,0.001000
1027.653846,0.020468,0.001000,0.001000,0.001000,0.001000,0.001000
1027.673077,0.021473,0.001000,0.001000,0.001000,0.001000,0.001000
1027.692308,0.022467,0.001000,0.001000,0.001000,0.001000,0.001000
1027.711538,0.023451,0.001000,0.001000,0.001000,0.001000,0.001000
1027.730769,0.024422,0.001000,0.001000,0.001000,0.001000,0.001000
1027.750000,0.025382,0.001000,0.001000,0.001000,0.001000,0.001000
1027.769231,0.026330,0.001000,0.001000,0.001000,0.001000,0.001000
1027.788462,0.027264,0.001000,0.001000,0.001000,0.001000,0.001000
1027.807692,0.028186,0.001000,0.001000,0.001000,0.001000,0.001000
1027.826923,0.029093,0.001000,0.001000,0.001000,0.001000,0.001000
1027.846154,0.029986,0.001000,0.001000,0.001000,0.001000,0.001000
1027.865385,0.030865,0.001000,0.001000,0.001000,0.001000,0.001000
1027.884615,0.031728,0.001000,0.001000,0.001000,0.001000,0.001000
1027.903846,0.032576,0.001000,0.001000,0.001000,0.001000,0.001000
1027.923077,0.033407,0.001000,0.001000,0.001000,0.001000,0.001000
1027.942308,0.034223,0.001000,0.001000,0.001000,0.001000,0.001000
1027.961538,0.035021,0.001000,0.001000,0.001000,0.001000,0.001000
1027.980769,0.035803,0.001000,0.001000,0.001000,0.001000,0.001000
1028.000000,0.036567,0.001000,0.001000,0.001000,0.001000,0.001000
1028.019231,0.037313,0.001000,0.001000,0.001000,0.001000,0.001000
1028.038462,0.038040,0.001000,0.001000,0.001000,0.001000,0.001000
1028.057692,0.038749,0.001000,0.001000,0.001000,0.001000,0.001000
1028.076923,0.039439,0.001000,0.001000,0.001000,0.001000,0.001000
1028.096154,0.040110,0.001000,0.001000,0.001000,0.001000,0.001000
1028.115385,0.040761,0.001000,0.001000,0.001000,0.001000,0.001000
1028.134615,0.041392,0.001000,0.001000,0.001000,0.001000,0.001000
1028.153846,0.042003,0.001000,0.001000,0.001000,0.001000,0.001000
1028.173077,0.042593,0.001000,0.001000,0.001000,0.001000,0.001000
1028.192308,0.043163,0.001000,0.001000,0.001000,0.001000,0.001000
1028.211538,0.043711,0.001000,0.001000,0.001000,0.001000,0.001000
1028.230769,0.044238,0.001000,0.001000,0.001000,0.001000,0.001000
1028.250000,0.044743,0.001000,0.001000,0.001000,0.001000,0.001000
1028.269231,0.045226,0.001000,0.001000,0.001000,0.001000,0.001000
1028.288462,0.045687,0.001000,0.001000,0.001000,0.001000,0.001000
1028.307692,0.046125,0.001000,0.001000,0.001000,0.001000,0.001000
1028.326923,0.046541,0.001000,0.001000,0.001000,0.001000,0.001000
1028.346154,0.046934,0.001000,0.001000,0.001000,0.001000,0.001000
1028.365385,0.047304,0.001000,0.001000,0.001000,0.001000,0.001000
1028.384615,0.047651,0.001000,0.001000,0.001000,0.001000,0.001000
1028.403846,0.047975,0.001000,0.001000,0.001000,0.001000,0.001000
1028.423077,0.048275,0.001000,0.001000,0.001000,0.001000,0.001000
1028.442308,0.048551,0.001000,0.001000,0.001000,0.001000,0.001000
1028.461538,0.048804,0.001000,0.001000,0.001000,0.001000,0.001000
1028.480769,0.049033,0.001000,0.001000,0.001000,0.001000,0.001000
1028.500000,0.049237,0.001000,0.001000,0.001000,0.001000,0.001000
1028.519231,0.049418,0.001000,0.001000,0.001000,0.001000,0.001000
1028.538462,0.049574,0.001000,0.001000,0.001000,0.001000,0.001000
1028.557692,0.049706,0.001000,0.001000,0.001000,0.001000,0.001000
1028.576923,0.049814,0.001000,0.001000,0.001000,0.001000,0.001000
1028.596154,0.049897,0.001000,0.001000,0.001000,0.001000,0.001000
1028.615385,0.049956,0.001000,0.001000,0.001000,0.001000,0.001000
1028.634615,0.049990,0.001000,0.001000,0.001000,0.001000,0.001000
1028.653846,0.050000,0.001000,0.001000,0.001000,0.001000,0.001000
1028.673077,0.049985,0.001000,0.001000,0.001000,0.001000,0.001000
1028.692308,0.049946,0.001000,0.001000,0.001000,0.001000,0.001000
1028.711538,0.049882,0.001000,0.001000,0.001000,0.001000,0.001000
1028.730769,0.049794,0.001000,0.001000,0.001000,0.001000,0.001000
1028.750000,0.049681,0.001000,0.001000,0.001000,0.001000,0.001000
1028.769231,0.049544,0.001000,0.001000,0.001000,0.001000,0.001000
1028.788462,0.049383,0.001000,0.001000,0.001000,0.001000,0.001000
1028.807692,0.049198,0.001000,0.001000,0.001000,0.001000,0.001000
1028.826923,0.048988,0.001000,0.001000,0.001000,0.001000,0.001000
1028.846154,0.048755,0.001000,0.001000,0.001000,0.001000,0.001000
1028.865385,0.048497,0.001000,0.001000,0.001000,0.001000,0.001000
1028.884615,0.048216,0.001000,0.001000,0.001000,0.001000,0.001000
1028.903846,0.047911,0.001000,0.001000,0.001000,0.001000,0.001000
1028.923077,0.047583,0.001000,0.001000,0.001000,0.001000,0.001000
1028.942308,0.047231,0.001000,0.001000,0.001000,0.001000,0.001000
1028.961538,0.046856,0.001000,0.001000,0.001000,0.001000,0.001000
1028.980769,0.046459,0.001000,0.001000,0.001000,0.001000,0.001000
1029.000000,0.046038,0.001000,0.001000,0.001000,0.001000,0.001000
1029.019231,0.045595,0.001000,0.001000,0.001000,0.001000,0.001000
1029.038462,0.045129,0.001000,0.001000,0.001000,0.001000,0.001000
1029.057692,0.044642,0.001000,0.001000,0.001000,0.001000,0.001000
1029.076923,0.044132,0.001000,0.001000,0.001000,0.001000,0.001000
1029.096154,0.043601,0.001000,0.001000,0.001000,0.001000,0.001000
1029.115385,0.043049,0.001000,0.001000,0.001000,0.001000,0.001000
1029.134615,0.042475,0.001000,0.001000,0.001000,0.001000,0.001000
1029.153846,0.041881,0.001000,0.001000,0.001000,0.001000,0.001000
1029.173077,0.041266,0.001000,0.001000,0.001000,0.001000,0.001000
1029.192308,0.040631,0.001000,0.001000,0.001000,0.001000,0.001000
1029.211538,0.039976,0.001000,0.001000,0.001000,0.001000,0.001000
1029.230769,0.039301,0.001000,0.001000,0.001000,0.001000,0.001000
1029.250000,0.038607,0.001000,0.001000,0.001000,0.001000,0.001000
1029.269231,0.037894,0.001000,0.001000,0.001000,0.001000,0.001000
1029.288462,0.037163,0.001000,0.001000,0.001000,0.001000,0.001000
1029.307692,0.036413,0.001000,0.001000,0.001000,0.001000,0.001000
1029.326923,0.035646,0.001000,0.001000,0.001000,0.001000,0.001000
1029.346154,0.034861,0.001000,0.001000,0.001000,0.001000,0.001000
1029.365385,0.034058,0.001000,0.001000,0.001000,0.001000,0.001000
1029.384615,0.033240,0.001000,0.001000,0.001000,0.001000,0.001000
1029.403846,0.032405,0.001000,0.001000,0.001000,0.001000,0.001000
1029.423077,0.031554,0.001000,0.001000,0.001000,0.001000,0.001000
1029.442308,0.030687,0.001000,0.001000,0.001000,0.001000,0.001000
1029.461538,0.029806,0.001000,0.001000,0.001000,0.001000,0.001000
1029.480769,0.028910,0.001000,0.001000,0.001000,0.001000,0.001000
1029.500000,0.028000,0.001000,0.001000,0.001000,0.001000,0.001000
1029.519231,0.027076,0.001000,0.001000,0.001000,0.001000,0.001000
1029.538462,0.026138,0.001000,0.001000,0.001000,0.001000,0.001000
1029.557692,0.025188,0.001000,0.001000,0.001000,0.001000,0.001000
1029.576923,0.024226,0.001000,0.001000,0.001000,0.001000,0.001000
1029.596154,0.023252,0.001000,0.001000,0.001000,0.001000,0.001000
1029.615385,0.022266,0.001000,0.001000,0.001000,0.001000,0.001000
1029.634615,0.021270,0.001000,0.001000,0.001000,0.001000,0.001000
1029.653846,0.020263,0.001000,0.001000,0.001000,0.001000,0.001000
1029.673077,0.019246,0.001000,0.001000,0.001000,0.001000,0.001000
1029.692308,0.018219,0.001000,0.001000,0.001000,0.001000,0.001000
1029.711538,0.017184,0.001000,0.001000,0.001000,0.001000,0.001000
1029.730769,0.016140,0.001000,0.001000,0.001000,0.001000,0.001000
1029.750000,0.015089,0.001000,0.001000,0.001000,0.001000,0.001000
1029.769231,0.014030,0.001000,0.001000,0.001000,0.001000,0.001000
1029.788462,0.012964,0.001000,0.001000,0.001000,0.001000,0.001000
1029.807692,0.011892,0.001000,0.001000,0.001000,0.001000,0.001000
1029.826923,0.010814,0.001000,0.001000,0.001000,0.001000,0.001000
1029.846154,0.009730,0.001000,0.001000,0.001000,0.001000,0.001000
1029.865385,0.008642,0.001000,0.001000,0.001000,0.001000,0.001000
1029.884615,0.007550,0.001000,0.001000,0.001000,0.001000,0.001000
1029.903846,0.006454,0.001000,0.001000,0.001000,0.001000,0.001000
1029.923077,0.005354,0.001000,0.001000,0.001000,0.001000,0.001000
1029.942308,0.004252,0.001000,0.001000,0.001000,0.001000,0.001000
1029.961538,0.003148,0.001000,0.001000,0.001000,0.001000,0.001000
1029.980769,0.002043,0.001000,0.001000,0.001000,0.001000,0.001000
1030.000000,0.000000,0.001000,0.001000,0.001000,0.001000,0.001000
1030.019231,0.001092,0.001000,0.001000,0.001000,0.001000,0.001000
1030.038462,0.002183,0.001000,0.001000,0.001000,0.001000,0.001000
1030.057692,0.003274,0.001000,0.001000,0.001000,0.001000,0.001000
1030.076923,0.004363,0.001000,0.001000,0.001000,0.001000,0.001000
1030.096154,0.005449,0.001000,0.001000,0.001000,0.001000,0.001000
1030.115385,0.006534,0.001000,0.001000,0.001000,0.001000,0.001000
1030.134615,0.007615,0.001000,0.001000,0.001000,0.001000,0.001000
1030.153846,0.008692,0.001000,0.001000,0.001000,0.001000,0.001000
1030.173077,0.009765,0.001000,0.001000,0.001000,0.001000,0.001000
1030.192308,0.010834,0.001000,0.001000,0.001000,0.001000,0.001000
1030.211538,0.011897,0.001000,0.001000,0.001000,0.001000,0.001000
1030.230769,0.012955,0.001000,0.001000,0.001000,0.001000,0.001000
1030.250000,0.014007,0.001000,0.001000,0.001000,0.001000,0.001000
1030.269231,0.015052,0.001000,0.001000,0.001000,0.001000,0.001000
1030.288462,0.016089,0.001000,0.001000,0.001000,0.001000,0.001000
1030.307692,0.017119,0.001000,0.001000,0.001000,0.001000,0.001000
1030.326923,0.018141,0.001000,0.001000,0.001000,0.001000,0.001000
1030.346154,0.019154,0.001000,0.001000,0.001000,0.001000,0.001000
1030.365385,0.020159,0.001000,0.001000,0.001000,0.001000,0.001000
1030.384615,0.021153,0.001000,0.001000,0.001000,0.001000,0.001000
1030.403846,0.022137,0.001000,0.001000,0.001000,0.001000,0.001000
1030.423077,0.023111,0.001000,0.001000,0.001000,0.001000,0.001000
1030.442308,0.024074,0.001000,0.001000,0.001000,0.001000,0.001000
1030.461538,0.025025,0.001000,0.001000,0.001000,0.001000,0.001000
1030.480769,0.025965,0.001000,0.001000,0.001000,0.001000,0.001000
1030.500000,0.026892,0.001000,0.001000,0.001000,0.001000,0.001000
1030.519231,0.027806,0.001000,0.001000,0.001000,0.001000,0.001000
1030.538462,0.028707,0.001000,0.001000,0.001000,0.001000,0.001000
1030.557692,0.029594,0.001000,0.001000,0.001000,0.001000,0.001000
1030.576923,0.030467,0.001000,0.001000,0.001000,0.001000,0.001000
1030.596154,0.031326,0.001000,0.001000,0.001000,0.001000,0.001000
1030.615385,0.032169,0.001000,0.001000,0.001000,0.001000,0.001000
1030.634615,0.032997,0.001000,0.001000,0.001000,0.001000,0.001000
1030.653846,0.033810,0.001000,0.001000,0.001000,0.001000,0.001000
1030.673077,0.034606,0.001000,0.001000,0.001000,0.001000,0.001000
1030.692308,0.035386,0.001000,0.001000,0.001000,0.001000,0.001000
1030.711538,0.036149,0.001000,0.001000,0.001000,0.001000,0.001000
1030.730769,0.036895,0.001000,0.001000,0.001000,0.001000,0.001000
1030.750000,0.037623,0.001000,0.001000,0.001000,0.001000,0.001000
1030.769231,0.038334,0.001000,0.001000,0.001000,0.001000,0.001000
1030.788462,0.039025,0.001000,0.001000,0.001000,0.001000,0.001000
1030.807692,0.039699,0.001000,0.001000,0.001000,0.001000,0.001000
1030.826923,0.040353,0.001000,0.001000,0.001000,0.001000,0.001000
1030.846154,0.040988,0.001000,0.001000,0.001000,0.001000,0.001000
1030.865385,0.041604,0.001000,0.001000,0.001000,0.001000,0.001000
1030.884615,0.042200,0.001000,0.001000,0.001000,0.001000,0.001000
1030.903846,0.042775,0.001000,0.001000,0.001000,0.001000,0.001000
1030.923077,0.043330,0.001000,0.001000,0.001000,0.001000,0.001000
1030.942308,0.043865,0.001000,0.001000,0.001000,0.001000,0.001000
1030.961538,0.044379,0.001000,0.001000,0.001000,0.001000,0.001000
1030.980769,0.044871,0.001000,0.001000,0.001000,0.001000,0.001000
1031.000000,0.045342,0.001000,0.001000,0.001000,0.001000,0.001000
1031.019231,0.045792,0.001000,0.001000,0.001000,0.001000,0.001000
1031.038462,0.046219,0.001000,0.001000,0.001000,0.001000,0.001000
1031.057692,0.046625,0.001000,0.001000,0.001000,0.001000,0.001000
1031.076923,0.047008,0.001000,0.001000,0.001000,0.001000,0.001000
1031.096154,0.047369,0.001000,0.001000,0.001000,0.001000,0.001000
1031.115385,0.047707,0.001000,0.001000,0.001000,0.001000,0.001000
1031.134615,0.048023,0.001000,0.001000,0.001000,0.001000,0.001000
1031.153846,0.048315,0.001000,0.001000,0.001000,0.001000,0.001000
1031.173077,0.048585,0.001000,0.001000,0.001000,0.001000,0.001000
1031.192308,0.048831,0.001000,0.001000,0.001000,0.001000,0.001000
1031.211538,0.049054,0.001000,0.001000,0.001000,0.001000,0.001000
1031.230769,0.049254,0.001000,0.001000,0.001000,0.001000,0.001000
1031.250000,0.049430,0.001000,0.001000,0.001000,0.001000,0.001000
1031.269231,0.049583,0.001000,0.001000,0.001000,0.001000,0.001000
1031.288462,0.049712,0.001000,0.001000,0.001000,0.001000,0.001000
1031.307692,0.049817,0.001000,0.001000,0.001000,0.001000,0.001000
1031.326923,0.049898,0.001000,0.001000,0.001000,0.001000,0.001000
1031.346154,0.049956,0.001000,0.001000,0.001000,0.001000,0.001000
1031.365385,0.049990,0.001000,0.001000,0.001000,0.001000,0.001000
1031.384615,0.050000,0.001000,0.001000,0.001000,0.001000,0.001000
1031.403846,0.049986,0.001000,0.001000,0.001000,0.001000,0.001000
1031.423077,0.049948,0.001000,0.001000,0.001000,0.001000,0.001000
1031.442308,0.049887,0.001000,0.001000,0.001000,0.001000,0.001000
1031.461538,0.049802,0.001000,0.001000,0.001000,0.001000,0.001000
1031.480769,0.049693,0.001000,0.001000,0.001000,0.001000,0.001000
1031.500000,0.049560,0.001000,0.001000,0.001000,0.001000,0.001000
1031.519231,0.049403,0.001000,0.001000,0.001000,0.001000,0.001000
1031.538462,0.049223,0.001000,0.001000,0.001000,0.001000,0.001000
1031.557692,0.049020,0.001000,0.001000,0.001000,0.001000,0.001000
1031.576923,0.048793,0.001000,0.001000,0.001000,0.001000,0.001000
1031.596154,0.048543,0.001000,0.001000,0.001000,0.001000,0.001000
1031.615385,0.048270,0.001000,0.001000,0.001000,0.001000,0.001000
1031.634615,0.047973,0.001000,0.001000,0.001000,0.001000,0.001000
1031.653846,0.047654,0.001000,0.001000,0.001000,0.001000,0.001000
1031.673077,0.047312,0.001000,0.001000,0.001000,0.001000,0.001000
1031.692308,0.046948,0.001000,0.001000,0.001000,0.001000,0.001000
1031.711538,0.046561,0.001000,0.001000,0.001000,0.001000,0.001000
1031.730769,0.046152,0.001000,0.001000,0.001000,0.001000,0.001000
1031.750000,0.045721,0.001000,0.001000,0.001000,0.001000,0.001000
1031.769231,0.045268,0.001000,0.001000,0.001000,0.001000,0.001000
1031.788462,0.044793,0.001000,0.001000,0.001000,0.001000,0.001000
1031.807692,0.044298,0.001000,0.001000,0.001000,0.001000,0.001000
1031.826923,0.043781,0.001000,0.001000,0.001000,0.001000,0.001000
1031.846154,0.043243,0.001000,0.001000,0.001000,0.001000,0.001000
1031.865385,0.042684,0.001000,0.001000,0.001000,0.001000,0.001000
1031.884615,0.042105,0.001000,0.001000,0.001000,0.001000,0.001000
1031.903846,0.041506,0.001000,0.001000,0.001000,0.001000,0.001000
1031.923077,0.040888,0.001000,0.001000,0.001000,0.001000,0.001000
1031.942308,0.040249,0.001000,0.001000,0.001000,0.001000,0.001000
1031.961538,0.039592,0.001000,0.001000,0.001000,0.001000,0.001000
1031.980769,0.038916,0.001000,0.001000,0.001000,0.001000,0.001000
1032.000000,0.038221,0.001000,0.001000,0.001000,0.001000,0.001000
1032.019231,0.037508,0.001000,0.001000,0.001000,0.001000,0.001000
1032.038462,0.036777,0.001000,0.001000,0.001000,0.001000,0.001000
1032.057692,0.036028,0.001000,0.001000,0.001000,0.001000,0.001000
1032.076923,0.035262,0.001000,0.001000,0.001000,0.001000,0.001000
1032.096154,0.034480,0.001000,0.001000,0.001000,0.001000,0.001000
1032.115385,0.033681,0.001000,0.001000,0.001000,0.001000,0.001000
1032.134615,0.032866,0.001000,0.001000,0.001000,0.001000,0.001000
1032.153846,0.032035,0.001000,0.001000,0.001000,0.001000,0.001000
1032.173077,0.031189,0.001000,0.001000,0.001000,0.001000,0.001000
1032.192308,0.030328,0.001000,0.001000,0.001000,0.001000,0.001000
1032.211538,0.029452,0.001000,0.001000,0.001000,0.001000,0.001000
1032.230769,0.028563,0.001000,0.001000,0.001000,0.001000,0.001000
1032.250000,0.027660,0.001000,0.001000,0.001000,0.001000,0.001000
1032.269231,0.026744,0.001000,0.001000,0.001000,0.001000,0.001000
1032.288462,0.025815,0.001000,0.001000,0.001000,0.001000,0.001000
1032.307692,0.024873,0.001000,0.001000,0.001000,0.001000,0.001000
1032.326923,0.023920,0.001000,0.001000,0.001000,0.001000,0.001000
1032.346154,0.022956,0.001000,0.001000,0.001000,0.001000,0.001000
1032.365385,0.021980,0.001000,0.001000,0.001000,0.001000,0.001000
1032.384615,0.020994,0.001000,0.001000,0.001000,0.001000,0.001000
1032.403846,0.019998,0.001000,0.001000,0.001000,0.001000,0.001000
1032.423077,0.018992,0.001000,0.001000,0.001000,0.001000,0.001000
1032.442308,0.017978,0.001000,0.001000,0.001000,0.001000,0.001000
1032.461538,0.016954,0.001000,0.001000,0.001000,0.001000,0.001000
1032.480769,0.015923,0.001000,0.001000,0.001000,0.001000,0.001000
1032.500000,0.014884,0.001000,0.001000,0.001000,0.001000,0.001000
1032.519231,0.013838,0.001000,0.001000,0.001000,0.001000,0.001000
1032.538462,0.012786,0.001000,0.001000,0.001000,0.001000,0.001000
1032.557692,0.011727,0.001000,0.001000,0.001000,0.001000,0.001000
1032.576923,0.010663,0.001000,0.001000,0.001000,0.001000,0.001000
1032.596154,0.009593,0.001000,0.001000,0.001000,0.001000,0.001000
1032.615385,0.008519,0.001000,0.001000,0.001000,0.001000,0.001000
1032.634615,0.007441,0.001000,0.001000,0.001000,0.001000,0.001000
1032.653846,0.006360,0.001000,0.001000,0.001000,0.001000,0.001000
1032.673077,0.005275,0.001000,0.001000,0.001000,0.001000,0.001000
1032.692308,0.004188,0.001000,0.001000,0.001000,0.001000,0.001000
1032.711538,0.003099,0.001000,0.001000,0.001000,0.001000,0.001000
1032.730769,0.002008,0.001000,0.001000,0.001000,0.001000,0.001000
1032.750000,0.000917,0.001000,0.001000,0.001000,0.001000,0.001000
1032.769231,-0.000175,0.001000,0.001000,0.001000,0.001000,0.001000
1032.788462,-0.001267,0.001000,0.001000,0.001000,0.001000,0.001000
1032.807692,-0.002359,0.001000,0.001000,0.001000,0.001000,0.001000
1032.826923,-0.003449,0.001000,0.001000,0.001000,0.001000,0.001000
1032.846154,-0.004537,0.001000,0.001000,0.001000,0.001000,0.001000
1032.865385,-0.005624,0.001000,0.001000,0.001000,0.001000,0.001000
1032.884615,-0.006707,0.001000,0.001000,0.001000,0.001000,0.001000
1032.903846,-0.007788,0.001000,0.001000,0.001000,0.001000,0.001000
1032.923077,-0.008865,0.001000,0.001000,0.001000,0.001000,0.001000
1032.942308,-0.009937,0.001000,0.001000,0.001000,0.001000,0.001000
1032.961538,-0.011005,0.001000,0.001000,0.001000,0.001000,0.001000
1032.980769,-0.012068,0.001000,0.001000,0.001000,0.001000,0.001000
1033.000000,-0.013124,0.001000,0.001000,0.001000,0.001000,0.001000
1033.019231,-0.014175,0.001000,0.001000,0.001000,0.001000,0.001000
1033.038462,-0.015219,0.001000,0.001000,0.001000,0.001000,0.001000
1033.057692,-0.016255,0.001000,0.001000,0.001000,0.001000,0.001000
1033.076923,-0.017284,0.001000,0.001000,0.001000,0.001000,0.001000
1033.096154,-0.018304,0.001000,0.001000,0.001000,0.001000,0.001000
1033.115385,-0.019316,0.001000,0.001000,0.001000,0.001000,0.001000
1033.134615,-0.020319,0.001000,0.001000,0.001000,0.001000,0.001000
1033.153846,-0.021312,0.001000,0.001000,0.001000,0.001000,0.001000
1033.173077,-0.022294,0.001000,0.001000,0.001000,0.001000,0.001000
1033.192308,-0.023267,0.001000,0.001000,0.001000,0.001000,0.001000
1033.211538,-0.024228,0.001000,0.001000,0.001000,0.001000,0.001000
1033.230769,-0.025177,0.001000,0.001000,0.001000,0.001000,0.001000
1033.250000,-0.026114,0.001000,0.001000,0.001000,0.001000,0.001000
1033.269231,-0.027039,0.001000,0.001000,0.001000,0.001000,0.001000
1033.288462,-0.027951,0.001000,0.001000,0.001000,0.001000,0.001000
1033.307692,-0.028850,0.001000,0.001000,0.001000,0.001000,0.001000
1033.326923,-0.029735,0.001000,0.001000,0.001000,0.001000,0.001000
1033.346154,-0.030606,0.001000,0.001000,0.001000,0.001000,0.001000
1033.365385,-0.031462,0.001000,0.001000,0.001000,0.001000,0.001000
1033.384615,-0.032303,0.001000,0.001000,0.001000,0.001000,0.001000
1033.403846,-0.033129,0.001000,0.001000,0.001000,0.001000,0.001000
1033.423077,-0.033939,0.001000,0.001000,0.001000,0.001000,0.001000
1033.442308,-0.034733,0.001000,0.001000,0.001000,0.001000,0.001000
1033.461538,-0.035510,0.001000,0.001000,0.001000,0.001000,0.001000
1033.480769,-0.036270,0.001000,0.001000,0.001000,0.001000,0.001000
1033.500000,-0.037013,0.001000,0.001000,0.001000,0.001000,0.001000
1033.519231,-0.037739,0.001000,0.001000,0.001000,0.001000,0.001000
1033.538462,-0.038446,0.001000,0.001000,0.001000,0.001000,0.001000
1033.557692,-0.039135,0.001000,0.001000,0.001000,0.001000,0.001000
1033.576923,-0.039805,0.001000,0.001000,0.001000,0.001000,0.001000
1033.596154,-0.040456,0.001000,0.001000,0.001000,0.001000,0.001000
1033.615385,-0.041088,0.001000,0.001000,0.001000,0.001000,0.001000
1033.634615,-0.041701,0.001000,0.001000,0.001000,0.001000,0.001000
1033.653846,-0.042293,0.001000,0.001000,0.001000,0.001000,0.001000
1033.673077,-0.042866,0.001000,0.001000,0.001000,0.001000,0.001000
1033.692308,-0.043418,0.001000,0.001000,0.001000,0.001000,0.001000
1033.711538,-0.043949,0.001000,0.001000,0.001000,0.001000,0.001000
1033.730769,-0.044459,0.001000,0.001000,0.001000,0.001000,0.001000
1033.750000,-0.044948,0.001000,0.001000,0.001000,0.001000,0.001000
1033.769231,-0.045416,0.001000,0.001000,0.001000,0.001000,0.001000
1033.788462,-0.045862,0.001000,0.001000,0.001000,0.001000,0.001000
1033.807692,-0.046286,0.001000,0.001000,0.001000,0.001000,0.001000
1033.826923,-0.046688,0.001000,0.001000,0.001000,0.001000,0.001000
1033.846154,-0.047067,0.001000,0.001000,0.001000,0.001000,0.001000
1033.865385,-0.047425,0.001000,0.001000,0.001000,0.001000,0.001000
1033.884615,-0.047759,0.001000,0.001000,0.001000,0.001000,0.001000
1033.903846,-0.048071,0.001000,0.001000,0.001000,0.001000,0.001000
1033.923077,-0.048360,0.001000,0.001000,0.001000,0.001000,0.001000
1033.942308,-0.048626,0.001000,0.001000,0.001000,0.001000,0.001000
1033.961538,-0.048868,0.001000,0.001000,0.001000,0.001000,0.001000
1033.980769,-0.049088,0.001000,0.001000,0.001000,0.001000,0.001000
1034.000000,-0.049284,0.001000,0.001000,0.001000,0.001000,0.001000
1034.019231,-0.049456,0.001000,0.001000,0.001000,0.001000,0.001000
1034.038462,-0.049605,0.001000,0.001000,0.001000,0.001000,0.001000
1034.057692,-0.049730,0.001000,0.001000,0.001000,0.001000,0.001000
1034.076923,-0.049832,0.001000,0.001000,0.001000,0.001000,0.001000
1034.096154,-0.049909,0.001000,0.001000,0.001000,0.001000,0.001000
1034.115385,-0.049963,0.001000,0.001000,0.001000,0.001000,0.001000
1034.134615,-0.049993,0.001000,0.001000,0.001000,0.001000,0.001000
1034.153846,-0.049999,0.001000,0.001000,0.001000,0.001000,0.001000
1034.173077,-0.049982,0.001000,0.001000,0.001000,0.001000,0.001000
1034.192308,-0.049940,0.001000,0.001000,0.001000,0.001000,0.001000
1034.211538,-0.049875,0.001000,0.001000,0.001000,0.001000,0.001000
1034.230769,-0.049786,0.001000,0.001000,0.001000,0.001000,0.001000
1034.250000,-0.049673,0.001000,0.001000,0.001000,0.001000,0.001000
1034.269231,-0.049536,0.001000,0.001000,0.001000,0.001000,0.001000
1034.288462,-0.049376,0.001000,0.001000,0.001000,0.001000,0.001000
1034.307692,-0.049192,0.001000,0.001000,0.001000,0.001000,0.001000
1034.326923,-0.048985,0.001000,0.001000,0.001000,0.001000,0.001000
1034.346154,-0.048755,0.001000,0.001000,0.001000,0.001000,0.001000
1034.365385,-0.048501,0.001000,0.001000,0.001000,0.001000,0.001000
1034.384615,-0.048224,0.001000,0.001000,0.001000,0.001000,0.001000
1034.403846,-0.047924,0.001000,0.001000,0.001000,0.001000,0.001000
1034.423077,-0.047601,0.001000,0.001000,0.001000,0.001000,0.001000
1034.442308,-0.047255,0.001000,0.001000,0.001000,0.001000,0.001000
1034.461538,-0.046887,0.001000,0.001000,0.001000,0.001000,0.001000
1034.480769,-0.046497,0.001000,0.001000,0.001000,0.001000,0.001000
1034.500000,-0.046084,0.001000,0.001000,0.001000,0.001000,0.001000
1034.519231,-0.045650,0.001000,0.001000,0.001000,0.001000,0.001000
1034.538462,-0.045193,0.001000,0.001000,0.001000,0.001000,0.001000
1034.557692,-0.044715,0.001000,0.001000,0.001000,0.001000,0.001000
1034.576923,-0.044216,0.001000,0.001000,0.001000,0.001000,0.001000
1034.596154,-0.043696,0.001000,0.001000,0.001000,0.001000,0.001000
1034.615385,-0.043154,0.001000,0.001000,0.001000,0.001000,0.001000
1034.634615,-0.042593,0.001000,0.001000,0.001000,0.001000,0.001000
1034.653846,-0.042011,0.001000,0.001000,0.001000,0.001000,0.001000
1034.673077,-0.041408,0.001000,0.001000,0.001000,0.001000,0.001000
1034.692308,-0.040786,0.001000,0.001000,0.001000,0.001000,0.001000
