timestamp,ax,ay,az,gx,gy,gz
1000.000000,0.000000,0.001000,0.001000,0.001000,0.001000,0.001000
1000.019231,0.001289,0.001000,0.001000,0.001000,0.001000,0.001000
1000.038462,0.002578,0.001000,0.001000,0.001000,0.001000,0.001000
1000.057692,0.003864,0.001000,0.001000,0.001000,0.001000,0.001000
1000.076923,0.005149,0.001000,0.001000,0.001000,0.001000,0.001000
1000.096154,0.006429,0.001000,0.001000,0.001000,0.001000,0.001000
1000.115385,0.007706,0.001000,0.001000,0.001000,0.001000,0.001000
1000.134615,0.008977,0.001000,0.001000,0.001000,0.001000,0.001000
1000.153846,0.010242,0.001000,0.001000,0.001000,0.001000,0.001000
1000.173077,0.011501,0.001000,0.001000,0.001000,0.001000,0.001000
1000.192308,0.012752,0.001000,0.001000,0.001000,0.001000,0.001000
1000.211538,0.013994,0.001000,0.001000,0.001000,0.001000,0.001000
1000.230769,0.015227,0.001000,0.001000,0.001000,0.001000,0.001000
1000.250000,0.016450,0.001000,0.001000,0.001000,0.001000,0.001000
1000.269231,0.017662,0.001000,0.001000,0.001000,0.001000,0.001000
1000.288462,0.018862,0.001000,0.001000,0.001000,0.001000,0.001000
1000.307692,0.020050,0.001000,0.001000,0.001000,0.001000,0.001000
1000.326923,0.021225,0.001000,0.001000,0.001000,0.001000,0.001000
1000.346154,0.022385,0.001000,0.001000,0.001000,0.001000,0.001000
1000.365385,0.023530,0.001000,0.001000,0.001000,0.001000,0.001000
1000.384615,0.024660,0.001000,0.001000,0.001000,0.001000,0.001000
1000.403846,0.025773,0.001000,0.001000,0.001000,0.001000,0.001000
1000.423077,0.026870,0.001000,0.001000,0.001000,0.001000,0.001000
1000.442308,0.027948,0.001000,0.001000,0.001000,0.001000,0.001000
1000.461538,0.029008,0.001000,0.001000,0.001000,0.001000,0.001000
1000.480769,0.030048,0.001000,0.001000,0.001000,0.001000,0.001000
1000.500000,0.031069,0.001000,0.001000,0.001000,0.001000,0.001000
1000.519231,0.032069,0.001000,0.001000,0.001000,0.001000,0.001000
1000.538462,0.033047,0.001000,0.001000,0.001000,0.001000,0.001000
1000.557692,0.034004,0.001000,0.001000,0.001000,0.001000,0.001000
1000.576923,0.034938,0.001000,0.001000,0.001000,0.001000,0.001000
1000.596154,0.035848,0.001000,0.001000,0.001000,0.001000,0.001000
1000.615385,0.036735,0.001000,0.001000,0.001000,0.001000,0.001000
1000.634615,0.037597,0.001000,0.001000,0.001000,0.001000,0.001000
1000.653846,0.038435,0.001000,0.001000,0.001000,0.001000,0.001000
1000.673077,0.039247,0.001000,0.001000,0.001000,0.001000,0.001000
1000.692308,0.040033,0.001000,0.001000,0.001000,0.001000,0.001000
1000.711538,0.040792,0.001000,0.001000,0.001000,0.001000,0.001000
1000.730769,0.041524,0.001000,0.001000,0.001000,0.001000,0.001000
1000.750000,0.042228,0.001000,0.001000,0.001000,0.001000,0.001000
1000.769231,0.042904,0.001000,0.001000,0.001000,0.001000,0.001000
1000.788462,0.043552,0.001000,0.001000,0.001000,0.001000,0.001000
1000.807692,0.044171,0.001000,0.001000,0.001000,0.001000,0.001000
1000.826923,0.044760,0.001000,0.001000,0.001000,0.001000,0.001000
1000.846154,0.045320,0.001000,0.001000,0.001000,0.001000,0.001000
1000.865385,0.045850,0.001000,0.001000,0.001000,0.001000,0.001000
1000.884615,0.046349,0.001000,0.001000,0.001000,0.001000,0.001000
1000.903846,0.046817,0.001000,0.001000,0.001000,0.001000,0.001000
1000.923077,0.047254,0.001000,0.001000,0.001000,0.001000,0.001000
1000.942308,0.047660,0.001000,0.001000,0.001000,0.001000,0.001000
1000.961538,0.048034,0.001000,0.001000,0.001000,0.001000,0.001000
1000.980769,0.048376,0.001000,0.001000,0.001000,0.001000,0.001000
1001.000000,0.048686,0.001000,0.001000,0.001000,0.001000,0.001000
1001.019231,0.048963,0.001000,0.001000,0.001000,0.001000,0.001000
1001.038462,0.049208,0.001000,0.001000,0.001000,0.001000,0.001000
1001.057692,0.049420,0.001000,0.001000,0.001000,0.001000,0.001000
1001.076923,0.049600,0.001000,0.001000,0.001000,0.001000,0.001000
1001.096154,0.049746,0.001000,0.001000,0.001000,0.001000,0.001000
1001.115385,0.049859,0.001000,0.001000,0.001000,0.001000,0.001000
1001.134615,0.049939,0.001000,0.001000,0.001000,0.001000,0.001000
1001.153846,0.049986,0.001000,0.001000,0.001000,0.001000,0.001000
1001.173077,0.050000,0.001000,0.001000,0.001000,0.001000,0.001000
1001.192308,0.049980,0.001000,0.001000,0.001000,0.001000,0.001000
1001.211538,0.049927,0.001000,0.001000,0.001000,0.001000,0.001000
1001.230769,0.049841,0.001000,0.001000,0.001000,0.001000,0.001000
1001.250000,0.049722,0.001000,0.001000,0.001000,0.001000,0.001000
1001.269231,0.049570,0.001000,0.001000,0.001000,0.001000,0.001000
1001.288462,0.049385,0.001000,0.001000,0.001000,0.001000,0.001000
1001.307692,0.049167,0.001000,0.001000,0.001000,0.001000,0.001000
1001.326923,0.048916,0.001000,0.001000,0.001000,0.001000,0.001000
1001.346154,0.048633,0.001000,0.001000,0.001000,0.001000,0.001000
1001.365385,0.048317,0.001000,0.001000,0.001000,0.001000,0.001000
1001.384615,0.047970,0.001000,0.001000,0.001000,0.001000,0.001000
1001.403846,0.047590,0.001000,0.001000,0.001000,0.001000,0.001000
1001.423077,0.047179,0.001000,0.001000,0.001000,0.001000,0.001000
1001.442308,0.046736,0.001000,0.001000,0.001000,0.001000,0.001000
1001.461538,0.046262,0.001000,0.001000,0.001000,0.001000,0.001000
1001.480769,0.045758,0.001000,0.001000,0.001000,0.001000,0.001000
1001.500000,0.045223,0.001000,0.001000,0.001000,0.001000,0.001000
1001.519231,0.044658,0.001000,0.001000,0.001000,0.001000,0.001000
1001.538462,0.044063,0.001000,0.001000,0.001000,0.001000,0.001000
1001.557692,0.043439,0.001000,0.001000,0.001000,0.001000,0.001000
1001.576923,0.042786,0.001000,0.001000,0.001000,0.001000,0.001000
1001.596154,0.042105,0.001000,0.001000,0.001000,0.001000,0.001000
1001.615385,0.041396,0.001000,0.001000,0.001000,0.001000,0.001000
1001.634615,0.040659,0.001000,0.001000,0.001000,0.001000,0.001000
1001.653846,0.039895,0.001000,0.001000,0.001000,0.001000,0.001000
1001.673077,0.039104,0.001000,0.001000,0.001000,0.001000,0.001000
1001.692308,0.038288,0.001000,0.001000,0.001000,0.001000,0.001000
1001.711538,0.037446,0.001000,0.001000,0.001000,0.001000,0.001000
1001.730769,0.036579,0.001000,0.001000,0.001000,0.001000,0.001000
1001.750000,0.035688,0.001000,0.001000,0.001000,0.001000,0.001000
1001.769231,0.034773,0.001000,0.001000,0.001000,0.001000,0.001000
1001.788462,0.033835,0.001000,0.001000,0.001000,0.001000,0.001000
1001.807692,0.032875,0.001000,0.001000,0.001000,0.001000,0.001000
1001.826923,0.031892,0.001000,0.001000,0.001000,0.001000,0.001000
1001.846154,0.030889,0.001000,0.001000,0.001000,0.001000,0.001000
1001.865385,0.029865,0.001000,0.001000,0.001000,0.001000,0.001000
1001.884615,0.028821,0.001000,0.001000,0.001000,0.001000,0.001000
1001.903846,0.027758,0.001000,0.001000,0.001000,0.001000,0.001000
1001.923077,0.026676,0.001000,0.001000,0.001000,0.001000,0.001000
1001.942308,0.025577,0.001000,0.001000,0.001000,0.001000,0.001000
1001.961538,0.024460,0.001000,0.001000,0.001000,0.001000,0.001000
1001.980769,0.023328,0.001000,0.001000,0.001000,0.001000,0.001000
1002.000000,0.022180,0.001000,0.001000,0.001000,0.001000,0.001000
1002.019231,0.021017,0.001000,0.001000,0.001000,0.001000,0.001000
1002.038462,0.019840,0.001000,0.001000,0.001000,0.001000,0.001000
1002.057692,0.018650,0.001000,0.001000,0.001000,0.001000,0.001000
1002.076923,0.017448,0.001000,0.001000,0.001000,0.001000,0.001000
1002.096154,0.016234,0.001000,0.001000,0.001000,0.001000,0.001000
1002.115385,0.015009,0.001000,0.001000,0.001000,0.001000,0.001000
1002.134615,0.013774,0.001000,0.001000,0.001000,0.001000,0.001000
1002.153846,0.012530,0.001000,0.001000,0.001000,0.001000,0.001000
1002.173077,0.011278,0.001000,0.001000,0.001000,0.001000,0.001000
1002.192308,0.010018,0.001000,0.001000,0.001000,0.001000,0.001000
1002.211538,0.008751,0.001000,0.001000,0.001000,0.001000,0.001000
1002.230769,0.007479,0.001000,0.001000,0.001000,0.001000,0.001000
1002.250000,0.006202,0.001000,0.001000,0.001000,0.001000,0.001000
1002.269231,0.004921,0.001000,0.001000,0.001000,0.001000,0.001000
1002.288462,0.003636,0.001000,0.001000,0.001000,0.001000,0.001000
1002.307692,0.002349,0.001000,0.001000,0.001000,0.001000,0.001000
1002.326923,0.001060,0.001000,0.001000,0.001000,0.001000,0.001000
1002.346154,-0.000229,0.001000,0.001000,0.001000,0.001000,0.001000
1002.365385,-0.001518,0.001000,0.001000,0.001000,0.001000,0.001000
1002.384615,-0.002807,0.001000,0.001000,0.001000,0.001000,0.001000
1002.403846,-0.004093,0.001000,0.001000,0.001000,0.001000,0.001000
1002.423077,-0.005376,0.001000,0.001000,0.001000,0.001000,0.001000
1002.442308,-0.006656,0.001000,0.001000,0.001000,0.001000,0.001000
1002.461538,-0.007932,0.001000,0.001000,0.001000,0.001000,0.001000
1002.480769,-0.009202,0.001000,0.001000,0.001000,0.001000,0.001000
1002.500000,-0.010467,0.001000,0.001000,0.001000,0.001000,0.001000
1002.519231,-0.011724,0.001000,0.001000,0.001000,0.001000,0.001000
1002.538462,-0.012973,0.001000,0.001000,0.001000,0.001000,0.001000
1002.557692,-0.014214,0.001000,0.001000,0.001000,0.001000,0.001000
1002.576923,-0.015445,0.001000,0.001000,0.001000,0.001000,0.001000
1002.596154,-0.016666,0.001000,0.001000,0.001000,0.001000,0.001000
1002.615385,-0.017876,0.001000,0.001000,0.001000,0.001000,0.001000
1002.634615,-0.019075,0.001000,0.001000,0.001000,0.001000,0.001000
1002.653846,-0.020260,0.001000,0.001000,0.001000,0.001000,0.001000
1002.673077,-0.021432,0.001000,0.001000,0.001000,0.001000,0.001000
1002.692308,-0.022590,0.001000,0.001000,0.001000,0.001000,0.001000
1002.711538,-0.023732,0.001000,0.001000,0.001000,0.001000,0.001000
1002.730769,-0.024859,0.001000,0.001000,0.001000,0.001000,0.001000
1002.750000,-0.025970,0.001000,0.001000,0.001000,0.001000,0.001000
1002.769231,-0.027063,0.001000,0.001000,0.001000,0.001000,0.001000
1002.788462,-0.028138,0.001000,0.001000,0.001000,0.001000,0.001000
1002.807692,-0.029194,0.001000,0.001000,0.001000,0.001000,0.001000
1002.826923,-0.030231,0.001000,0.001000,0.001000,0.001000,0.001000
1002.846154,-0.031248,0.001000,0.001000,0.001000,0.001000,0.001000
1002.865385,-0.032244,0.001000,0.001000,0.001000,0.001000,0.001000
1002.884615,-0.033219,0.001000,0.001000,0.001000,0.001000,0.001000
1002.903846,-0.034171,0.001000,0.001000,0.001000,0.001000,0.001000
1002.923077,-0.035101,0.001000,0.001000,0.001000,0.001000,0.001000
1002.942308,-0.036008,0.001000,0.001000,0.001000,0.001000,0.001000
1002.961538,-0.036890,0.001000,0.001000,0.001000,0.001000,0.001000
1002.980769,-0.037748,0.001000,0.001000,0.001000,0.001000,0.001000
1003.000000,-0.038581,0.001000,0.001000,0.001000,0.001000,0.001000
1003.019231,-0.039388,0.001000,0.001000,0.001000,0.001000,0.001000
1003.038462,-0.040169,0.001000,0.001000,0.001000,0.001000,0.001000
1003.057692,-0.040924,0.001000,0.001000,0.001000,0.001000,0.001000
1003.076923,-0.041651,0.001000,0.001000,0.001000,0.001000,0.001000
1003.096154,-0.042350,0.001000,0.001000,0.001000,0.001000,0.001000
1003.115385,-0.043022,0.001000,0.001000,0.001000,0.001000,0.001000
1003.134615,-0.043664,0.001000,0.001000,0.001000,0.001000,0.001000
1003.153846,-0.044278,0.001000,0.001000,0.001000,0.001000,0.001000
1003.173077,-0.044862,0.001000,0.001000,0.001000,0.001000,0.001000
1003.192308,-0.045416,0.001000,0.001000,0.001000,0.001000,0.001000
1003.211538,-0.045941,0.001000,0.001000,0.001000,0.001000,0.001000
1003.230769,-0.046434,0.001000,0.001000,0.001000,0.001000,0.001000
1003.250000,-0.046897,0.001000,0.001000,0.001000,0.001000,0.001000
1003.269231,-0.047328,0.001000,0.001000,0.001000,0.001000,0.001000
1003.288462,-0.047728,0.001000,0.001000,0.001000,0.001000,0.001000
1003.307692,-0.048097,0.001000,0.001000,0.001000,0.001000,0.001000
1003.326923,-0.048433,0.001000,0.001000,0.001000,0.001000,0.001000
1003.346154,-0.048737,0.001000,0.001000,0.001000,0.001000,0.001000
1003.365385,-0.049009,0.001000,0.001000,0.001000,0.001000,0.001000
1003.384615,-0.049248,0.001000,0.001000,0.001000,0.001000,0.001000
1003.403846,-0.049454,0.001000,0.001000,0.001000,0.001000,0.001000
1003.423077,-0.049628,0.001000,0.001000,0.001000,0.001000,0.001000
1003.442308,-0.049768,0.001000,0.001000,0.001000,0.001000,0.001000
1003.461538,-0.049876,0.001000,0.001000,0.001000,0.001000,0.001000
1003.480769,-0.049950,0.001000,0.001000,0.001000,0.001000,0.001000
1003.500000,-0.049991,0.001000,0.001000,0.001000,0.001000,0.001000
1003.519231,-0.049999,0.001000,0.001000,0.001000,0.001000,0.001000
1003.538462,-0.049973,0.001000,0.001000,0.001000,0.001000,0.001000
1003.557692,-0.049915,0.001000,0.001000,0.001000,0.001000,0.001000
1003.576923,-0.049823,0.001000,0.001000,0.001000,0.001000,0.001000
1003.596154,-0.049698,0.001000,0.001000,0.001000,0.001000,0.001000
1003.615385,-0.049540,0.001000,0.001000,0.001000,0.001000,0.001000
1003.634615,-0.049349,0.001000,0.001000,0.001000,0.001000,0.001000
1003.653846,-0.049125,0.001000,0.001000,0.001000,0.001000,0.001000
1003.673077,-0.048868,0.001000,0.001000,0.001000,0.001000,0.001000
1003.692308,-0.048579,0.001000,0.001000,0.001000,0.001000,0.001000
1003.711538,-0.048258,0.001000,0.001000,0.001000,0.001000,0.001000
1003.730769,-0.047904,0.001000,0.001000,0.001000,0.001000,0.001000
1003.750000,-0.047519,0.001000,0.001000,0.001000,0.001000,0.001000
1003.769231,-0.047102,0.001000,0.001000,0.001000,0.001000,0.001000
1003.788462,-0.046654,0.001000,0.001000,0.001000,0.001000,0.001000
1003.807692,-0.046175,0.001000,0.001000,0.001000,0.001000,0.001000
1003.826923,-0.045665,0.001000,0.001000,0.001000,0.001000,0.001000
1003.846154,-0.045125,0.001000,0.001000,0.001000,0.001000,0.001000
1003.865385,-0.044554,0.001000,0.001000,0.001000,0.001000,0.001000
1003.884615,-0.043954,0.001000,0.001000,0.001000,0.001000,0.001000
1003.903846,-0.043325,0.001000,0.001000,0.001000,0.001000,0.001000
1003.923077,-0.042667,0.001000,0.001000,0.001000,0.001000,0.001000
1003.942308,-0.041981,0.001000,0.001000,0.001000,0.001000,0.001000
1003.961538,-0.041267,0.001000,0.001000,0.001000,0.001000,0.001000
1003.980769,-0.040525,0.001000,0.001000,0.001000,0.001000,0.001000
1004.000000,-0.039756,0.001000,0.001000,0.001000,0.001000,0.001000
1004.019231,-0.038961,0.001000,0.001000,0.001000,0.001000,0.001000
1004.038462,-0.038140,0.001000,0.001000,0.001000,0.001000,0.001000
1004.057692,-0.037294,0.001000,0.001000,0.001000,0.001000,0.001000
1004.076923,-0.036423,0.001000,0.001000,0.001000,0.001000,0.001000
1004.096154,-0.035527,0.001000,0.001000,0.001000,0.001000,0.001000
1004.115385,-0.034608,0.001000,0.001000,0.001000,0.001000,0.001000
1004.134615,-0.033666,0.001000,0.001000,0.001000,0.001000,0.001000
1004.153846,-0.032702,0.001000,0.001000,0.001000,0.001000,0.001000
1004.173077,-0.031716,0.001000,0.001000,0.001000,0.001000,0.001000
1004.192308,-0.030708,0.001000,0.001000,0.001000,0.001000,0.001000
1004.211538,-0.029681,0.001000,0.001000,0.001000,0.001000,0.001000
1004.230769,-0.028633,0.001000,0.001000,0.001000,0.001000,0.001000
1004.250000,-0.027567,0.001000,0.001000,0.001000,0.001000,0.001000
1004.269231,-0.026482,0.001000,0.001000,0.001000,0.001000,0.001000
1004.288462,-0.025380,0.001000,0.001000,0.001000,0.001000,0.001000
1004.307692,-0.024260,0.001000,0.001000,0.001000,0.001000,0.001000
1004.326923,-0.023125,0.001000,0.001000,0.001000,0.001000,0.001000
1004.346154,-0.021974,0.001000,0.001000,0.001000,0.001000,0.001000
1004.365385,-0.020809,0.001000,0.001000,0.001000,0.001000,0.001000
1004.384615,-0.019629,0.001000,0.001000,0.001000,0.001000,0.001000
1004.403846,-0.018437,0.001000,0.001000,0.001000,0.001000,0.001000
1004.423077,-0.017233,0.001000,0.001000,0.001000,0.001000,0.001000
1004.442308,-0.016017,0.001000,0.001000,0.001000,0.001000,0.001000
1004.461538,-0.014790,0.001000,0.001000,0.001000,0.001000,0.001000
1004.480769,-0.013553,0.001000,0.001000,0.001000,0.001000,0.001000
1004.500000,-0.012308,0.001000,0.001000,0.001000,0.001000,0.001000
1004.519231,-0.011054,0.001000,0.001000,0.001000,0.001000,0.001000
1004.538462,-0.009793,0.001000,0.001000,0.001000,0.001000,0.001000
1004.557692,-0.008526,0.001000,0.001000,0.001000,0.001000,0.001000
1004.576923,-0.007252,0.001000,0.001000,0.001000,0.001000,0.001000
1004.596154,-0.005974,0.001000,0.001000,0.001000,0.001000,0.001000
1004.615385,-0.004692,0.001000,0.001000,0.001000,0.001000,0.001000
1004.634615,-0.003407,0.001000,0.001000,0.001000,0.001000,0.001000
1004.653846,-0.002120,0.001000,0.001000,0.001000,0.001000,0.001000
1004.673077,-0.000831,0.001000,0.001000,0.001000,0.001000,0.001000
1004.692308,0.000458,0.001000,0.001000,0.001000,0.001000,0.001000
1004.711538,0.001747,0.001000,0.001000,0.001000,0.001000,0.001000
1004.730769,0.003035,0.001000,0.001000,0.001000,0.001000,0.001000
1004.750000,0.004321,0.001000,0.001000,0.001000,0.001000,0.001000
1004.769231,0.005604,0.001000,0.001000,0.001000,0.001000,0.001000
1004.788462,0.006884,0.001000,0.001000,0.001000,0.001000,0.001000
1004.807692,0.008158,0.001000,0.001000,0.001000,0.001000,0.001000
1004.826923,0.009428,0.001000,0.001000,0.001000,0.001000,0.001000
1004.846154,0.010691,0.001000,0.001000,0.001000,0.001000,0.001000
1004.865385,0.011946,0.001000,0.001000,0.001000,0.001000,0.001000
1004.884615,0.013194,0.001000,0.001000,0.001000,0.001000,0.001000
1004.903846,0.014434,0.001000,0.001000,0.001000,0.001000,0.001000
1004.923077,0.015663,0.001000,0.001000,0.001000,0.001000,0.001000
1004.942308,0.016882,0.001000,0.001000,0.001000,0.001000,0.001000
1004.961538,0.018090,0.001000,0.001000,0.001000,0.001000,0.001000
1004.980769,0.019286,0.001000,0.001000,0.001000,0.001000,0.001000
1005.000000,0.020469,0.001000,0.001000,0.001000,0.001000,0.001000
1005.019231,0.021639,0.001000,0.001000,0.001000,0.001000,0.001000
1005.038462,0.022794,0.001000,0.001000,0.001000,0.001000,0.001000
1005.057692,0.023934,0.001000,0.001000,0.001000,0.001000,0.001000
1005.076923,0.025058,0.001000,0.001000,0.001000,0.001000,0.001000
1005.096154,0.026165,0.001000,0.001000,0.001000,0.001000,0.001000
1005.115385,0.027255,0.001000,0.001000,0.001000,0.001000,0.001000
1005.134615,0.028327,0.001000,0.001000,0.001000,0.001000,0.001000
1005.153846,0.029380,0.001000,0.001000,0.001000,0.001000,0.001000
1005.173077,0.030413,0.001000,0.001000,0.001000,0.001000,0.001000
1005.192308,0.031427,0.001000,0.001000,0.001000,0.001000,0.001000
1005.211538,0.032419,0.001000,0.001000,0.001000,0.001000,0.001000
1005.230769,0.033390,0.001000,0.001000,0.001000,0.001000,0.001000
1005.250000,0.034338,0.001000,0.001000,0.001000,0.001000,0.001000
1005.269231,0.035264,0.001000,0.001000,0.001000,0.001000,0.001000
1005.288462,0.036166,0.001000,0.001000,0.001000,0.001000,0.001000
1005.307692,0.037044,0.001000,0.001000,0.001000,0.001000,0.001000
1005.326923,0.037898,0.001000,0.001000,0.001000,0.001000,0.001000
1005.346154,0.038726,0.001000,0.001000,0.001000,0.001000,0.001000
1005.365385,0.039529,0.001000,0.001000,0.001000,0.001000,0.001000
1005.384615,0.040305,0.001000,0.001000,0.001000,0.001000,0.001000
1005.403846,0.041055,0.001000,0.001000,0.001000,0.001000,0.001000
1005.423077,0.041777,0.001000,0.001000,0.001000,0.001000,0.001000
1005.442308,0.042472,0.001000,0.001000,0.001000,0.001000,0.001000
1005.461538,0.043138,0.001000,0.001000,0.001000,0.001000,0.001000
1005.480769,0.043775,0.001000,0.001000,0.001000,0.001000,0.001000
1005.500000,0.044384,0.001000,0.001000,0.001000,0.001000,0.001000
1005.519231,0.044963,0.001000,0.001000,0.001000,0.001000,0.001000
1005.538462,0.045512,0.001000,0.001000,0.001000,0.001000,0.001000
1005.557692,0.046031,0.001000,0.001000,0.001000,0.001000,0.001000
1005.576923,0.046519,0.001000,0.001000,0.001000,0.001000,0.001000
1005.596154,0.046976,0.001000,0.001000,0.001000,0.001000,0.001000
1005.615385,0.047402,0.001000,0.001000,0.001000,0.001000,0.001000
1005.634615,0.047796,0.001000,0.001000,0.001000,0.001000,0.001000
1005.653846,0.048159,0.001000,0.001000,0.001000,0.001000,0.001000
1005.673077,0.048490,0.001000,0.001000,0.001000,0.001000,0.001000
1005.692308,0.048788,0.001000,0.001000,0.001000,0.001000,0.001000
1005.711538,0.049054,0.001000,0.001000,0.001000,0.001000,0.001000
1005.730769,0.049287,0.001000,0.001000,0.001000,0.001000,0.001000
1005.750000,0.049488,0.001000,0.001000,0.001000,0.001000,0.001000
1005.769231,0.049655,0.001000,0.001000,0.001000,0.001000,0.001000
1005.788462,0.049790,0.001000,0.001000,0.001000,0.001000,0.001000
1005.807692,0.049891,0.001000,0.001000,0.001000,0.001000,0.001000
1005.826923,0.049960,0.001000,0.001000,0.001000,0.001000,0.001000
1005.846154,0.049995,0.001000,0.001000,0.001000,0.001000,0.001000
1005.865385,0.049997,0.001000,0.001000,0.001000,0.001000,0.001000
1005.884615,0.049965,0.001000,0.001000,0.001000,0.001000,0.001000
1005.903846,0.049901,0.001000,0.001000,0.001000,0.001000,0.001000
1005.923077,0.049803,0.001000,0.001000,0.001000,0.001000,0.001000
1005.942308,0.049672,0.001000,0.001000,0.001000,0.001000,0.001000
1005.961538,0.049508,0.001000,0.001000,0.001000,0.001000,0.001000
1005.980769,0.049311,0.001000,0.001000,0.001000,0.001000,0.001000
1006.000000,0.049081,0.001000,0.001000,0.001000,0.001000,0.001000
1006.019231,0.048819,0.001000,0.001000,0.001000,0.001000,0.001000
1006.038462,0.048524,0.001000,0.001000,0.001000,0.001000,0.001000
1006.057692,0.048197,0.001000,0.001000,0.001000,0.001000,0.001000
1006.076923,0.047838,0.001000,0.001000,0.001000,0.001000,0.001000
1006.096154,0.047447,0.001000,0.001000,0.001000,0.001000,0.001000
1006.115385,0.047025,0.001000,0.001000,0.001000,0.001000,0.001000
1006.134615,0.046571,0.001000,0.001000,0.001000,0.001000,0.001000
1006.153846,0.046086,0.001000,0.001000,0.001000,0.001000,0.001000
1006.173077,0.045571,0.001000,0.001000,0.001000,0.001000,0.001000
1006.192308,0.045025,0.001000,0.001000,0.001000,0.001000,0.001000
1006.211538,0.044450,0.001000,0.001000,0.001000,0.001000,0.001000
1006.230769,0.043845,0.001000,0.001000,0.001000,0.001000,0.001000
1006.250000,0.043210,0.001000,0.001000,0.001000,0.001000,0.001000
1006.269231,0.042547,0.001000,0.001000,0.001000,0.001000,0.001000
1006.288462,0.041856,0.001000,0.001000,0.001000,0.001000,0.001000
1006.307692,0.041137,0.001000,0.001000,0.001000,0.001000,0.001000
1006.326923,0.040390,0.001000,0.001000,0.001000,0.001000,0.001000
1006.346154,0.039617,0.001000,0.001000,0.001000,0.001000,0.001000
1006.365385,0.038817,0.001000,0.001000,0.001000,0.001000,0.001000
1006.384615,0.037992,0.001000,0.001000,0.001000,0.001000,0.001000
1006.403846,0.037141,0.001000,0.001000,0.001000,0.001000,0.001000
1006.423077,0.036265,0.001000,0.001000,0.001000,0.001000,0.001000
1006.442308,0.035366,0.001000,0.001000,0.001000,0.001000,0.001000
1006.461538,0.034442,0.001000,0.001000,0.001000,0.001000,0.001000
1006.480769,0.033496,0.001000,0.001000,0.001000,0.001000,0.001000
1006.500000,0.032528,0.001000,0.001000,0.001000,0.001000,0.001000
1006.519231,0.031538,0.001000,0.001000,0.001000,0.001000,0.001000
1006.538462,0.030527,0.001000,0.001000,0.001000,0.001000,0.001000
1006.557692,0.029496,0.001000,0.001000,0.001000,0.001000,0.001000
1006.576923,0.028445,0.001000,0.001000,0.001000,0.001000,0.001000
1006.596154,0.027375,0.001000,0.001000,0.001000,0.001000,0.001000
1006.615385,0.026287,0.001000,0.001000,0.001000,0.001000,0.001000
1006.634615,0.025182,0.001000,0.001000,0.001000,0.001000,0.001000
1006.653846,0.024060,0.001000,0.001000,0.001000,0.001000,0.001000
1006.673077,0.022921,0.001000,0.001000,0.001000,0.001000,0.001000
1006.692308,0.021768,0.001000,0.001000,0.001000,0.001000,0.001000
1006.711538,0.020600,0.001000,0.001000,0.001000,0.001000,0.001000
1006.730769,0.019419,0.001000,0.001000,0.001000,0.001000,0.001000
1006.750000,0.018224,0.001000,0.001000,0.001000,0.001000,0.001000
1006.769231,0.017017,0.001000,0.001000,0.001000,0.001000,0.001000
1006.788462,0.015799,0.001000,0.001000,0.001000,0.001000,0.001000
1006.807692,0.014571,0.001000,0.001000,0.001000,0.001000,0.001000
1006.826923,0.013333,0.001000,0.001000,0.001000,0.001000,0.001000
1006.846154,0.012086,0.001000,0.001000,0.001000,0.001000,0.001000
1006.865385,0.010831,0.001000,0.001000,0.001000,0.001000,0.001000
1006.884615,0.009568,0.001000,0.001000,0.001000,0.001000,0.001000
1006.903846,0.008300,0.001000,0.001000,0.001000,0.001000,0.001000
1006.923077,0.007026,0.001000,0.001000,0.001000,0.001000,0.001000
1006.942308,0.005747,0.001000,0.001000,0.001000,0.001000,0.001000
1006.961538,0.004464,0.001000,0.001000,0.001000,0.001000,0.001000
1006.980769,0.003179,0.001000,0.001000,0.001000,0.001000,0.001000
1007.000000,0.001891,0.001000,0.001000,0.001000,0.001000,0.001000
1007.019231,0.000602,0.001000,0.001000,0.001000,0.001000,0.001000
1007.038462,-0.000688,0.001000,0.001000,0.001000,0.001000,0.001000
1007.057692,-0.001976,0.001000,0.001000,0.001000,0.001000,0.001000
1007.076923,-0.003264,0.001000,0.001000,0.001000,0.001000,0.001000
1007.096154,-0.004550,0.001000,0.001000,0.001000,0.001000,0.001000
1007.115385,-0.005832,0.001000,0.001000,0.001000,0.001000,0.001000
1007.134615,-0.007110,0.001000,0.001000,0.001000,0.001000,0.001000
1007.153846,-0.008384,0.001000,0.001000,0.001000,0.001000,0.001000
1007.173077,-0.009652,0.001000,0.001000,0.001000,0.001000,0.001000
1007.192308,-0.010914,0.001000,0.001000,0.001000,0.001000,0.001000
1007.211538,-0.012169,0.001000,0.001000,0.001000,0.001000,0.001000
1007.230769,-0.013415,0.001000,0.001000,0.001000,0.001000,0.001000
1007.250000,-0.014653,0.001000,0.001000,0.001000,0.001000,0.001000
1007.269231,-0.015881,0.001000,0.001000,0.001000,0.001000,0.001000
1007.288462,-0.017098,0.001000,0.001000,0.001000,0.001000,0.001000
1007.307692,-0.018304,0.001000,0.001000,0.001000,0.001000,0.001000
1007.326923,-0.019497,0.001000,0.001000,0.001000,0.001000,0.001000
1007.346154,-0.020678,0.001000,0.001000,0.001000,0.001000,0.001000
1007.365385,-0.021845,0.001000,0.001000,0.001000,0.001000,0.001000
1007.384615,-0.022998,0.001000,0.001000,0.001000,0.001000,0.001000
1007.403846,-0.024135,0.001000,0.001000,0.001000,0.001000,0.001000
1007.423077,-0.025256,0.001000,0.001000,0.001000,0.001000,0.001000
1007.442308,-0.026360,0.001000,0.001000,0.001000,0.001000,0.001000
1007.461538,-0.027447,0.001000,0.001000,0.001000,0.001000,0.001000
1007.480769,-0.028515,0.001000,0.001000,0.001000,0.001000,0.001000
1007.500000,-0.029565,0.001000,0.001000,0.001000,0.001000,0.001000
1007.519231,-0.030595,0.001000,0.001000,0.001000,0.001000,0.001000
1007.538462,-0.031605,0.001000,0.001000,0.001000,0.001000,0.001000
1007.557692,-0.032593,0.001000,0.001000,0.001000,0.001000,0.001000
1007.576923,-0.033560,0.001000,0.001000,0.001000,0.001000,0.001000
1007.596154,-0.034504,0.001000,0.001000,0.001000,0.001000,0.001000
1007.615385,-0.035426,0.001000,0.001000,0.001000,0.001000,0.001000
1007.634615,-0.036324,0.001000,0.001000,0.001000,0.001000,0.001000
1007.653846,-0.037198,0.001000,0.001000,0.001000,0.001000,0.001000
1007.673077,-0.038047,0.001000,0.001000,0.001000,0.001000,0.001000
1007.692308,-0.038871,0.001000,0.001000,0.001000,0.001000,0.001000
1007.711538,-0.039669,0.001000,0.001000,0.001000,0.001000,0.001000
1007.730769,-0.040441,0.001000,0.001000,0.001000,0.001000,0.001000
1007.750000,-0.041185,0.001000,0.001000,0.001000,0.001000,0.001000
1007.769231,-0.041903,0.001000,0.001000,0.001000,0.001000,0.001000
1007.788462,-0.042592,0.001000,0.001000,0.001000,0.001000,0.001000
1007.807692,-0.043253,0.001000,0.001000,0.001000,0.001000,0.001000
1007.826923,-0.043886,0.001000,0.001000,0.001000,0.001000,0.001000
1007.846154,-0.044489,0.001000,0.001000,0.001000,0.001000,0.001000
1007.865385,-0.045063,0.001000,0.001000,0.001000,0.001000,0.001000
1007.884615,-0.045606,0.001000,0.001000,0.001000,0.001000,0.001000
1007.903846,-0.046120,0.001000,0.001000,0.001000,0.001000,0.001000
1007.923077,-0.046602,0.001000,0.001000,0.001000,0.001000,0.001000
1007.942308,-0.047054,0.001000,0.001000,0.001000,0.001000,0.001000
1007.961538,-0.047474,0.001000,0.001000,0.001000,0.001000,0.001000
1007.980769,-0.047863,0.001000,0.001000,0.001000,0.001000,0.001000
1008.000000,-0.048220,0.001000,0.001000,0.001000,0.001000,0.001000
1008.019231,-0.048545,0.001000,0.001000,0.001000,0.001000,0.001000
1008.038462,-0.048838,0.001000,0.001000,0.001000,0.001000,0.001000
1008.057692,-0.049098,0.001000,0.001000,0.001000,0.001000,0.001000
1008.076923,-0.049325,0.001000,0.001000,0.001000,0.001000,0.001000
1008.096154,-0.049520,0.001000,0.001000,0.001000,0.001000,0.001000
1008.115385,-0.049682,0.001000,0.001000,0.001000,0.001000,0.001000
1008.134615,-0.049810,0.001000,0.001000,0.001000,0.001000,0.001000
1008.153846,-0.049906,0.001000,0.001000,0.001000,0.001000,0.001000
1008.173077,-0.049968,0.001000,0.001000,0.001000,0.001000,0.001000
1008.192308,-0.049998,0.001000,0.001000,0.001000,0.001000,0.001000
1008.211538,-0.049994,0.001000,0.001000,0.001000,0.001000,0.001000
1008.230769,-0.049956,0.001000,0.001000,0.001000,0.001000,0.001000
1008.250000,-0.049886,0.001000,0.001000,0.001000,0.001000,0.001000
1008.269231,-0.049782,0.001000,0.001000,0.001000,0.001000,0.001000
1008.288462,-0.049645,0.001000,0.001000,0.001000,0.001000,0.001000
1008.307692,-0.049475,0.001000,0.001000,0.001000,0.001000,0.001000
1008.326923,-0.049273,0.001000,0.001000,0.001000,0.001000,0.001000
1008.346154,-0.049037,0.001000,0.001000,0.001000,0.001000,0.001000
1008.365385,-0.048769,0.001000,0.001000,0.001000,0.001000,0.001000
1008.384615,-0.048469,0.001000,0.001000,0.001000,0.001000,0.001000
1008.403846,-0.048136,0.001000,0.001000,0.001000,0.001000,0.001000
1008.423077,-0.047771,0.001000,0.001000,0.001000,0.001000,0.001000
1008.442308,-0.047375,0.001000,0.001000,0.001000,0.001000,0.001000
1008.461538,-0.046946,0.001000,0.001000,0.001000,0.001000,0.001000
1008.480769,-0.046487,0.001000,0.001000,0.001000,0.001000,0.001000
1008.500000,-0.045997,0.001000,0.001000,0.001000,0.001000,0.001000
1008.519231,-0.045476,0.001000,0.001000,0.001000,0.001000,0.001000
1008.538462,-0.044925,0.001000,0.001000,0.001000,0.001000,0.001000
1008.557692,-0.044344,0.001000,0.001000,0.001000,0.001000,0.001000
1008.576923,-0.043734,0.001000,0.001000,0.001000,0.001000,0.001000
1008.596154,-0.043095,0.001000,0.001000,0.001000,0.001000,0.001000
1008.615385,-0.042426,0.001000,0.001000,0.001000,0.001000,0.001000
1008.634615,-0.041730,0.001000,0.001000,0.001000,0.001000,0.001000
1008.653846,-0.041006,0.001000,0.001000,0.001000,0.001000,0.001000
1008.673077,-0.040255,0.001000,0.001000,0.001000,0.001000,0.001000
1008.692308,-0.039477,0.001000,0.001000,0.001000,0.001000,0.001000
1008.711538,-0.038672,0.001000,0.001000,0.001000,0.001000,0.001000
1008.730769,-0.037842,0.001000,0.001000,0.001000,0.001000,0.001000
1008.750000,-0.036987,0.001000,0.001000,0.001000,0.001000,0.001000
1008.769231,-0.036107,0.001000,0.001000,0.001000,0.001000,0.001000
1008.788462,-0.035203,0.001000,0.001000,0.001000,0.001000,0.001000
1008.807692,-0.034276,0.001000,0.001000,0.001000,0.001000,0.001000
1008.826923,-0.033326,0.001000,0.001000,0.001000,0.001000,0.001000
1008.846154,-0.032354,0.001000,0.001000,0.001000,0.001000,0.001000
1008.865385,-0.031360,0.001000,0.001000,0.001000,0.001000,0.001000
1008.884615,-0.030345,0.001000,0.001000,0.001000,0.001000,0.001000
1008.903846,-0.029311,0.001000,0.001000,0.001000,0.001000,0.001000
1008.923077,-0.028256,0.001000,0.001000,0.001000,0.001000,0.001000
1008.942308,-0.027183,0.001000,0.001000,0.001000,0.001000,0.001000
1008.961538,-0.026092,0.001000,0.001000,0.001000,0.001000,0.001000
1008.980769,-0.024984,0.001000,0.001000,0.001000,0.001000,0.001000
1009.000000,-0.023859,0.001000,0.001000,0.001000,0.001000,0.001000
1009.019231,-0.022718,0.001000,0.001000,0.001000,0.001000,0.001000
1009.038462,-0.021561,0.001000,0.001000,0.001000,0.001000,0.001000
1009.057692,-0.020391,0.001000,0.001000,0.001000,0.001000,0.001000
1009.076923,-0.019207,0.001000,0.001000,0.001000,0.001000,0.001000
1009.096154,-0.018010,0.001000,0.001000,0.001000,0.001000,0.001000
1009.115385,-0.016802,0.001000,0.001000,0.001000,0.001000,0.001000
1009.134615,-0.015582,0.001000,0.001000,0.001000,0.001000,0.001000
1009.153846,-0.014352,0.001000,0.001000,0.001000,0.001000,0.001000
1009.173077,-0.013112,0.001000,0.001000,0.001000,0.001000,0.001000
1009.192308,-0.011863,0.001000,0.001000,0.001000,0.001000,0.001000
1009.211538,-0.010607,0.001000,0.001000,0.001000,0.001000,0.001000
1009.230769,-0.009343,0.001000,0.001000,0.001000,0.001000,0.001000
1009.250000,-0.008074,0.001000,0.001000,0.001000,0.001000,0.001000
1009.269231,-0.006799,0.001000,0.001000,0.001000,0.001000,0.001000
1009.288462,-0.005519,0.001000,0.001000,0.001000,0.001000,0.001000
1009.307692,-0.004236,0.001000,0.001000,0.001000,0.001000,0.001000
1009.326923,-0.002950,0.001000,0.001000,0.001000,0.001000,0.001000
1009.346154,-0.001662,0.001000,0.001000,0.001000,0.001000,0.001000
1009.365385,-0.000373,0.001000,0.001000,0.001000,0.001000,0.001000
1009.384615,0.000917,0.001000,0.001000,0.001000,0.001000,0.001000
1009.403846,0.002205,0.001000,0.001000,0.001000,0.001000,0.001000
1009.423077,0.003493,0.001000,0.001000,0.001000,0.001000,0.001000
1009.442308,0.004778,0.001000,0.001000,0.001000,0.001000,0.001000
1009.461538,0.006059,0.001000,0.001000,0.001000,0.001000,0.001000
1009.480769,0.007337,0.001000,0.001000,0.001000,0.001000,0.001000
1009.500000,0.008610,0.001000,0.001000,0.001000,0.001000,0.001000
1009.519231,0.009877,0.001000,0.001000,0.001000,0.001000,0.001000
1009.538462,0.011138,0.001000,0.001000,0.001000,0.001000,0.001000
1009.557692,0.012391,0.001000,0.001000,0.001000,0.001000,0.001000
1009.576923,0.013636,0.001000,0.001000,0.001000,0.001000,0.001000
1009.596154,0.014872,0.001000,0.001000,0.001000,0.001000,0.001000
1009.615385,0.016098,0.001000,0.001000,0.001000,0.001000,0.001000
1009.634615,0.017313,0.001000,0.001000,0.001000,0.001000,0.001000
1009.653846,0.018517,0.001000,0.001000,0.001000,0.001000,0.001000
1009.673077,0.019708,0.001000,0.001000,0.001000,0.001000,0.001000
1009.692308,0.020887,0.001000,0.001000,0.001000,0.001000,0.001000
1009.711538,0.022051,0.001000,0.001000,0.001000,0.001000,0.001000
1009.730769,0.023201,0.001000,0.001000,0.001000,0.001000,0.001000
1009.750000,0.024335,0.001000,0.001000,0.001000,0.001000,0.001000
1009.769231,0.025453,0.001000,0.001000,0.001000,0.001000,0.001000
1009.788462,0.026555,0.001000,0.001000,0.001000,0.001000,0.001000
1009.807692,0.027638,0.001000,0.001000,0.001000,0.001000,0.001000
1009.826923,0.028703,0.001000,0.001000,0.001000,0.001000,0.001000
1009.846154,0.029750,0.001000,0.001000,0.001000,0.001000,0.001000
1009.865385,0.030776,0.001000,0.001000,0.001000,0.001000,0.001000
1009.884615,0.031782,0.001000,0.001000,0.001000,0.001000,0.001000
1009.903846,0.032767,0.001000,0.001000,0.001000,0.001000,0.001000
1009.923077,0.033729,0.001000,0.001000,0.001000,0.001000,0.001000
1009.942308,0.034670,0.001000,0.001000,0.001000,0.001000,0.001000
1009.961538,0.035587,0.001000,0.001000,0.001000,0.001000,0.001000
1009.980769,0.036481,0.001000,0.001000,0.001000,0.001000,0.001000
1010.000000,0.037351,0.001000,0.001000,0.001000,0.001000,0.001000
1010.019231,0.038195,0.001000,0.001000,0.001000,0.001000,0.001000
1010.038462,0.039015,0.001000,0.001000,0.001000,0.001000,0.001000
1010.057692,0.039808,0.001000,0.001000,0.001000,0.001000,0.001000
1010.076923,0.040575,0.001000,0.001000,0.001000,0.001000,0.001000
1010.096154,0.041315,0.001000,0.001000,0.001000,0.001000,0.001000
1010.115385,0.042027,0.001000,0.001000,0.001000,0.001000,0.001000
1010.134615,0.042712,0.001000,0.001000,0.001000,0.001000,0.001000
1010.153846,0.043368,0.001000,0.001000,0.001000,0.001000,0.001000
1010.173077,0.043995,0.001000,0.001000,0.001000,0.001000,0.001000
1010.192308,0.044593,0.001000,0.001000,0.001000,0.001000,0.001000
1010.211538,0.045161,0.001000,0.001000,0.001000,0.001000,0.001000
1010.230769,0.045700,0.001000,0.001000,0.001000,0.001000,0.001000
1010.250000,0.046208,0.001000,0.001000,0.001000,0.001000,0.001000
1010.269231,0.046685,0.001000,0.001000,0.001000,0.001000,0.001000
1010.288462,0.047131,0.001000,0.001000,0.001000,0.001000,0.001000
1010.307692,0.047546,0.001000,0.001000,0.001000,0.001000,0.001000
1010.326923,0.047929,0.001000,0.001000,0.001000,0.001000,0.001000
1010.346154,0.048280,0.001000,0.001000,0.001000,0.001000,0.001000
1010.365385,0.048599,0.001000,0.001000,0.001000,0.001000,0.001000
1010.384615,0.048886,0.001000,0.001000,0.001000,0.001000,0.001000
1010.403846,0.049141,0.001000,0.001000,0.001000,0.001000,0.001000
1010.423077,0.049362,0.001000,0.001000,0.001000,0.001000,0.001000
1010.442308,0.049551,0.001000,0.001000,0.001000,0.001000,0.001000
1010.461538,0.049707,0.001000,0.001000,0.001000,0.001000,0.001000
1010.480769,0.049830,0.001000,0.001000,0.001000,0.001000,0.001000
1010.500000,0.049920,0.001000,0.001000,0.001000,0.001000,0.001000
1010.519231,0.049976,0.001000,0.001000,0.001000,0.001000,0.001000
1010.538462,0.049999,0.001000,0.001000,0.001000,0.001000,0.001000
1010.557692,0.049989,0.001000,0.001000,0.001000,0.001000,0.001000
1010.576923,0.049946,0.001000,0.001000,0.001000,0.001000,0.001000
1010.596154,0.049870,0.001000,0.001000,0.001000,0.001000,0.001000
1010.615385,0.049760,0.001000,0.001000,0.001000,0.001000,0.001000
1010.634615,0.049617,0.001000,0.001000,0.001000,0.001000,0.001000
1010.653846,0.049442,0.001000,0.001000,0.001000,0.001000,0.001000
1010.673077,0.049233,0.001000,0.001000,0.001000,0.001000,0.001000
1010.692308,0.048992,0.001000,0.001000,0.001000,0.001000,0.001000
1010.711538,0.048718,0.001000,0.001000,0.001000,0.001000,0.001000
1010.730769,0.048412,0.001000,0.001000,0.001000,0.001000,0.001000
1010.750000,0.048073,0.001000,0.001000,0.001000,0.001000,0.001000
1010.769231,0.047703,0.001000,0.001000,0.001000,0.001000,0.001000
1010.788462,0.047301,0.001000,0.001000,0.001000,0.001000,0.001000
1010.807692,0.046867,0.001000,0.001000,0.001000,0.001000,0.001000
1010.826923,0.046402,0.001000,0.001000,0.001000,0.001000,0.001000
1010.846154,0.045907,0.001000,0.001000,0.001000,0.001000,0.001000
1010.865385,0.045381,0.001000,0.001000,0.001000,0.001000,0.001000
1010.884615,0.044824,0.001000,0.001000,0.001000,0.001000,0.001000
1010.903846,0.044238,0.001000,0.001000,0.001000,0.001000,0.001000
1010.923077,0.043622,0.001000,0.001000,0.001000,0.001000,0.001000
1010.942308,0.042978,0.001000,0.001000,0.001000,0.001000,0.001000
1010.961538,0.042305,0.001000,0.001000,0.001000,0.001000,0.001000
1010.980769,0.041603,0.001000,0.001000,0.001000,0.001000,0.001000
1011.000000,0.040874,0.001000,0.001000,0.001000,0.001000,0.001000
1011.019231,0.040118,0.001000,0.001000,0.001000,0.001000,0.001000
1011.038462,0.039336,0.001000,0.001000,0.001000,0.001000,0.001000
1011.057692,0.038527,0.001000,0.001000,0.001000,0.001000,0.001000
1011.076923,0.037692,0.001000,0.001000,0.001000,0.001000,0.001000
1011.096154,0.036832,0.001000,0.001000,0.001000,0.001000,0.001000
1011.115385,0.035948,0.001000,0.001000,0.001000,0.001000,0.001000
1011.134615,0.035040,0.001000,0.001000,0.001000,0.001000,0.001000
1011.153846,0.034109,0.001000,0.001000,0.001000,0.001000,0.001000
1011.173077,0.033155,0.001000,0.001000,0.001000,0.001000,0.001000
1011.192308,0.032179,0.001000,0.001000,0.001000,0.001000,0.001000
1011.211538,0.031181,0.001000,0.001000,0.001000,0.001000,0.001000
1011.230769,0.030163,0.001000,0.001000,0.001000,0.001000,0.001000
1011.250000,0.029125,0.001000,0.001000,0.001000,0.001000,0.001000
1011.269231,0.028067,0.001000,0.001000,0.001000,0.001000,0.001000
1011.288462,0.026991,0.001000,0.001000,0.001000,0.001000,0.001000
1011.307692,0.025896,0.001000,0.001000,0.001000,0.001000,0.001000
1011.326923,0.024785,0.001000,0.001000,0.001000,0.001000,0.001000
1011.346154,0.023657,0.001000,0.001000,0.001000,0.001000,0.001000
1011.365385,0.022513,0.001000,0.001000,0.001000,0.001000,0.001000
1011.384615,0.021354,0.001000,0.001000,0.001000,0.001000,0.001000
1011.403846,0.020182,0.001000,0.001000,0.001000,0.001000,0.001000
1011.423077,0.018995,0.001000,0.001000,0.001000,0.001000,0.001000
1011.442308,0.017796,0.001000,0.001000,0.001000,0.001000,0.001000
1011.461538,0.016586,0.001000,0.001000,0.001000,0.001000,0.001000
1011.480769,0.015364,0.001000,0.001000,0.001000,0.001000,0.001000
1011.500000,0.014132,0.001000,0.001000,0.001000,0.001000,0.001000
1011.519231,0.012890,0.001000,0.001000,0.001000,0.001000,0.001000
1011.538462,0.011640,0.001000,0.001000,0.001000,0.001000,0.001000
1011.557692,0.010383,0.001000,0.001000,0.001000,0.001000,0.001000
1011.576923,0.009118,0.001000,0.001000,0.001000,0.001000,0.001000
1011.596154,0.007847,0.001000,0.001000,0.001000,0.001000,0.001000
1011.615385,0.006572,0.001000,0.001000,0.001000,0.001000,0.001000
1011.634615,0.005291,0.001000,0.001000,0.001000,0.001000,0.001000
1011.653846,0.004007,0.001000,0.001000,0.001000,0.001000,0.001000
1011.673077,0.002721,0.001000,0.001000,0.001000,0.001000,0.001000
1011.692308,0.001433,0.001000,0.001000,0.001000,0.001000,0.001000
1011.711538,0.000143,0.001000,0.001000,0.001000,0.001000,0.001000
1011.730769,-0.001146,0.001000,0.001000,0.001000,0.001000,0.001000
1011.750000,-0.002434,0.001000,0.001000,0.001000,0.001000,0.001000
1011.769231,-0.003721,0.001000,0.001000,0.001000,0.001000,0.001000
1011.788462,-0.005006,0.001000,0.001000,0.001000,0.001000,0.001000
1011.807692,-0.006287,0.001000,0.001000,0.001000,0.001000,0.001000
1011.826923,-0.007564,0.001000,0.001000,0.001000,0.001000,0.001000
1011.846154,-0.008836,0.001000,0.001000,0.001000,0.001000,0.001000
1011.865385,-0.010102,0.001000,0.001000,0.001000,0.001000,0.001000
1011.884615,-0.011361,0.001000,0.001000,0.001000,0.001000,0.001000
1011.903846,-0.012613,0.001000,0.001000,0.001000,0.001000,0.001000
1011.923077,-0.013856,0.001000,0.001000,0.001000,0.001000,0.001000
1011.942308,-0.015090,0.001000,0.001000,0.001000,0.001000,0.001000
1011.961538,-0.016315,0.001000,0.001000,0.001000,0.001000,0.001000
1011.980769,-0.017528,0.001000,0.001000,0.001000,0.001000,0.001000
1012.000000,-0.018730,0.001000,0.001000,0.001000,0.001000,0.001000
1012.019231,-0.019919,0.001000,0.001000,0.001000,0.001000,0.001000
1012.038462,-0.021095,0.001000,0.001000,0.001000,0.001000,0.001000
1012.057692,-0.022257,0.001000,0.001000,0.001000,0.001000,0.001000
1012.076923,-0.023404,0.001000,0.001000,0.001000,0.001000,0.001000
1012.096154,-0.024535,0.001000,0.001000,0.001000,0.001000,0.001000
1012.115385,-0.025650,0.001000,0.001000,0.001000,0.001000,0.001000
1012.134615,-0.026749,0.001000,0.001000,0.001000,0.001000,0.001000
1012.153846,-0.027829,0.001000,0.001000,0.001000,0.001000,0.001000
1012.173077,-0.028891,0.001000,0.001000,0.001000,0.001000,0.001000
1012.192308,-0.029933,0.001000,0.001000,0.001000,0.001000,0.001000
1012.211538,-0.030956,0.001000,0.001000,0.001000,0.001000,0.001000
1012.230769,-0.031958,0.001000,0.001000,0.001000,0.001000,0.001000
1012.250000,-0.032939,0.001000,0.001000,0.001000,0.001000,0.001000
1012.269231,-0.033898,0.001000,0.001000,0.001000,0.001000,0.001000
1012.288462,-0.034835,0.001000,0.001000,0.001000,0.001000,0.001000
1012.307692,-0.035748,0.001000,0.001000,0.001000,0.001000,0.001000
1012.326923,-0.036638,0.001000,0.001000,0.001000,0.001000,0.001000
1012.346154,-0.037503,0.001000,0.001000,0.001000,0.001000,0.001000
1012.365385,-0.038343,0.001000,0.001000,0.001000,0.001000,0.001000
1012.384615,-0.039158,0.001000,0.001000,0.001000,0.001000,0.001000
1012.403846,-0.039946,0.001000,0.001000,0.001000,0.001000,0.001000
1012.423077,-0.040709,0.001000,0.001000,0.001000,0.001000,0.001000
1012.442308,-0.041444,0.001000,0.001000,0.001000,0.001000,0.001000
1012.461538,-0.042151,0.001000,0.001000,0.001000,0.001000,0.001000
1012.480769,-0.042831,0.001000,0.001000,0.001000,0.001000,0.001000
1012.500000,-0.043481,0.001000,0.001000,0.001000,0.001000,0.001000
1012.519231,-0.044104,0.001000,0.001000,0.001000,0.001000,0.001000
1012.538462,-0.044696,0.001000,0.001000,0.001000,0.001000,0.001000
1012.557692,-0.045259,0.001000,0.001000,0.001000,0.001000,0.001000
1012.576923,-0.045792,0.001000,0.001000,0.001000,0.001000,0.001000
1012.596154,-0.046295,0.001000,0.001000,0.001000,0.001000,0.001000
1012.615385,-0.046766,0.001000,0.001000,0.001000,0.001000,0.001000
1012.634615,-0.047207,0.001000,0.001000,0.001000,0.001000,0.001000
1012.653846,-0.047616,0.001000,0.001000,0.001000,0.001000,0.001000
1012.673077,-0.047994,0.001000,0.001000,0.001000,0.001000,0.001000
1012.692308,-0.048339,0.001000,0.001000,0.001000,0.001000,0.001000
1012.711538,-0.048653,0.001000,0.001000,0.001000,0.001000,0.001000
1012.730769,-0.048934,0.001000,0.001000,0.001000,0.001000,0.001000
1012.750000,-0.049182,0.001000,0.001000,0.001000,0.001000,0.001000
1012.769231,-0.049398,0.001000,0.001000,0.001000,0.001000,0.001000
1012.788462,-0.049581,0.001000,0.001000,0.001000,0.001000,0.001000
1012.807692,-0.049731,0.001000,0.001000,0.001000,0.001000,0.001000
1012.826923,-0.049848,0.001000,0.001000,0.001000,0.001000,0.001000
1012.846154,-0.049932,0.001000,0.001000,0.001000,0.001000,0.001000
1012.865385,-0.049983,0.001000,0.001000,0.001000,0.001000,0.001000
1012.884615,-0.050000,0.001000,0.001000,0.001000,0.001000,0.001000
1012.903846,-0.049984,0.001000,0.001000,0.001000,0.001000,0.001000
1012.923077,-0.049935,0.001000,0.001000,0.001000,0.001000,0.001000
1012.942308,-0.049853,0.001000,0.001000,0.001000,0.001000,0.001000
1012.961538,-0.049737,0.001000,0.001000,0.001000,0.001000,0.001000
1012.980769,-0.049589,0.001000,0.001000,0.001000,0.001000,0.001000
1013.000000,-0.049407,0.001000,0.001000,0.001000,0.001000,0.001000
1013.019231,-0.049193,0.001000,0.001000,0.001000,0.001000,0.001000
1013.038462,-0.048946,0.001000,0.001000,0.001000,0.001000,0.001000
1013.057692,-0.048666,0.001000,0.001000,0.001000,0.001000,0.001000
1013.076923,-0.048354,0.001000,0.001000,0.001000,0.001000,0.001000
1013.096154,-0.048010,0.001000,0.001000,0.001000,0.001000,0.001000
1013.115385,-0.047634,0.001000,0.001000,0.001000,0.001000,0.001000
1013.134615,-0.047226,0.001000,0.001000,0.001000,0.001000,0.001000
1013.153846,-0.046787,0.001000,0.001000,0.001000,0.001000,0.001000
1013.173077,-0.046316,0.001000,0.001000,0.001000,0.001000,0.001000
1013.192308,-0.045815,0.001000,0.001000,0.001000,0.001000,0.001000
1013.211538,-0.045284,0.001000,0.001000,0.001000,0.001000,0.001000
1013.230769,-0.044722,0.001000,0.001000,0.001000,0.001000,0.001000
1013.250000,-0.044131,0.001000,0.001000,0.001000,0.001000,0.001000
1013.269231,-0.043510,0.001000,0.001000,0.001000,0.001000,0.001000
1013.288462,-0.042860,0.001000,0.001000,0.001000,0.001000,0.001000
1013.307692,-0.042182,0.001000,0.001000,0.001000,0.001000,0.001000
1013.326923,-0.041476,0.001000,0.001000,0.001000,0.001000,0.001000
1013.346154,-0.040742,0.001000,0.001000,0.001000,0.001000,0.001000
1013.365385,-0.039981,0.001000,0.001000,0.001000,0.001000,0.001000
1013.384615,-0.039194,0.001000,0.001000,0.001000,0.001000,0.001000
1013.403846,-0.038380,0.001000,0.001000,0.001000,0.001000,0.001000
1013.423077,-0.037541,0.001000,0.001000,0.001000,0.001000,0.001000
1013.442308,-0.036677,0.001000,0.001000,0.001000,0.001000,0.001000
1013.461538,-0.035788,0.001000,0.001000,0.001000,0.001000,0.001000
1013.480769,-0.034876,0.001000,0.001000,0.001000,0.001000,0.001000
1013.500000,-0.033941,0.001000,0.001000,0.001000,0.001000,0.001000
1013.519231,-0.032983,0.001000,0.001000,0.001000,0.001000,0.001000
1013.538462,-0.032003,0.001000,0.001000,0.001000,0.001000,0.001000
1013.557692,-0.031002,0.001000,0.001000,0.001000,0.001000,0.001000
1013.576923,-0.029980,0.001000,0.001000,0.001000,0.001000,0.001000
1013.596154,-0.028938,0.001000,0.001000,0.001000,0.001000,0.001000
1013.615385,-0.027877,0.001000,0.001000,0.001000,0.001000,0.001000
1013.634615,-0.026797,0.001000,0.001000,0.001000,0.001000,0.001000
1013.653846,-0.025700,0.001000,0.001000,0.001000,0.001000,0.001000
1013.673077,-0.024586,0.001000,0.001000,0.001000,0.001000,0.001000
1013.692308,-0.023455,0.001000,0.001000,0.001000,0.001000,0.001000
1013.711538,-0.022308,0.001000,0.001000,0.001000,0.001000,0.001000
1013.730769,-0.021147,0.001000,0.001000,0.001000,0.001000,0.001000
1013.750000,-0.019972,0.001000,0.001000,0.001000,0.001000,0.001000
1013.769231,-0.018783,0.001000,0.001000,0.001000,0.001000,0.001000
1013.788462,-0.017582,0.001000,0.001000,0.001000,0.001000,0.001000
1013.807692,-0.016369,0.001000,0.001000,0.001000,0.001000,0.001000
1013.826923,-0.015146,0.001000,0.001000,0.001000,0.001000,0.001000
1013.846154,-0.013912,0.001000,0.001000,0.001000,0.001000,0.001000
1013.865385,-0.012669,0.001000,0.001000,0.001000,0.001000,0.001000
1013.884615,-0.011417,0.001000,0.001000,0.001000,0.001000,0.001000
1013.903846,-0.010158,0.001000,0.001000,0.001000,0.001000,0.001000
1013.923077,-0.008893,0.001000,0.001000,0.001000,0.001000,0.001000
1013.942308,-0.007621,0.001000,0.001000,0.001000,0.001000,0.001000
1013.961538,-0.006344,0.001000,0.001000,0.001000,0.001000,0.001000
1013.980769,-0.005063,0.001000,0.001000,0.001000,0.001000,0.001000
1014.000000,-0.003779,0.001000,0.001000,0.001000,0.001000,0.001000
1014.019231,-0.002492,0.001000,0.001000,0.001000,0.001000,0.001000
1014.038462,-0.001204,0.001000,0.001000,0.001000,0.001000,0.001000
1014.057692,0.000086,0.001000,0.001000,0.001000,0.001000,0.001000
1014.076923,0.001375,0.001000,0.001000,0.001000,0.001000,0.001000
1014.096154,0.002663,0.001000,0.001000,0.001000,0.001000,0.001000
1014.115385,0.003950,0.001000,0.001000,0.001000,0.001000,0.001000
1014.134615,0.005234,0.001000,0.001000,0.001000,0.001000,0.001000
1014.153846,0.006514,0.001000,0.001000,0.001000,0.001000,0.001000
1014.173077,0.007790,0.001000,0.001000,0.001000,0.001000,0.001000
1014.192308,0.009061,0.001000,0.001000,0.001000,0.001000,0.001000
1014.211538,0.010326,0.001000,0.001000,0.001000,0.001000,0.001000
1014.230769,0.011584,0.001000,0.001000,0.001000,0.001000,0.001000
1014.250000,0.012835,0.001000,0.001000,0.001000,0.001000,0.001000
1014.269231,0.014076,0.001000,0.001000,0.001000,0.001000,0.001000
1014.288462,0.015309,0.001000,0.001000,0.001000,0.001000,0.001000
1014.307692,0.016531,0.001000,0.001000,0.001000,0.001000,0.001000
1014.326923,0.017742,0.001000,0.001000,0.001000,0.001000,0.001000
1014.346154,0.018942,0.001000,0.001000,0.001000,0.001000,0.001000
1014.365385,0.020129,0.001000,0.001000,0.001000,0.001000,0.001000
1014.384615,0.021302,0.001000,0.001000,0.001000,0.001000,0.001000
1014.403846,0.022462,0.001000,0.001000,0.001000,0.001000,0.001000
1014.423077,0.023606,0.001000,0.001000,0.001000,0.001000,0.001000
1014.442308,0.024735,0.001000,0.001000,0.001000,0.001000,0.001000
1014.461538,0.025847,0.001000,0.001000,0.001000,0.001000,0.001000
1014.480769,0.026942,0.001000,0.001000,0.001000,0.001000,0.001000
1014.500000,0.028019,0.001000,0.001000,0.001000,0.001000,0.001000
1014.519231,0.029078,0.001000,0.001000,0.001000,0.001000,0.001000
1014.538462,0.030117,0.001000,0.001000,0.001000,0.001000,0.001000
1014.557692,0.031136,0.001000,0.001000,0.001000,0.001000,0.001000
1014.576923,0.032134,0.001000,0.001000,0.001000,0.001000,0.001000
1014.596154,0.033111,0.001000,0.001000,0.001000,0.001000,0.001000
1014.615385,0.034066,0.001000,0.001000,0.001000,0.001000,0.001000
1014.634615,0.034999,0.001000,0.001000,0.001000,0.001000,0.001000
1014.653846,0.035908,0.001000,0.001000,0.001000,0.001000,0.001000
1014.673077,0.036793,0.001000,0.001000,0.001000,0.001000,0.001000
1014.692308,0.037654,0.001000,0.001000,0.001000,0.001000,0.001000
1014.711538,0.038490,0.001000,0.001000,0.001000,0.001000,0.001000
1014.730769,0.039300,0.001000,0.001000,0.001000,0.001000,0.001000
1014.750000,0.040084,0.001000,0.001000,0.001000,0.001000,0.001000
1014.769231,0.040841,0.001000,0.001000,0.001000,0.001000,0.001000
1014.788462,0.041571,0.001000,0.001000,0.001000,0.001000,0.001000
1014.807692,0.042274,0.001000,0.001000,0.001000,0.001000,0.001000
1014.826923,0.042948,0.001000,0.001000,0.001000,0.001000,0.001000
1014.846154,0.043594,0.001000,0.001000,0.001000,0.001000,0.001000
1014.865385,0.044211,0.001000,0.001000,0.001000,0.001000,0.001000
1014.884615,0.044799,0.001000,0.001000,0.001000,0.001000,0.001000
1014.903846,0.045356,0.001000,0.001000,0.001000,0.001000,0.001000
1014.923077,0.045884,0.001000,0.001000,0.001000,0.001000,0.001000
1014.942308,0.046381,0.001000,0.001000,0.001000,0.001000,0.001000
1014.961538,0.046847,0.001000,0.001000,0.001000,0.001000,0.001000
1014.980769,0.047282,0.001000,0.001000,0.001000,0.001000,0.001000
1015.000000,0.047686,0.001000,0.001000,0.001000,0.001000,0.001000
1015.019231,0.048057,0.001000,0.001000,0.001000,0.001000,0.001000
1015.038462,0.048397,0.001000,0.001000,0.001000,0.001000,0.001000
1015.057692,0.048705,0.001000,0.001000,0.001000,0.001000,0.001000
1015.076923,0.048980,0.001000,0.001000,0.001000,0.001000,0.001000
1015.096154,0.049223,0.001000,0.001000,0.001000,0.001000,0.001000
1015.115385,0.049433,0.001000,0.001000,0.001000,0.001000,0.001000
1015.134615,0.049610,0.001000,0.001000,0.001000,0.001000,0.001000
1015.153846,0.049754,0.001000,0.001000,0.001000,0.001000,0.001000
1015.173077,0.049866,0.001000,0.001000,0.001000,0.001000,0.001000
1015.192308,0.049943,0.001000,0.001000,0.001000,0.001000,0.001000
1015.211538,0.049988,0.001000,0.001000,0.001000,0.001000,0.001000
1015.230769,0.050000,0.001000,0.001000,0.001000,0.001000,0.001000
1015.250000,0.049978,0.001000,0.001000,0.001000,0.001000,0.001000
1015.269231,0.049923,0.001000,0.001000,0.001000,0.001000,0.001000
1015.288462,0.049835,0.001000,0.001000,0.001000,0.001000,0.001000
1015.307692,0.049713,0.001000,0.001000,0.001000,0.001000,0.001000
1015.326923,0.049559,0.001000,0.001000,0.001000,0.001000,0.001000
1015.346154,0.049371,0.001000,0.001000,0.001000,0.001000,0.001000
1015.365385,0.049151,0.001000,0.001000,0.001000,0.001000,0.001000
1015.384615,0.048898,0.001000,0.001000,0.001000,0.001000,0.001000
1015.403846,0.048613,0.001000,0.001000,0.001000,0.001000,0.001000
1015.423077,0.048295,0.001000,0.001000,0.001000,0.001000,0.001000
1015.442308,0.047945,0.001000,0.001000,0.001000,0.001000,0.001000
1015.461538,0.047564,0.001000,0.001000,0.001000,0.001000,0.001000
1015.480769,0.047150,0.001000,0.001000,0.001000,0.001000,0.001000
1015.500000,0.046705,0.001000,0.001000,0.001000,0.001000,0.001000
1015.519231,0.046230,0.001000,0.001000,0.001000,0.001000,0.001000
1015.538462,0.045723,0.001000,0.001000,0.001000,0.001000,0.001000
1015.557692,0.045186,0.001000,0.001000,0.001000,0.001000,0.001000
1015.576923,0.044619,0.001000,0.001000,0.001000,0.001000,0.001000
1015.596154,0.044023,0.001000,0.001000,0.001000,0.001000,0.001000
1015.615385,0.043397,0.001000,0.001000,0.001000,0.001000,0.001000
1015.634615,0.042742,0.001000,0.001000,0.001000,0.001000,0.001000
1015.653846,0.042059,0.001000,0.001000,0.001000,0.001000,0.001000
1015.673077,0.041347,0.001000,0.001000,0.001000,0.001000,0.001000
1015.692308,0.040609,0.001000,0.001000,0.001000,0.001000,0.001000
1015.711538,0.039843,0.001000,0.001000,0.001000,0.001000,0.001000
1015.730769,0.039051,0.001000,0.001000,0.001000,0.001000,0.001000
1015.750000,0.038233,0.001000,0.001000,0.001000,0.001000,0.001000
1015.769231,0.037389,0.001000,0.001000,0.001000,0.001000,0.001000
1015.788462,0.036521,0.001000,0.001000,0.001000,0.001000,0.001000
1015.807692,0.035628,0.001000,0.001000,0.001000,0.001000,0.001000
1015.826923,0.034712,0.001000,0.001000,0.001000,0.001000,0.001000
1015.846154,0.033772,0.001000,0.001000,0.001000,0.001000,0.001000
1015.865385,0.032810,0.001000,0.001000,0.001000,0.001000,0.001000
1015.884615,0.031826,0.001000,0.001000,0.001000,0.001000,0.001000
1015.903846,0.030821,0.001000,0.001000,0.001000,0.001000,0.001000
1015.923077,0.029796,0.001000,0.001000,0.001000,0.001000,0.001000
1015.942308,0.028751,0.001000,0.001000,0.001000,0.001000,0.001000
1015.961538,0.027686,0.001000,0.001000,0.001000,0.001000,0.001000
1015.980769,0.026604,0.001000,0.001000,0.001000,0.001000,0.001000
1016.000000,0.025503,0.001000,0.001000,0.001000,0.001000,0.001000
1016.019231,0.024386,0.001000,0.001000,0.001000,0.001000,0.001000
1016.038462,0.023252,0.001000,0.001000,0.001000,0.001000,0.001000
1016.057692,0.022103,0.001000,0.001000,0.001000,0.001000,0.001000
1016.076923,0.020939,0.001000,0.001000,0.001000,0.001000,0.001000
1016.096154,0.019761,0.001000,0.001000,0.001000,0.001000,0.001000
1016.115385,0.018571,0.001000,0.001000,0.001000,0.001000,0.001000
1016.134615,0.017367,0.001000,0.001000,0.001000,0.001000,0.001000
1016.153846,0.016153,0.001000,0.001000,0.001000,0.001000,0.001000
1016.173077,0.014927,0.001000,0.001000,0.001000,0.001000,0.001000
1016.192308,0.013692,0.001000,0.001000,0.001000,0.001000,0.001000
1016.211538,0.012447,0.001000,0.001000,0.001000,0.001000,0.001000
1016.230769,0.011194,0.001000,0.001000,0.001000,0.001000,0.001000
1016.250000,0.009934,0.001000,0.001000,0.001000,0.001000,0.001000
1016.269231,0.008667,0.001000,0.001000,0.001000,0.001000,0.001000
1016.288462,0.007394,0.001000,0.001000,0.001000,0.001000,0.001000
1016.307692,0.006117,0.001000,0.001000,0.001000,0.001000,0.001000
1016.326923,0.004835,0.001000,0.001000,0.001000,0.001000,0.001000
1016.346154,0.003550,0.001000,0.001000,0.001000,0.001000,0.001000
1016.365385,0.002263,0.001000,0.001000,0.001000,0.001000,0.001000
1016.384615,0.000974,0.001000,0.001000,0.001000,0.001000,0.001000
1016.403846,-0.000315,0.001000,0.001000,0.001000,0.001000,0.001000
1016.423077,-0.001604,0.001000,0.001000,0.001000,0.001000,0.001000
1016.442308,-0.002892,0.001000,0.001000,0.001000,0.001000,0.001000
1016.461538,-0.004178,0.001000,0.001000,0.001000,0.001000,0.001000
1016.480769,-0.005462,0.001000,0.001000,0.001000,0.001000,0.001000
1016.500000,-0.006741,0.001000,0.001000,0.001000,0.001000,0.001000
1016.519231,-0.008017,0.001000,0.001000,0.001000,0.001000,0.001000
1016.538462,-0.009287,0.001000,0.001000,0.001000,0.001000,0.001000
1016.557692,-0.010550,0.001000,0.001000,0.001000,0.001000,0.001000
1016.576923,-0.011807,0.001000,0.001000,0.001000,0.001000,0.001000
1016.596154,-0.013056,0.001000,0.001000,0.001000,0.001000,0.001000
1016.615385,-0.014296,0.001000,0.001000,0.001000,0.001000,0.001000
1016.634615,-0.015527,0.001000,0.001000,0.001000,0.001000,0.001000
1016.653846,-0.016747,0.001000,0.001000,0.001000,0.001000,0.001000
1016.673077,-0.017956,0.001000,0.001000,0.001000,0.001000,0.001000
1016.692308,-0.019154,0.001000,0.001000,0.001000,0.001000,0.001000
1016.711538,-0.020338,0.001000,0.001000,0.001000,0.001000,0.001000
1016.730769,-0.021509,0.001000,0.001000,0.001000,0.001000,0.001000
1016.750000,-0.022666,0.001000,0.001000,0.001000,0.001000,0.001000
1016.769231,-0.023808,0.001000,0.001000,0.001000,0.001000,0.001000
1016.788462,-0.024934,0.001000,0.001000,0.001000,0.001000,0.001000
1016.807692,-0.026043,0.001000,0.001000,0.001000,0.001000,0.001000
1016.826923,-0.027135,0.001000,0.001000,0.001000,0.001000,0.001000
1016.846154,-0.028209,0.001000,0.001000,0.001000,0.001000,0.001000
1016.865385,-0.029264,0.001000,0.001000,0.001000,0.001000,0.001000
1016.884615,-0.030299,0.001000,0.001000,0.001000,0.001000,0.001000
1016.903846,-0.031315,0.001000,0.001000,0.001000,0.001000,0.001000
1016.923077,-0.032310,0.001000,0.001000,0.001000,0.001000,0.001000
1016.942308,-0.033283,0.001000,0.001000,0.001000,0.001000,0.001000
1016.961538,-0.034234,0.001000,0.001000,0.001000,0.001000,0.001000
1016.980769,-0.035162,0.001000,0.001000,0.001000,0.001000,0.001000
1017.000000,-0.036067,0.001000,0.001000,0.001000,0.001000,0.001000
1017.019231,-0.036948,0.001000,0.001000,0.001000,0.001000,0.001000
1017.038462,-0.037804,0.001000,0.001000,0.001000,0.001000,0.001000
1017.057692,-0.038636,0.001000,0.001000,0.001000,0.001000,0.001000
1017.076923,-0.039441,0.001000,0.001000,0.001000,0.001000,0.001000
1017.096154,-0.040220,0.001000,0.001000,0.001000,0.001000,0.001000
1017.115385,-0.040973,0.001000,0.001000,0.001000,0.001000,0.001000
1017.134615,-0.041698,0.001000,0.001000,0.001000,0.001000,0.001000
1017.153846,-0.042396,0.001000,0.001000,0.001000,0.001000,0.001000
1017.173077,-0.043065,0.001000,0.001000,0.001000,0.001000,0.001000
1017.192308,-0.043706,0.001000,0.001000,0.001000,0.001000,0.001000
1017.211538,-0.044318,0.001000,0.001000,0.001000,0.001000,0.001000
1017.230769,-0.044900,0.001000,0.001000,0.001000,0.001000,0.001000
1017.250000,-0.045452,0.001000,0.001000,0.001000,0.001000,0.001000
1017.269231,-0.045974,0.001000,0.001000,0.001000,0.001000,0.001000
1017.288462,-0.046466,0.001000,0.001000,0.001000,0.001000,0.001000
1017.307692,-0.046927,0.001000,0.001000,0.001000,0.001000,0.001000
1017.326923,-0.047356,0.001000,0.001000,0.001000,0.001000,0.001000
1017.346154,-0.047754,0.001000,0.001000,0.001000,0.001000,0.001000
1017.365385,-0.048120,0.001000,0.001000,0.001000,0.001000,0.001000
1017.384615,-0.048454,0.001000,0.001000,0.001000,0.001000,0.001000
1017.403846,-0.048756,0.001000,0.001000,0.001000,0.001000,0.001000
1017.423077,-0.049026,0.001000,0.001000,0.001000,0.001000,0.001000
1017.442308,-0.049263,0.001000,0.001000,0.001000,0.001000,0.001000
1017.461538,-0.049467,0.001000,0.001000,0.001000,0.001000,0.001000
1017.480769,-0.049638,0.001000,0.001000,0.001000,0.001000,0.001000
1017.500000,-0.049777,0.001000,0.001000,0.001000,0.001000,0.001000
1017.519231,-0.049882,0.001000,0.001000,0.001000,0.001000,0.001000
1017.538462,-0.049954,0.001000,0.001000,0.001000,0.001000,0.001000
1017.557692,-0.049993,0.001000,0.001000,0.001000,0.001000,0.001000
1017.576923,-0.049998,0.001000,0.001000,0.001000,0.001000,0.001000
1017.596154,-0.049970,0.001000,0.001000,0.001000,0.001000,0.001000
1017.615385,-0.049910,0.001000,0.001000,0.001000,0.001000,0.001000
1017.634615,-0.049815,0.001000,0.001000,0.001000,0.001000,0.001000
1017.653846,-0.049688,0.001000,0.001000,0.001000,0.001000,0.001000
1017.673077,-0.049528,0.001000,0.001000,0.001000,0.001000,0.001000
1017.692308,-0.049335,0.001000,0.001000,0.001000,0.001000,0.001000
1017.711538,-0.049109,0.001000,0.001000,0.001000,0.001000,0.001000
1017.730769,-0.048850,0.001000,0.001000,0.001000,0.001000,0.001000
1017.750000,-0.048559,0.001000,0.001000,0.001000,0.001000,0.001000
1017.769231,-0.048235,0.001000,0.001000,0.001000,0.001000,0.001000
1017.788462,-0.047880,0.001000,0.001000,0.001000,0.001000,0.001000
1017.807692,-0.047492,0.001000,0.001000,0.001000,0.001000,0.001000
1017.826923,-0.047073,0.001000,0.001000,0.001000,0.001000,0.001000
1017.846154,-0.046623,0.001000,0.001000,0.001000,0.001000,0.001000
1017.865385,-0.046142,0.001000,0.001000,0.001000,0.001000,0.001000
1017.884615,-0.045630,0.001000,0.001000,0.001000,0.001000,0.001000
1017.903846,-0.045088,0.001000,0.001000,0.001000,0.001000,0.001000
1017.923077,-0.044515,0.001000,0.001000,0.001000,0.001000,0.001000
1017.942308,-0.043913,0.001000,0.001000,0.001000,0.001000,0.001000
1017.961538,-0.043282,0.001000,0.001000,0.001000,0.001000,0.001000
1017.980769,-0.042622,0.001000,0.001000,0.001000,0.001000,0.001000
1018.000000,-0.041934,0.001000,0.001000,0.001000,0.001000,0.001000
1018.019231,-0.041218,0.001000,0.001000,0.001000,0.001000,0.001000
1018.038462,-0.040475,0.001000,0.001000,0.001000,0.001000,0.001000
1018.057692,-0.039704,0.001000,0.001000,0.001000,0.001000,0.001000
1018.076923,-0.038907,0.001000,0.001000,0.001000,0.001000,0.001000
1018.096154,-0.038085,0.001000,0.001000,0.001000,0.001000,0.001000
1018.115385,-0.037237,0.001000,0.001000,0.001000,0.001000,0.001000
1018.134615,-0.036364,0.001000,0.001000,0.001000,0.001000,0.001000
1018.153846,-0.035467,0.001000,0.001000,0.001000,0.001000,0.001000
1018.173077,-0.034546,0.001000,0.001000,0.001000,0.001000,0.001000
1018.192308,-0.033603,0.001000,0.001000,0.001000,0.001000,0.001000
1018.211538,-0.032637,0.001000,0.001000,0.001000,0.001000,0.001000
1018.230769,-0.031649,0.001000,0.001000,0.001000,0.001000,0.001000
1018.250000,-0.030641,0.001000,0.001000,0.001000,0.001000,0.001000
1018.269231,-0.029612,0.001000,0.001000,0.001000,0.001000,0.001000
1018.288462,-0.028563,0.001000,0.001000,0.001000,0.001000,0.001000
1018.307692,-0.027495,0.001000,0.001000,0.001000,0.001000,0.001000
1018.326923,-0.026409,0.001000,0.001000,0.001000,0.001000,0.001000
1018.346154,-0.025306,0.001000,0.001000,0.001000,0.001000,0.001000
1018.365385,-0.024185,0.001000,0.001000,0.001000,0.001000,0.001000
1018.384615,-0.023049,0.001000,0.001000,0.001000,0.001000,0.001000
1018.403846,-0.021897,0.001000,0.001000,0.001000,0.001000,0.001000
1018.423077,-0.020731,0.001000,0.001000,0.001000,0.001000,0.001000
1018.442308,-0.019551,0.001000,0.001000,0.001000,0.001000,0.001000
1018.461538,-0.018358,0.001000,0.001000,0.001000,0.001000,0.001000
1018.480769,-0.017152,0.001000,0.001000,0.001000,0.001000,0.001000
1018.500000,-0.015935,0.001000,0.001000,0.001000,0.001000,0.001000
1018.519231,-0.014708,0.001000,0.001000,0.001000,0.001000,0.001000
1018.538462,-0.013471,0.001000,0.001000,0.001000,0.001000,0.001000
1018.557692,-0.012225,0.001000,0.001000,0.001000,0.001000,0.001000
1018.576923,-0.010971,0.001000,0.001000,0.001000,0.001000,0.001000
1018.596154,-0.009709,0.001000,0.001000,0.001000,0.001000,0.001000
1018.615385,-0.008441,0.001000,0.001000,0.001000,0.001000,0.001000
1018.634615,-0.007168,0.001000,0.001000,0.001000,0.001000,0.001000
1018.653846,-0.005889,0.001000,0.001000,0.001000,0.001000,0.001000
1018.673077,-0.004607,0.001000,0.001000,0.001000,0.001000,0.001000
1018.692308,-0.003322,0.001000,0.001000,0.001000,0.001000,0.001000
1018.711538,-0.002034,0.001000,0.001000,0.001000,0.001000,0.001000
1018.730769,-0.000745,0.001000,0.001000,0.001000,0.001000,0.001000
1018.750000,0.000544,0.001000,0.001000,0.001000,0.001000,0.001000
1018.769231,0.001833,0.001000,0.001000,0.001000,0.001000,0.001000
1018.788462,0.003121,0.001000,0.001000,0.001000,0.001000,0.001000
1018.807692,0.004407,0.001000,0.001000,0.001000,0.001000,0.001000
1018.826923,0.005689,0.001000,0.001000,0.001000,0.001000,0.001000
1018.846154,0.006968,0.001000,0.001000,0.001000,0.001000,0.001000
1018.865385,0.008243,0.001000,0.001000,0.001000,0.001000,0.001000
1018.884615,0.009512,0.001000,0.001000,0.001000,0.001000,0.001000
1018.903846,0.010774,0.001000,0.001000,0.001000,0.001000,0.001000
1018.923077,0.012030,0.001000,0.001000,0.001000,0.001000,0.001000
1018.942308,0.013277,0.001000,0.001000,0.001000,0.001000,0.001000
1018.961538,0.014516,0.001000,0.001000,0.001000,0.001000,0.001000
1018.980769,0.015745,0.001000,0.001000,0.001000,0.001000,0.001000
1019.000000,0.016963,0.001000,0.001000,0.001000,0.001000,0.001000
1019.019231,0.018170,0.001000,0.001000,0.001000,0.001000,0.001000
1019.038462,0.019365,0.001000,0.001000,0.001000,0.001000,0.001000
1019.057692,0.020547,0.001000,0.001000,0.001000,0.001000,0.001000
1019.076923,0.021716,0.001000,0.001000,0.001000,0.001000,0.001000
1019.096154,0.022870,0.001000,0.001000,0.001000,0.001000,0.001000
1019.115385,0.024009,0.001000,0.001000,0.001000,0.001000,0.001000
1019.134615,0.025132,0.001000,0.001000,0.001000,0.001000,0.001000
1019.153846,0.026238,0.001000,0.001000,0.001000,0.001000,0.001000
1019.173077,0.027327,0.001000,0.001000,0.001000,0.001000,0.001000
1019.192308,0.028397,0.001000,0.001000,0.001000,0.001000,0.001000
1019.211538,0.029449,0.001000,0.001000,0.001000,0.001000,0.001000
1019.230769,0.030481,0.001000,0.001000,0.001000,0.001000,0.001000
1019.250000,0.031493,0.001000,0.001000,0.001000,0.001000,0.001000
1019.269231,0.032484,0.001000,0.001000,0.001000,0.001000,0.001000
1019.288462,0.033453,0.001000,0.001000,0.001000,0.001000,0.001000
1019.307692,0.034400,0.001000,0.001000,0.001000,0.001000,0.001000
1019.326923,0.035325,0.001000,0.001000,0.001000,0.001000,0.001000
1019.346154,0.036225,0.001000,0.001000,0.001000,0.001000,0.001000
1019.365385,0.037102,0.001000,0.001000,0.001000,0.001000,0.001000
1019.384615,0.037954,0.001000,0.001000,0.001000,0.001000,0.001000
1019.403846,0.038781,0.001000,0.001000,0.001000,0.001000,0.001000
1019.423077,0.039582,0.001000,0.001000,0.001000,0.001000,0.001000
1019.442308,0.040356,0.001000,0.001000,0.001000,0.001000,0.001000
1019.461538,0.041104,0.001000,0.001000,0.001000,0.001000,0.001000
1019.480769,0.041824,0.001000,0.001000,0.001000,0.001000,0.001000
1019.500000,0.042517,0.001000,0.001000,0.001000,0.001000,0.001000
1019.519231,0.043181,0.001000,0.001000,0.001000,0.001000,0.001000
1019.538462,0.043817,0.001000,0.001000,0.001000,0.001000,0.001000
1019.557692,0.044423,0.001000,0.001000,0.001000,0.001000,0.001000
1019.576923,0.045000,0.001000,0.001000,0.001000,0.001000,0.001000
1019.596154,0.045547,0.001000,0.001000,0.001000,0.001000,0.001000
1019.615385,0.046064,0.001000,0.001000,0.001000,0.001000,0.001000
1019.634615,0.046550,0.001000,0.001000,0.001000,0.001000,0.001000
1019.653846,0.047005,0.001000,0.001000,0.001000,0.001000,0.001000
1019.673077,0.047429,0.001000,0.001000,0.001000,0.001000,0.001000
1019.692308,0.047821,0.001000,0.001000,0.001000,0.001000,0.001000
1019.711538,0.048182,0.001000,0.001000,0.001000,0.001000,0.001000
1019.730769,0.048510,0.001000,0.001000,0.001000,0.001000,0.001000
1019.750000,0.048807,0.001000,0.001000,0.001000,0.001000,0.001000
1019.769231,0.049070,0.001000,0.001000,0.001000,0.001000,0.001000
1019.788462,0.049302,0.001000,0.001000,0.001000,0.001000,0.001000
1019.807692,0.049500,0.001000,0.001000,0.001000,0.001000,0.001000
1019.826923,0.049665,0.001000,0.001000,0.001000,0.001000,0.001000
1019.846154,0.049798,0.001000,0.001000,0.001000,0.001000,0.001000
1019.865385,0.049897,0.001000,0.001000,0.001000,0.001000,0.001000
1019.884615,0.049963,0.001000,0.001000,0.001000,0.001000,0.001000
1019.903846,0.049996,0.001000,0.001000,0.001000,0.001000,0.001000
1019.923077,0.049996,0.001000,0.001000,0.001000,0.001000,0.001000
1019.942308,0.049962,0.001000,0.001000,0.001000,0.001000,0.001000
1019.961538,0.049895,0.001000,0.001000,0.001000,0.001000,0.001000
1019.980769,0.049795,0.001000,0.001000,0.001000,0.001000,0.001000
1020.000000,0.049662,0.001000,0.001000,0.001000,0.001000,0.001000
1020.019231,0.049496,0.001000,0.001000,0.001000,0.001000,0.001000
1020.038462,0.049297,0.001000,0.001000,0.001000,0.001000,0.001000
1020.057692,0.049065,0.001000,0.001000,0.001000,0.001000,0.001000
1020.076923,0.048801,0.001000,0.001000,0.001000,0.001000,0.001000
1020.096154,0.048504,0.001000,0.001000,0.001000,0.001000,0.001000
1020.115385,0.048174,0.001000,0.001000,0.001000,0.001000,0.001000
1020.134615,0.047813,0.001000,0.001000,0.001000,0.001000,0.001000
1020.153846,0.047420,0.001000,0.001000,0.001000,0.001000,0.001000
1020.173077,0.046996,0.001000,0.001000,0.001000,0.001000,0.001000
1020.192308,0.046540,0.001000,0.001000,0.001000,0.001000,0.001000
1020.211538,0.046053,0.001000,0.001000,0.001000,0.001000,0.001000
1020.230769,0.045536,0.001000,0.001000,0.001000,0.001000,0.001000
1020.250000,0.044988,0.001000,0.001000,0.001000,0.001000,0.001000
1020.269231,0.044410,0.001000,0.001000,0.001000,0.001000,0.001000
1020.288462,0.043803,0.001000,0.001000,0.001000,0.001000,0.001000
1020.307692,0.043167,0.001000,0.001000,0.001000,0.001000,0.001000
1020.326923,0.042502,0.001000,0.001000,0.001000,0.001000,0.001000
1020.346154,0.041809,0.001000,0.001000,0.001000,0.001000,0.001000
1020.365385,0.041088,0.001000,0.001000,0.001000,0.001000,0.001000
1020.384615,0.040340,0.001000,0.001000,0.001000,0.001000,0.001000
1020.403846,0.039564,0.001000,0.001000,0.001000,0.001000,0.001000
1020.423077,0.038763,0.001000,0.001000,0.001000,0.001000,0.001000
1020.442308,0.037936,0.001000,0.001000,0.001000,0.001000,0.001000
1020.461538,0.037083,0.001000,0.001000,0.001000,0.001000,0.001000
1020.480769,0.036206,0.001000,0.001000,0.001000,0.001000,0.001000
1020.500000,0.035305,0.001000,0.001000,0.001000,0.001000,0.001000
1020.519231,0.034380,0.001000,0.001000,0.001000,0.001000,0.001000
1020.538462,0.033433,0.001000,0.001000,0.001000,0.001000,0.001000
1020.557692,0.032463,0.001000,0.001000,0.001000,0.001000,0.001000
1020.576923,0.031472,0.001000,0.001000,0.001000,0.001000,0.001000
1020.596154,0.030459,0.001000,0.001000,0.001000,0.001000,0.001000
1020.615385,0.029427,0.001000,0.001000,0.001000,0.001000,0.001000
1020.634615,0.028375,0.001000,0.001000,0.001000,0.001000,0.001000
1020.653846,0.027304,0.001000,0.001000,0.001000,0.001000,0.001000
1020.673077,0.026214,0.001000,0.001000,0.001000,0.001000,0.001000
1020.692308,0.025108,0.001000,0.001000,0.001000,0.001000,0.001000
1020.711538,0.023985,0.001000,0.001000,0.001000,0.001000,0.001000
1020.730769,0.022845,0.001000,0.001000,0.001000,0.001000,0.001000
1020.750000,0.021691,0.001000,0.001000,0.001000,0.001000,0.001000
1020.769231,0.020522,0.001000,0.001000,0.001000,0.001000,0.001000
1020.788462,0.019340,0.001000,0.001000,0.001000,0.001000,0.001000
1020.807692,0.018144,0.001000,0.001000,0.001000,0.001000,0.001000
1020.826923,0.016937,0.001000,0.001000,0.001000,0.001000,0.001000
1020.846154,0.015718,0.001000,0.001000,0.001000,0.001000,0.001000
1020.865385,0.014489,0.001000,0.001000,0.001000,0.001000,0.001000
1020.884615,0.013250,0.001000,0.001000,0.001000,0.001000,0.001000
1020.903846,0.012003,0.001000,0.001000,0.001000,0.001000,0.001000
1020.923077,0.010747,0.001000,0.001000,0.001000,0.001000,0.001000
1020.942308,0.009484,0.001000,0.001000,0.001000,0.001000,0.001000
1020.961538,0.008215,0.001000,0.001000,0.001000,0.001000,0.001000
1020.980769,0.006941,0.001000,0.001000,0.001000,0.001000,0.001000
1021.000000,0.005662,0.001000,0.001000,0.001000,0.001000,0.001000
1021.019231,0.004379,0.001000,0.001000,0.001000,0.001000,0.001000
1021.038462,0.003093,0.001000,0.001000,0.001000,0.001000,0.001000
1021.057692,0.001805,0.001000,0.001000,0.001000,0.001000,0.001000
1021.076923,0.000516,0.001000,0.001000,0.001000,0.001000,0.001000
1021.096154,-0.000773,0.001000,0.001000,0.001000,0.001000,0.001000
1021.115385,-0.002062,0.001000,0.001000,0.001000,0.001000,0.001000
1021.134615,-0.003350,0.001000,0.001000,0.001000,0.001000,0.001000
1021.153846,-0.004635,0.001000,0.001000,0.001000,0.001000,0.001000
1021.173077,-0.005917,0.001000,0.001000,0.001000,0.001000,0.001000
1021.192308,-0.007195,0.001000,0.001000,0.001000,0.001000,0.001000
1021.211538,-0.008469,0.001000,0.001000,0.001000,0.001000,0.001000
1021.230769,-0.009737,0.001000,0.001000,0.001000,0.001000,0.001000
1021.250000,-0.010998,0.001000,0.001000,0.001000,0.001000,0.001000
1021.269231,-0.012252,0.001000,0.001000,0.001000,0.001000,0.001000
1021.288462,-0.013498,0.001000,0.001000,0.001000,0.001000,0.001000
1021.307692,-0.014735,0.001000,0.001000,0.001000,0.001000,0.001000
1021.326923,-0.015962,0.001000,0.001000,0.001000,0.001000,0.001000
1021.346154,-0.017178,0.001000,0.001000,0.001000,0.001000,0.001000
1021.365385,-0.018383,0.001000,0.001000,0.001000,0.001000,0.001000
1021.384615,-0.019576,0.001000,0.001000,0.001000,0.001000,0.001000
1021.403846,-0.020756,0.001000,0.001000,0.001000,0.001000,0.001000
1021.423077,-0.021922,0.001000,0.001000,0.001000,0.001000,0.001000
1021.442308,-0.023074,0.001000,0.001000,0.001000,0.001000,0.001000
1021.461538,-0.024210,0.001000,0.001000,0.001000,0.001000,0.001000
1021.480769,-0.025330,0.001000,0.001000,0.001000,0.001000,0.001000
1021.500000,-0.026433,0.001000,0.001000,0.001000,0.001000,0.001000
1021.519231,-0.027519,0.001000,0.001000,0.001000,0.001000,0.001000
1021.538462,-0.028586,0.001000,0.001000,0.001000,0.001000,0.001000
1021.557692,-0.029634,0.001000,0.001000,0.001000,0.001000,0.001000
1021.576923,-0.030663,0.001000,0.001000,0.001000,0.001000,0.001000
1021.596154,-0.031671,0.001000,0.001000,0.001000,0.001000,0.001000
1021.615385,-0.032658,0.001000,0.001000,0.001000,0.001000,0.001000
1021.634615,-0.033623,0.001000,0.001000,0.001000,0.001000,0.001000
1021.653846,-0.034566,0.001000,0.001000,0.001000,0.001000,0.001000
1021.673077,-0.035487,0.001000,0.001000,0.001000,0.001000,0.001000
1021.692308,-0.036383,0.001000,0.001000,0.001000,0.001000,0.001000
1021.711538,-0.037255,0.001000,0.001000,0.001000,0.001000,0.001000
1021.730769,-0.038103,0.001000,0.001000,0.001000,0.001000,0.001000
1021.750000,-0.038925,0.001000,0.001000,0.001000,0.001000,0.001000
1021.769231,-0.039721,0.001000,0.001000,0.001000,0.001000,0.001000
1021.788462,-0.040491,0.001000,0.001000,0.001000,0.001000,0.001000
1021.807692,-0.041234,0.001000,0.001000,0.001000,0.001000,0.001000
1021.826923,-0.041949,0.001000,0.001000,0.001000,0.001000,0.001000
1021.846154,-0.042637,0.001000,0.001000,0.001000,0.001000,0.001000
1021.865385,-0.043296,0.001000,0.001000,0.001000,0.001000,0.001000
1021.884615,-0.043927,0.001000,0.001000,0.001000,0.001000,0.001000
1021.903846,-0.044528,0.001000,0.001000,0.001000,0.001000,0.001000
1021.923077,-0.045100,0.001000,0.001000,0.001000,0.001000,0.001000
1021.942308,-0.045641,0.001000,0.001000,0.001000,0.001000,0.001000
1021.961538,-0.046153,0.001000,0.001000,0.001000,0.001000,0.001000
1021.980769,-0.046633,0.001000,0.001000,0.001000,0.001000,0.001000
1022.000000,-0.047083,0.001000,0.001000,0.001000,0.001000,0.001000
1022.019231,-0.047501,0.001000,0.001000,0.001000,0.001000,0.001000
1022.038462,-0.047888,0.001000,0.001000,0.001000,0.001000,0.001000
1022.057692,-0.048243,0.001000,0.001000,0.001000,0.001000,0.001000
1022.076923,-0.048565,0.001000,0.001000,0.001000,0.001000,0.001000
1022.096154,-0.048856,0.001000,0.001000,0.001000,0.001000,0.001000
1022.115385,-0.049114,0.001000,0.001000,0.001000,0.001000,0.001000
1022.134615,-0.049339,0.001000,0.001000,0.001000,0.001000,0.001000
1022.153846,-0.049532,0.001000,0.001000,0.001000,0.001000,0.001000
1022.173077,-0.049691,0.001000,0.001000,0.001000,0.001000,0.001000
1022.192308,-0.049818,0.001000,0.001000,0.001000,0.001000,0.001000
1022.211538,-0.049911,0.001000,0.001000,0.001000,0.001000,0.001000
1022.230769,-0.049971,0.001000,0.001000,0.001000,0.001000,0.001000
1022.250000,-0.049998,0.001000,0.001000,0.001000,0.001000,0.001000
1022.269231,-0.049992,0.001000,0.001000,0.001000,0.001000,0.001000
1022.288462,-0.049953,0.001000,0.001000,0.001000,0.001000,0.001000
1022.307692,-0.049880,0.001000,0.001000,0.001000,0.001000,0.001000
1022.326923,-0.049774,0.001000,0.001000,0.001000,0.001000,0.001000
1022.346154,-0.049635,0.001000,0.001000,0.001000,0.001000,0.001000
1022.365385,-0.049463,0.001000,0.001000,0.001000,0.001000,0.001000
1022.384615,-0.049258,0.001000,0.001000,0.001000,0.001000,0.001000
1022.403846,-0.049020,0.001000,0.001000,0.001000,0.001000,0.001000
1022.423077,-0.048750,0.001000,0.001000,0.001000,0.001000,0.001000
1022.442308,-0.048447,0.001000,0.001000,0.001000,0.001000,0.001000
1022.461538,-0.048113,0.001000,0.001000,0.001000,0.001000,0.001000
1022.480769,-0.047746,0.001000,0.001000,0.001000,0.001000,0.001000
1022.500000,-0.047347,0.001000,0.001000,0.001000,0.001000,0.001000
1022.519231,-0.046917,0.001000,0.001000,0.001000,0.001000,0.001000
1022.538462,-0.046456,0.001000,0.001000,0.001000,0.001000,0.001000
1022.557692,-0.045963,0.001000,0.001000,0.001000,0.001000,0.001000
1022.576923,-0.045441,0.001000,0.001000,0.001000,0.001000,0.001000
1022.596154,-0.044888,0.001000,0.001000,0.001000,0.001000,0.001000
1022.615385,-0.044305,0.001000,0.001000,0.001000,0.001000,0.001000
1022.634615,-0.043692,0.001000,0.001000,0.001000,0.001000,0.001000
1022.653846,-0.043051,0.001000,0.001000,0.001000,0.001000,0.001000
1022.673077,-0.042381,0.001000,0.001000,0.001000,0.001000,0.001000
1022.692308,-0.041683,0.001000,0.001000,0.001000,0.001000,0.001000
1022.711538,-0.040957,0.001000,0.001000,0.001000,0.001000,0.001000
1022.730769,-0.040204,0.001000,0.001000,0.001000,0.001000,0.001000
1022.750000,-0.039424,0.001000,0.001000,0.001000,0.001000,0.001000
1022.769231,-0.038618,0.001000,0.001000,0.001000,0.001000,0.001000
1022.788462,-0.037786,0.001000,0.001000,0.001000,0.001000,0.001000
1022.807692,-0.036929,0.001000,0.001000,0.001000,0.001000,0.001000
1022.826923,-0.036048,0.001000,0.001000,0.001000,0.001000,0.001000
1022.846154,-0.035142,0.001000,0.001000,0.001000,0.001000,0.001000
1022.865385,-0.034213,0.001000,0.001000,0.001000,0.001000,0.001000
1022.884615,-0.033262,0.001000,0.001000,0.001000,0.001000,0.001000
1022.903846,-0.032288,0.001000,0.001000,0.001000,0.001000,0.001000
1022.923077,-0.031293,0.001000,0.001000,0.001000,0.001000,0.001000
1022.942308,-0.030277,0.001000,0.001000,0.001000,0.001000,0.001000
1022.961538,-0.029241,0.001000,0.001000,0.001000,0.001000,0.001000
1022.980769,-0.028186,0.001000,0.001000,0.001000,0.001000,0.001000
1023.000000,-0.027111,0.001000,0.001000,0.001000,0.001000,0.001000
1023.019231,-0.026019,0.001000,0.001000,0.001000,0.001000,0.001000
1023.038462,-0.024909,0.001000,0.001000,0.001000,0.001000,0.001000
1023.057692,-0.023783,0.001000,0.001000,0.001000,0.001000,0.001000
1023.076923,-0.022641,0.001000,0.001000,0.001000,0.001000,0.001000
1023.096154,-0.021484,0.001000,0.001000,0.001000,0.001000,0.001000
1023.115385,-0.020313,0.001000,0.001000,0.001000,0.001000,0.001000
1023.134615,-0.019128,0.001000,0.001000,0.001000,0.001000,0.001000
1023.153846,-0.017930,0.001000,0.001000,0.001000,0.001000,0.001000
1023.173077,-0.016721,0.001000,0.001000,0.001000,0.001000,0.001000
1023.192308,-0.015500,0.001000,0.001000,0.001000,0.001000,0.001000
1023.211538,-0.014269,0.001000,0.001000,0.001000,0.001000,0.001000
1023.230769,-0.013029,0.001000,0.001000,0.001000,0.001000,0.001000
1023.250000,-0.011780,0.001000,0.001000,0.001000,0.001000,0.001000
1023.269231,-0.010523,0.001000,0.001000,0.001000,0.001000,0.001000
1023.288462,-0.009259,0.001000,0.001000,0.001000,0.001000,0.001000
1023.307692,-0.007989,0.001000,0.001000,0.001000,0.001000,0.001000
1023.326923,-0.006714,0.001000,0.001000,0.001000,0.001000,0.001000
1023.346154,-0.005434,0.001000,0.001000,0.001000,0.001000,0.001000
1023.365385,-0.004150,0.001000,0.001000,0.001000,0.001000,0.001000
1023.384615,-0.002864,0.001000,0.001000,0.001000,0.001000,0.001000
1023.403846,-0.001576,0.001000,0.001000,0.001000,0.001000,0.001000
1023.423077,-0.000287,0.001000,0.001000,0.001000,0.001000,0.001000
1023.442308,0.001002,0.001000,0.001000,0.001000,0.001000,0.001000
1023.461538,0.002291,0.001000,0.001000,0.001000,0.001000,0.001000
1023.480769,0.003578,0.001000,0.001000,0.001000,0.001000,0.001000
1023.500000,0.004863,0.001000,0.001000,0.001000,0.001000,0.001000
1023.519231,0.006145,0.001000,0.001000,0.001000,0.001000,0.001000
1023.538462,0.007422,0.001000,0.001000,0.001000,0.001000,0.001000
1023.557692,0.008695,0.001000,0.001000,0.001000,0.001000,0.001000
1023.576923,0.009961,0.001000,0.001000,0.001000,0.001000,0.001000
1023.596154,0.011221,0.001000,0.001000,0.001000,0.001000,0.001000
1023.615385,0.012474,0.001000,0.001000,0.001000,0.001000,0.001000
1023.634615,0.013718,0.001000,0.001000,0.001000,0.001000,0.001000
1023.653846,0.014954,0.001000,0.001000,0.001000,0.001000,0.001000
1023.673077,0.016179,0.001000,0.001000,0.001000,0.001000,0.001000
1023.692308,0.017393,0.001000,0.001000,0.001000,0.001000,0.001000
1023.711538,0.018596,0.001000,0.001000,0.001000,0.001000,0.001000
1023.730769,0.019787,0.001000,0.001000,0.001000,0.001000,0.001000
1023.750000,0.020964,0.001000,0.001000,0.001000,0.001000,0.001000
1023.769231,0.022128,0.001000,0.001000,0.001000,0.001000,0.001000
1023.788462,0.023277,0.001000,0.001000,0.001000,0.001000,0.001000
1023.807692,0.024410,0.001000,0.001000,0.001000,0.001000,0.001000
1023.826923,0.025527,0.001000,0.001000,0.001000,0.001000,0.001000
1023.846154,0.026627,0.001000,0.001000,0.001000,0.001000,0.001000
1023.865385,0.027710,0.001000,0.001000,0.001000,0.001000,0.001000
1023.884615,0.028774,0.001000,0.001000,0.001000,0.001000,0.001000
1023.903846,0.029818,0.001000,0.001000,0.001000,0.001000,0.001000
1023.923077,0.030843,0.001000,0.001000,0.001000,0.001000,0.001000
1023.942308,0.031848,0.001000,0.001000,0.001000,0.001000,0.001000
1023.961538,0.032831,0.001000,0.001000,0.001000,0.001000,0.001000
1023.980769,0.033793,0.001000,0.001000,0.001000,0.001000,0.001000
1024.000000,0.034732,0.001000,0.001000,0.001000,0.001000,0.001000
1024.019231,0.035648,0.001000,0.001000,0.001000,0.001000,0.001000
1024.038462,0.036540,0.001000,0.001000,0.001000,0.001000,0.001000
1024.057692,0.037408,0.001000,0.001000,0.001000,0.001000,0.001000
1024.076923,0.038251,0.001000,0.001000,0.001000,0.001000,0.001000
1024.096154,0.039068,0.001000,0.001000,0.001000,0.001000,0.001000
1024.115385,0.039860,0.001000,0.001000,0.001000,0.001000,0.001000
1024.134615,0.040625,0.001000,0.001000,0.001000,0.001000,0.001000
1024.153846,0.041363,0.001000,0.001000,0.001000,0.001000,0.001000
1024.173077,0.042074,0.001000,0.001000,0.001000,0.001000,0.001000
1024.192308,0.042756,0.001000,0.001000,0.001000,0.001000,0.001000
1024.211538,0.043410,0.001000,0.001000,0.001000,0.001000,0.001000
1024.230769,0.044036,0.001000,0.001000,0.001000,0.001000,0.001000
1024.250000,0.044632,0.001000,0.001000,0.001000,0.001000,0.001000
1024.269231,0.045198,0.001000,0.001000,0.001000,0.001000,0.001000
1024.288462,0.045734,0.001000,0.001000,0.001000,0.001000,0.001000
1024.307692,0.046240,0.001000,0.001000,0.001000,0.001000,0.001000
1024.326923,0.046715,0.001000,0.001000,0.001000,0.001000,0.001000
1024.346154,0.047159,0.001000,0.001000,0.001000,0.001000,0.001000
1024.365385,0.047572,0.001000,0.001000,0.001000,0.001000,0.001000
1024.384615,0.047953,0.001000,0.001000,0.001000,0.001000,0.001000
1024.403846,0.048302,0.001000,0.001000,0.001000,0.001000,0.001000
1024.423077,0.048619,0.001000,0.001000,0.001000,0.001000,0.001000
1024.442308,0.048904,0.001000,0.001000,0.001000,0.001000,0.001000
1024.461538,0.049156,0.001000,0.001000,0.001000,0.001000,0.001000
1024.480769,0.049376,0.001000,0.001000,0.001000,0.001000,0.001000
1024.500000,0.049562,0.001000,0.001000,0.001000,0.001000,0.001000
1024.519231,0.049716,0.001000,0.001000,0.001000,0.001000,0.001000
1024.538462,0.049837,0.001000,0.001000,0.001000,0.001000,0.001000
1024.557692,0.049924,0.001000,0.001000,0.001000,0.001000,0.001000
1024.576923,0.049979,0.001000,0.001000,0.001000,0.001000,0.001000
1024.596154,0.050000,0.001000,0.001000,0.001000,0.001000,0.001000
1024.615385,0.049988,0.001000,0.001000,0.001000,0.001000,0.001000
1024.634615,0.049942,0.001000,0.001000,0.001000,0.001000,0.001000
1024.653846,0.049863,0.001000,0.001000,0.001000,0.001000,0.001000
1024.673077,0.049752,0.001000,0.001000,0.001000,0.001000,0.001000
1024.692308,0.049607,0.001000,0.001000,0.001000,0.001000,0.001000
1024.711538,0.049429,0.001000,0.001000,0.001000,0.001000,0.001000
1024.730769,0.049218,0.001000,0.001000,0.001000,0.001000,0.001000
1024.750000,0.048975,0.001000,0.001000,0.001000,0.001000,0.001000
1024.769231,0.048699,0.001000,0.001000,0.001000,0.001000,0.001000
1024.788462,0.048390,0.001000,0.001000,0.001000,0.001000,0.001000
1024.807692,0.048050,0.001000,0.001000,0.001000,0.001000,0.001000
1024.826923,0.047677,0.001000,0.001000,0.001000,0.001000,0.001000
1024.846154,0.047273,0.001000,0.001000,0.001000,0.001000,0.001000
1024.865385,0.046837,0.001000,0.001000,0.001000,0.001000,0.001000
1024.884615,0.046370,0.001000,0.001000,0.001000,0.001000,0.001000
1024.903846,0.045873,0.001000,0.001000,0.001000,0.001000,0.001000
1024.923077,0.045344,0.001000,0.001000,0.001000,0.001000,0.001000
1024.942308,0.044786,0.001000,0.001000,0.001000,0.001000,0.001000
1024.961538,0.044198,0.001000,0.001000,0.001000,0.001000,0.001000
1024.980769,0.043581,0.001000,0.001000,0.001000,0.001000,0.001000
1025.000000,0.042934,0.001000,0.001000,0.001000,0.001000,0.001000
1025.019231,0.042259,0.001000,0.001000,0.001000,0.001000,0.001000
1025.038462,0.041556,0.001000,0.001000,0.001000,0.001000,0.001000
1025.057692,0.040825,0.001000,0.001000,0.001000,0.001000,0.001000
1025.076923,0.040067,0.001000,0.001000,0.001000,0.001000,0.001000
1025.096154,0.039283,0.001000,0.001000,0.001000,0.001000,0.001000
1025.115385,0.038472,0.001000,0.001000,0.001000,0.001000,0.001000
1025.134615,0.037636,0.001000,0.001000,0.001000,0.001000,0.001000
1025.153846,0.036774,0.001000,0.001000,0.001000,0.001000,0.001000
1025.173077,0.035888,0.001000,0.001000,0.001000,0.001000,0.001000
1025.192308,0.034979,0.001000,0.001000,0.001000,0.001000,0.001000
1025.211538,0.034046,0.001000,0.001000,0.001000,0.001000,0.001000
1025.230769,0.033090,0.001000,0.001000,0.001000,0.001000,0.001000
1025.250000,0.032113,0.001000,0.001000,0.001000,0.001000,0.001000
1025.269231,0.031114,0.001000,0.001000,0.001000,0.001000,0.001000
1025.288462,0.030094,0.001000,0.001000,0.001000,0.001000,0.001000
1025.307692,0.029055,0.001000,0.001000,0.001000,0.001000,0.001000
1025.326923,0.027996,0.001000,0.001000,0.001000,0.001000,0.001000
1025.346154,0.026918,0.001000,0.001000,0.001000,0.001000,0.001000
1025.365385,0.025823,0.001000,0.001000,0.001000,0.001000,0.001000
1025.384615,0.024710,0.001000,0.001000,0.001000,0.001000,0.001000
1025.403846,0.023581,0.001000,0.001000,0.001000,0.001000,0.001000
1025.423077,0.022437,0.001000,0.001000,0.001000,0.001000,0.001000
1025.442308,0.021277,0.001000,0.001000,0.001000,0.001000,0.001000
1025.461538,0.020103,0.001000,0.001000,0.001000,0.001000,0.001000
1025.480769,0.018916,0.001000,0.001000,0.001000,0.001000,0.001000
1025.500000,0.017716,0.001000,0.001000,0.001000,0.001000,0.001000
1025.519231,0.016505,0.001000,0.001000,0.001000,0.001000,0.001000
1025.538462,0.015282,0.001000,0.001000,0.001000,0.001000,0.001000
1025.557692,0.014050,0.001000,0.001000,0.001000,0.001000,0.001000
1025.576923,0.012808,0.001000,0.001000,0.001000,0.001000,0.001000
1025.596154,0.011557,0.001000,0.001000,0.001000,0.001000,0.001000
1025.615385,0.010299,0.001000,0.001000,0.001000,0.001000,0.001000
1025.634615,0.009034,0.001000,0.001000,0.001000,0.001000,0.001000
1025.653846,0.007763,0.001000,0.001000,0.001000,0.001000,0.001000
1025.673077,0.006487,0.001000,0.001000,0.001000,0.001000,0.001000
1025.692308,0.005206,0.001000,0.001000,0.001000,0.001000,0.001000
1025.711538,0.003922,0.001000,0.001000,0.001000,0.001000,0.001000
1025.730769,0.002635,0.001000,0.001000,0.001000,0.001000,0.001000
1025.750000,0.001347,0.001000,0.001000,0.001000,0.001000,0.001000
1025.769231,0.000058,0.001000,0.001000,0.001000,0.001000,0.001000
1025.788462,-0.001231,0.001000,0.001000,0.001000,0.001000,0.001000
1025.807692,-0.002520,0.001000,0.001000,0.001000,0.001000,0.001000
1025.826923,-0.003807,0.001000,0.001000,0.001000,0.001000,0.001000
1025.846154,-0.005091,0.001000,0.001000,0.001000,0.001000,0.001000
1025.865385,-0.006372,0.001000,0.001000,0.001000,0.001000,0.001000
1025.884615,-0.007649,0.001000,0.001000,0.001000,0.001000,0.001000
1025.903846,-0.008920,0.001000,0.001000,0.001000,0.001000,0.001000
1025.923077,-0.010186,0.001000,0.001000,0.001000,0.001000,0.001000
1025.942308,-0.011445,0.001000,0.001000,0.001000,0.001000,0.001000
1025.961538,-0.012696,0.001000,0.001000,0.001000,0.001000,0.001000
1025.980769,-0.013939,0.001000,0.001000,0.001000,0.001000,0.001000
1026.000000,-0.015172,0.001000,0.001000,0.001000,0.001000,0.001000
1026.019231,-0.016396,0.001000,0.001000,0.001000,0.001000,0.001000
1026.038462,-0.017608,0.001000,0.001000,0.001000,0.001000,0.001000
1026.057692,-0.018809,0.001000,0.001000,0.001000,0.001000,0.001000
1026.076923,-0.019997,0.001000,0.001000,0.001000,0.001000,0.001000
1026.096154,-0.021172,0.001000,0.001000,0.001000,0.001000,0.001000
1026.115385,-0.022333,0.001000,0.001000,0.001000,0.001000,0.001000
1026.134615,-0.023479,0.001000,0.001000,0.001000,0.001000,0.001000
1026.153846,-0.024610,0.001000,0.001000,0.001000,0.001000,0.001000
1026.173077,-0.025724,0.001000,0.001000,0.001000,0.001000,0.001000
1026.192308,-0.026821,0.001000,0.001000,0.001000,0.001000,0.001000
1026.211538,-0.027900,0.001000,0.001000,0.001000,0.001000,0.001000
1026.230769,-0.028961,0.001000,0.001000,0.001000,0.001000,0.001000
1026.250000,-0.030002,0.001000,0.001000,0.001000,0.001000,0.001000
1026.269231,-0.031023,0.001000,0.001000,0.001000,0.001000,0.001000
1026.288462,-0.032024,0.001000,0.001000,0.001000,0.001000,0.001000
1026.307692,-0.033004,0.001000,0.001000,0.001000,0.001000,0.001000
1026.326923,-0.033961,0.001000,0.001000,0.001000,0.001000,0.001000
1026.346154,-0.034896,0.001000,0.001000,0.001000,0.001000,0.001000
1026.365385,-0.035808,0.001000,0.001000,0.001000,0.001000,0.001000
1026.384615,-0.036696,0.001000,0.001000,0.001000,0.001000,0.001000
1026.403846,-0.037559,0.001000,0.001000,0.001000,0.001000,0.001000
1026.423077,-0.038398,0.001000,0.001000,0.001000,0.001000,0.001000
1026.442308,-0.039211,0.001000,0.001000,0.001000,0.001000,0.001000
1026.461538,-0.039998,0.001000,0.001000,0.001000,0.001000,0.001000
1026.480769,-0.040758,0.001000,0.001000,0.001000,0.001000,0.001000
1026.500000,-0.041491,0.001000,0.001000,0.001000,0.001000,0.001000
1026.519231,-0.042197,0.001000,0.001000,0.001000,0.001000,0.001000
1026.538462,-0.042875,0.001000,0.001000,0.001000,0.001000,0.001000
1026.557692,-0.043524,0.001000,0.001000,0.001000,0.001000,0.001000
1026.576923,-0.044144,0.001000,0.001000,0.001000,0.001000,0.001000
1026.596154,-0.044735,0.001000,0.001000,0.001000,0.001000,0.001000
1026.615385,-0.045296,0.001000,0.001000,0.001000,0.001000,0.001000
1026.634615,-0.045827,0.001000,0.001000,0.001000,0.001000,0.001000
1026.653846,-0.046327,0.001000,0.001000,0.001000,0.001000,0.001000
1026.673077,-0.046797,0.001000,0.001000,0.001000,0.001000,0.001000
1026.692308,-0.047235,0.001000,0.001000,0.001000,0.001000,0.001000
1026.711538,-0.047642,0.001000,0.001000,0.001000,0.001000,0.001000
1026.730769,-0.048018,0.001000,0.001000,0.001000,0.001000,0.001000
1026.750000,-0.048361,0.001000,0.001000,0.001000,0.001000,0.001000
1026.769231,-0.048672,0.001000,0.001000,0.001000,0.001000,0.001000
1026.788462,-0.048951,0.001000,0.001000,0.001000,0.001000,0.001000
1026.807692,-0.049198,0.001000,0.001000,0.001000,0.001000,0.001000
1026.826923,-0.049411,0.001000,0.001000,0.001000,0.001000,0.001000
1026.846154,-0.049592,0.001000,0.001000,0.001000,0.001000,0.001000
1026.865385,-0.049740,0.001000,0.001000,0.001000,0.001000,0.001000
1026.884615,-0.049855,0.001000,0.001000,0.001000,0.001000,0.001000
1026.903846,-0.049936,0.001000,0.001000,0.001000,0.001000,0.001000
1026.923077,-0.049985,0.001000,0.001000,0.001000,0.001000,0.001000
1026.942308,-0.050000,0.001000,0.001000,0.001000,0.001000,0.001000
1026.961538,-0.049982,0.001000,0.001000,0.001000,0.001000,0.001000
1026.980769,-0.049931,0.001000,0.001000,0.001000,0.001000,0.001000
1027.000000,-0.049846,0.001000,0.001000,0.001000,0.001000,0.001000
1027.019231,-0.049728,0.001000,0.001000,0.001000,0.001000,0.001000
1027.038462,-0.049578,0.001000,0.001000,0.001000,0.001000,0.001000
1027.057692,-0.049394,0.001000,0.001000,0.001000,0.001000,0.001000
1027.076923,-0.049177,0.001000,0.001000,0.001000,0.001000,0.001000
1027.096154,-0.048928,0.001000,0.001000,0.001000,0.001000,0.001000
1027.115385,-0.048646,0.001000,0.001000,0.001000,0.001000,0.001000
1027.134615,-0.048332,0.001000,0.001000,0.001000,0.001000,0.001000
1027.153846,-0.047986,0.001000,0.001000,0.001000,0.001000,0.001000
1027.173077,-0.047608,0.001000,0.001000,0.001000,0.001000,0.001000
1027.192308,-0.047198,0.001000,0.001000,0.001000,0.001000,0.001000
1027.211538,-0.046756,0.001000,0.001000,0.001000,0.001000,0.001000
1027.230769,-0.046284,0.001000,0.001000,0.001000,0.001000,0.001000
1027.250000,-0.045781,0.001000,0.001000,0.001000,0.001000,0.001000
1027.269231,-0.045247,0.001000,0.001000,0.001000,0.001000,0.001000
1027.288462,-0.044684,0.001000,0.001000,0.001000,0.001000,0.001000
1027.307692,-0.044090,0.001000,0.001000,0.001000,0.001000,0.001000
1027.326923,-0.043468,0.001000,0.001000,0.001000,0.001000,0.001000
1027.346154,-0.042816,0.001000,0.001000,0.001000,0.001000,0.001000
1027.365385,-0.042136,0.001000,0.001000,0.001000,0.001000,0.001000
1027.384615,-0.041428,0.001000,0.001000,0.001000,0.001000,0.001000
1027.403846,-0.040692,0.001000,0.001000,0.001000,0.001000,0.001000
1027.423077,-0.039930,0.001000,0.001000,0.001000,0.001000,0.001000
1027.442308,-0.039140,0.001000,0.001000,0.001000,0.001000,0.001000
1027.461538,-0.038325,0.001000,0.001000,0.001000,0.001000,0.001000
1027.480769,-0.037484,0.001000,0.001000,0.001000,0.001000,0.001000
1027.500000,-0.036619,0.001000,0.001000,0.001000,0.001000,0.001000
1027.519231,-0.035729,0.001000,0.001000,0.001000,0.001000,0.001000
1027.538462,-0.034815,0.001000,0.001000,0.001000,0.001000,0.001000
1027.557692,-0.033878,0.001000,0.001000,0.001000,0.001000,0.001000
1027.576923,-0.032918,0.001000,0.001000,0.001000,0.001000,0.001000
1027.596154,-0.031937,0.001000,0.001000,0.001000,0.001000,0.001000
1027.615385,-0.030934,0.001000,0.001000,0.001000,0.001000,0.001000
1027.634615,-0.029911,0.001000,0.001000,0.001000,0.001000,0.001000
1027.653846,-0.028868,0.001000,0.001000,0.001000,0.001000,0.001000
1027.673077,-0.027806,0.001000,0.001000,0.001000,0.001000,0.001000
1027.692308,-0.026725,0.001000,0.001000,0.001000,0.001000,0.001000
1027.711538,-0.025626,0.001000,0.001000,0.001000,0.001000,0.001000
1027.730769,-0.024511,0.001000,0.001000,0.001000,0.001000,0.001000
1027.750000,-0.023379,0.001000,0.001000,0.001000,0.001000,0.001000
1027.769231,-0.022232,0.001000,0.001000,0.001000,0.001000,0.001000
1027.788462,-0.021069,0.001000,0.001000,0.001000,0.001000,0.001000
1027.807692,-0.019893,0.001000,0.001000,0.001000,0.001000,0.001000
1027.826923,-0.018704,0.001000,0.001000,0.001000,0.001000,0.001000
1027.846154,-0.017502,0.001000,0.001000,0.001000,0.001000,0.001000
1027.865385,-0.016288,0.001000,0.001000,0.001000,0.001000,0.001000
1027.884615,-0.015064,0.001000,0.001000,0.001000,0.001000,0.001000
1027.903846,-0.013830,0.001000,0.001000,0.001000,0.001000,0.001000
1027.923077,-0.012586,0.001000,0.001000,0.001000,0.001000,0.001000
1027.942308,-0.011334,0.001000,0.001000,0.001000,0.001000,0.001000
1027.961538,-0.010075,0.001000,0.001000,0.001000,0.001000,0.001000
1027.980769,-0.008808,0.001000,0.001000,0.001000,0.001000,0.001000
1028.000000,-0.007536,0.001000,0.001000,0.001000,0.001000,0.001000
1028.019231,-0.006259,0.001000,0.001000,0.001000,0.001000,0.001000
1028.038462,-0.004978,0.001000,0.001000,0.001000,0.001000,0.001000
1028.057692,-0.003693,0.001000,0.001000,0.001000,0.001000,0.001000
1028.076923,-0.002407,0.001000,0.001000,0.001000,0.001000,0.001000
1028.096154,-0.001118,0.001000,0.001000,0.001000,0.001000,0.001000
1028.115385,0.000171,0.001000,0.001000,0.001000,0.001000,0.001000
1028.134615,0.001461,0.001000,0.001000,0.001000,0.001000,0.001000
1028.153846,0.002749,0.001000,0.001000,0.001000,0.001000,0.001000
1028.173077,0.004035,0.001000,0.001000,0.001000,0.001000,0.001000
1028.192308,0.005319,0.001000,0.001000,0.001000,0.001000,0.001000
1028.211538,0.006599,0.001000,0.001000,0.001000,0.001000,0.001000
1028.230769,0.007875,0.001000,0.001000,0.001000,0.001000,0.001000
1028.250000,0.009146,0.001000,0.001000,0.001000,0.001000,0.001000
1028.269231,0.010410,0.001000,0.001000,0.001000,0.001000,0.001000
1028.288462,0.011668,0.001000,0.001000,0.001000,0.001000,0.001000
1028.307692,0.012917,0.001000,0.001000,0.001000,0.001000,0.001000
1028.326923,0.014159,0.001000,0.001000,0.001000,0.001000,0.001000
1028.346154,0.015390,0.001000,0.001000,0.001000,0.001000,0.001000
1028.365385,0.016612,0.001000,0.001000,0.001000,0.001000,0.001000
1028.384615,0.017822,0.001000,0.001000,0.001000,0.001000,0.001000
1028.403846,0.019021,0.001000,0.001000,0.001000,0.001000,0.001000
1028.423077,0.020207,0.001000,0.001000,0.001000,0.001000,0.001000
1028.442308,0.021380,0.001000,0.001000,0.001000,0.001000,0.001000
1028.461538,0.022538,0.001000,0.001000,0.001000,0.001000,0.001000
1028.480769,0.023681,0.001000,0.001000,0.001000,0.001000,0.001000
1028.500000,0.024809,0.001000,0.001000,0.001000,0.001000,0.001000
1028.519231,0.025920,0.001000,0.001000,0.001000,0.001000,0.001000
1028.538462,0.027014,0.001000,0.001000,0.001000,0.001000,0.001000
1028.557692,0.028090,0.001000,0.001000,0.001000,0.001000,0.001000
1028.576923,0.029147,0.001000,0.001000,0.001000,0.001000,0.001000
1028.596154,0.030185,0.001000,0.001000,0.001000,0.001000,0.001000
1028.615385,0.031203,0.001000,0.001000,0.001000,0.001000,0.001000
1028.634615,0.032200,0.001000,0.001000,0.001000,0.001000,0.001000
1028.653846,0.033176,0.001000,0.001000,0.001000,0.001000,0.001000
1028.673077,0.034129,0.001000,0.001000,0.001000,0.001000,0.001000
1028.692308,0.035060,0.001000,0.001000,0.001000,0.001000,0.001000
1028.711538,0.035967,0.001000,0.001000,0.001000,0.001000,0.001000
1028.730769,0.036851,0.001000,0.001000,0.001000,0.001000,0.001000
1028.750000,0.037710,0.001000,0.001000,0.001000,0.001000,0.001000
1028.769231,0.038544,0.001000,0.001000,0.001000,0.001000,0.001000
1028.788462,0.039353,0.001000,0.001000,0.001000,0.001000,0.001000
1028.807692,0.040135,0.001000,0.001000,0.001000,0.001000,0.001000
1028.826923,0.040891,0.001000,0.001000,0.001000,0.001000,0.001000
1028.846154,0.041619,0.001000,0.001000,0.001000,0.001000,0.001000
1028.865385,0.042320,0.001000,0.001000,0.001000,0.001000,0.001000
1028.884615,0.042992,0.001000,0.001000,0.001000,0.001000,0.001000
1028.903846,0.043636,0.001000,0.001000,0.001000,0.001000,0.001000
1028.923077,0.044251,0.001000,0.001000,0.001000,0.001000,0.001000
1028.942308,0.044837,0.001000,0.001000,0.001000,0.001000,0.001000
1028.961538,0.045392,0.001000,0.001000,0.001000,0.001000,0.001000
1028.980769,0.045918,0.001000,0.001000,0.001000,0.001000,0.001000
1029.000000,0.046413,0.001000,0.001000,0.001000,0.001000,0.001000
1029.019231,0.046877,0.001000,0.001000,0.001000,0.001000,0.001000
1029.038462,0.047310,0.001000,0.001000,0.001000,0.001000,0.001000
1029.057692,0.047711,0.001000,0.001000,0.001000,0.001000,0.001000
1029.076923,0.048081,0.001000,0.001000,0.001000,0.001000,0.001000
1029.096154,0.048419,0.001000,0.001000,0.001000,0.001000,0.001000
1029.115385,0.048724,0.001000,0.001000,0.001000,0.001000,0.001000
1029.134615,0.048997,0.001000,0.001000,0.001000,0.001000,0.001000
1029.153846,0.049238,0.001000,0.001000,0.001000,0.001000,0.001000
1029.173077,0.049446,0.001000,0.001000,0.001000,0.001000,0.001000
1029.192308,0.049621,0.001000,0.001000,0.001000,0.001000,0.001000
1029.211538,0.049763,0.001000,0.001000,0.001000,0.001000,0.001000
1029.230769,0.049872,0.001000,0.001000,0.001000,0.001000,0.001000
1029.250000,0.049947,0.001000,0.001000,0.001000,0.001000,0.001000
1029.269231,0.049990,0.001000,0.001000,0.001000,0.001000,0.001000
1029.288462,0.049999,0.001000,0.001000,0.001000,0.001000,0.001000
1029.307692,0.049975,0.001000,0.001000,0.001000,0.001000,0.001000
1029.326923,0.049918,0.001000,0.001000,0.001000,0.001000,0.001000
1029.346154,0.049828,0.001000,0.001000,0.001000,0.001000,0.001000
1029.365385,0.049704,0.001000,0.001000,0.001000,0.001000,0.001000
1029.384615,0.049547,0.001000,0.001000,0.001000,0.001000,0.001000
1029.403846,0.049358,0.001000,0.001000,0.001000,0.001000,0.001000
1029.423077,0.049135,0.001000,0.001000,0.001000,0.001000,0.001000
1029.442308,0.048880,0.001000,0.001000,0.001000,0.001000,0.001000
1029.461538,0.048593,0.001000,0.001000,0.001000,0.001000,0.001000
1029.480769,0.048273,0.001000,0.001000,0.001000,0.001000,0.001000
1029.500000,0.047921,0.001000,0.001000,0.001000,0.001000,0.001000
1029.519231,0.047537,0.001000,0.001000,0.001000,0.001000,0.001000
1029.538462,0.047122,0.001000,0.001000,0.001000,0.001000,0.001000
1029.557692,0.046675,0.001000,0.001000,0.001000,0.001000,0.001000
1029.576923,0.046197,0.001000,0.001000,0.001000,0.001000,0.001000
1029.596154,0.045688,0.001000,0.001000,0.001000,0.001000,0.001000
1029.615385,0.045149,0.001000,0.001000,0.001000,0.001000,0.001000
1029.634615,0.044580,0.001000,0.001000,0.001000,0.001000,0.001000
1029.653846,0.043982,0.001000,0.001000,0.001000,0.001000,0.001000
1029.673077,0.043354,0.001000,0.001000,0.001000,0.001000,0.001000
1029.692308,0.042697,0.001000,0.001000,0.001000,0.001000,0.001000
1029.711538,0.042012,0.001000,0.001000,0.001000,0.001000,0.001000
1029.730769,0.041299,0.001000,0.001000,0.001000,0.001000,0.001000
1029.750000,0.040559,0.001000,0.001000,0.001000,0.001000,0.001000
1029.769231,0.039791,0.001000,0.001000,0.001000,0.001000,0.001000
1029.788462,0.038997,0.001000,0.001000,0.001000,0.001000,0.001000
1029.807692,0.038177,0.001000,0.001000,0.001000,0.001000,0.001000
1029.826923,0.037332,0.001000,0.001000,0.001000,0.001000,0.001000
1029.846154,0.036462,0.001000,0.001000,0.001000,0.001000,0.001000
1029.865385,0.035568,0.001000,0.001000,0.001000,0.001000,0.001000
1029.884615,0.034650,0.001000,0.001000,0.001000,0.001000,0.001000
1029.903846,0.033709,0.001000,0.001000,0.001000,0.001000,0.001000
1029.923077,0.032745,0.001000,0.001000,0.001000,0.001000,0.001000
1029.942308,0.031760,0.001000,0.001000,0.001000,0.001000,0.001000
1029.961538,0.030754,0.001000,0.001000,0.001000,0.001000,0.001000
1029.980769,0.029727,0.001000,0.001000,0.001000,0.001000,0.001000
1030.000000,0.000000,0.001000,0.001000,0.001000,0.001000,0.001000
1030.019231,0.001322,0.001000,0.001000,0.001000,0.001000,0.001000
1030.038462,0.002644,0.001000,0.001000,0.001000,0.001000,0.001000
1030.057692,0.003963,0.001000,0.001000,0.001000,0.001000,0.001000
1030.076923,0.005280,0.001000,0.001000,0.001000,0.001000,0.001000
1030.096154,0.006593,0.001000,0.001000,0.001000,0.001000,0.001000
1030.115385,0.007902,0.001000,0.001000,0.001000,0.001000,0.001000
1030.134615,0.009205,0.001000,0.001000,0.001000,0.001000,0.001000
1030.153846,0.010501,0.001000,0.001000,0.001000,0.001000,0.001000
1030.173077,0.011790,0.001000,0.001000,0.001000,0.001000,0.001000
1030.192308,0.013071,0.001000,0.001000,0.001000,0.001000,0.001000
1030.211538,0.014343,0.001000,0.001000,0.001000,0.001000,0.001000
1030.230769,0.015605,0.001000,0.001000,0.001000,0.001000,0.001000
1030.250000,0.016855,0.001000,0.001000,0.001000,0.001000,0.001000
1030.269231,0.018095,0.001000,0.001000,0.001000,0.001000,0.001000
1030.288462,0.019321,0.001000,0.001000,0.001000,0.001000,0.001000
1030.307692,0.020534,0.001000,0.001000,0.001000,0.001000,0.001000
1030.326923,0.021732,0.001000,0.001000,0.001000,0.001000,0.001000
1030.346154,0.022916,0.001000,0.001000,0.001000,0.001000,0.001000
1030.365385,0.024083,0.001000,0.001000,0.001000,0.001000,0.001000
1030.384615,0.025233,0.001000,0.001000,0.001000,0.001000,0.001000
1030.403846,0.026366,0.001000,0.001000,0.001000,0.001000,0.001000
1030.423077,0.027480,0.001000,0.001000,0.001000,0.001000,0.001000
1030.442308,0.028575,0.001000,0.001000,0.001000,0.001000,0.001000
1030.461538,0.029650,0.001000,0.001000,0.001000,0.001000,0.001000
1030.480769,0.030705,0.001000,0.001000,0.001000,0.001000,0.001000
1030.500000,0.031738,0.001000,0.001000,0.001000,0.001000,0.001000
1030.519231,0.032748,0.001000,0.001000,0.001000,0.001000,0.001000
1030.538462,0.033736,0.001000,0.001000,0.001000,0.001000,0.001000
1030.557692,0.034700,0.001000,0.001000,0.001000,0.001000,0.001000
1030.576923,0.035640,0.001000,0.001000,0.001000,0.001000,0.001000
1030.596154,0.036555,0.001000,0.001000,0.001000,0.001000,0.001000
1030.615385,0.037445,0.001000,0.001000,0.001000,0.001000,0.001000
1030.634615,0.038308,0.001000,0.001000,0.001000,0.001000,0.001000
1030.653846,0.039144,0.001000,0.001000,0.001000,0.001000,0.001000
1030.673077,0.039953,0.001000,0.001000,0.001000,0.001000,0.001000
1030.692308,0.040734,0.001000,0.001000,0.001000,0.001000,0.001000
1030.711538,0.041487,0.001000,0.001000,0.001000,0.001000,0.001000
1030.730769,0.042210,0.001000,0.001000,0.001000,0.001000,0.001000
1030.750000,0.042904,0.001000,0.001000,0.001000,0.001000,0.001000
1030.769231,0.043568,0.001000,0.001000,0.001000,0.001000,0.001000
1030.788462,0.044202,0.001000,0.001000,0.001000,0.001000,0.001000
1030.807692,0.044805,0.001000,0.001000,0.001000,0.001000,0.001000
1030.826923,0.045376,0.001000,0.001000,0.001000,0.001000,0.001000
1030.846154,0.045915,0.001000,0.001000,0.001000,0.001000,0.001000
1030.865385,0.046423,0.001000,0.001000,0.001000,0.001000,0.001000
1030.884615,0.046898,0.001000,0.001000,0.001000,0.001000,0.001000
1030.903846,0.047340,0.001000,0.001000,0.001000,0.001000,0.001000
1030.923077,0.047749,0.001000,0.001000,0.001000,0.001000,0.001000
1030.942308,0.048124,0.001000,0.001000,0.001000,0.001000,0.001000
1030.961538,0.048466,0.001000,0.001000,0.001000,0.001000,0.001000
1030.980769,0.048774,0.001000,0.001000,0.001000,0.001000,0.001000
1031.000000,0.049048,0.001000,0.001000,0.001000,0.001000,0.001000
1031.019231,0.049288,0.001000,0.001000,0.001000,0.001000,0.001000
1031.038462,0.049493,0.001000,0.001000,0.001000,0.001000,0.001000
1031.057692,0.049664,0.001000,0.001000,0.001000,0.001000,0.001000
1031.076923,0.049799,0.001000,0.001000,0.001000,0.001000,0.001000
1031.096154,0.049900,0.001000,0.001000,0.001000,0.001000,0.001000
1031.115385,0.049966,0.001000,0.001000,0.001000,0.001000,0.001000
1031.134615,0.049997,0.001000,0.001000,0.001000,0.001000,0.001000
1031.153846,0.049993,0.001000,0.001000,0.001000,0.001000,0.001000
1031.173077,0.049955,0.001000,0.001000,0.001000,0.001000,0.001000
1031.192308,0.049881,0.001000,0.001000,0.001000,0.001000,0.001000
1031.211538,0.049772,0.001000,0.001000,0.001000,0.001000,0.001000
1031.230769,0.049628,0.001000,0.001000,0.001000,0.001000,0.001000
1031.250000,0.049450,0.001000,0.001000,0.001000,0.001000,0.001000
1031.269231,0.049237,0.001000,0.001000,0.001000,0.001000,0.001000
1031.288462,0.048990,0.001000,0.001000,0.001000,0.001000,0.001000
1031.307692,0.048709,0.001000,0.001000,0.001000,0.001000,0.001000
1031.326923,0.048393,0.001000,0.001000,0.001000,0.001000,0.001000
1031.346154,0.048043,0.001000,0.001000,0.001000,0.001000,0.001000
1031.365385,0.047660,0.001000,0.001000,0.001000,0.001000,0.001000
1031.384615,0.047244,0.001000,0.001000,0.001000,0.001000,0.001000
1031.403846,0.046794,0.001000,0.001000,0.001000,0.001000,0.001000
1031.423077,0.046312,0.001000,0.001000,0.001000,0.001000,0.001000
1031.442308,0.045798,0.001000,0.001000,0.001000,0.001000,0.001000
1031.461538,0.045251,0.001000,0.001000,0.001000,0.001000,0.001000
1031.480769,0.044673,0.001000,0.001000,0.001000,0.001000,0.001000
1031.500000,0.044063,0.001000,0.001000,0.001000,0.001000,0.001000
1031.519231,0.043423,0.001000,0.001000,0.001000,0.001000,0.001000
1031.538462,0.042752,0.001000,0.001000,0.001000,0.001000,0.001000
1031.557692,0.042051,0.001000,0.001000,0.001000,0.001000,0.001000
1031.576923,0.041321,0.001000,0.001000,0.001000,0.001000,0.001000
1031.596154,0.040562,0.001000,0.001000,0.001000,0.001000,0.001000
1031.615385,0.039775,0.001000,0.001000,0.001000,0.001000,0.001000
1031.634615,0.038960,0.001000,0.001000,0.001000,0.001000,0.001000
1031.653846,0.038117,0.001000,0.001000,0.001000,0.001000,0.001000
1031.673077,0.037248,0.001000,0.001000,0.001000,0.001000,0.001000
1031.692308,0.036353,0.001000,0.001000,0.001000,0.001000,0.001000
1031.711538,0.035432,0.001000,0.001000,0.001000,0.001000,0.001000
1031.730769,0.034487,0.001000,0.001000,0.001000,0.001000,0.001000
1031.750000,0.033517,0.001000,0.001000,0.001000,0.001000,0.001000
1031.769231,0.032524,0.001000,0.001000,0.001000,0.001000,0.001000
1031.788462,0.031509,0.001000,0.001000,0.001000,0.001000,0.001000
1031.807692,0.030471,0.001000,0.001000,0.001000,0.001000,0.001000
1031.826923,0.029412,0.001000,0.001000,0.001000,0.001000,0.001000
1031.846154,0.028332,0.001000,0.001000,0.001000,0.001000,0.001000
1031.865385,0.027233,0.001000,0.001000,0.001000,0.001000,0.001000
1031.884615,0.026114,0.001000,0.001000,0.001000,0.001000,0.001000
1031.903846,0.024978,0.001000,0.001000,0.001000,0.001000,0.001000
1031.923077,0.023823,0.001000,0.001000,0.001000,0.001000,0.001000
1031.942308,0.022652,0.001000,0.001000,0.001000,0.001000,0.001000
1031.961538,0.021466,0.001000,0.001000,0.001000,0.001000,0.001000
1031.980769,0.020264,0.001000,0.001000,0.001000,0.001000,0.001000
1032.000000,0.019048,0.001000,0.001000,0.001000,0.001000,0.001000
1032.019231,0.017819,0.001000,0.001000,0.001000,0.001000,0.001000
1032.038462,0.016577,0.001000,0.001000,0.001000,0.001000,0.001000
1032.057692,0.015324,0.001000,0.001000,0.001000,0.001000,0.001000
1032.076923,0.014060,0.001000,0.001000,0.001000,0.001000,0.001000
1032.096154,0.012786,0.001000,0.001000,0.001000,0.001000,0.001000
1032.115385,0.011503,0.001000,0.001000,0.001000,0.001000,0.001000
1032.134615,0.010212,0.001000,0.001000,0.001000,0.001000,0.001000
1032.153846,0.008914,0.001000,0.001000,0.001000,0.001000,0.001000
1032.173077,0.007610,0.001000,0.001000,0.001000,0.001000,0.001000
1032.192308,0.006300,0.001000,0.001000,0.001000,0.001000,0.001000
1032.211538,0.004986,0.001000,0.001000,0.001000,0.001000,0.001000
1032.230769,0.003669,0.001000,0.001000,0.001000,0.001000,0.001000
1032.250000,0.002349,0.001000,0.001000,0.001000,0.001000,0.001000
1032.269231,0.001027,0.001000,0.001000,0.001000,0.001000,0.001000
1032.288462,-0.000296,0.001000,0.001000,0.001000,0.001000,0.001000
1032.307692,-0.001618,0.001000,0.001000,0.001000,0.001000,0.001000
1032.326923,-0.002939,0.001000,0.001000,0.001000,0.001000,0.001000
1032.346154,-0.004258,0.001000,0.001000,0.001000,0.001000,0.001000
1032.365385,-0.005574,0.001000,0.001000,0.001000,0.001000,0.001000
1032.384615,-0.006886,0.001000,0.001000,0.001000,0.001000,0.001000
1032.403846,-0.008193,0.001000,0.001000,0.001000,0.001000,0.001000
1032.423077,-0.009495,0.001000,0.001000,0.001000,0.001000,0.001000
1032.442308,-0.010790,0.001000,0.001000,0.001000,0.001000,0.001000
1032.461538,-0.012077,0.001000,0.001000,0.001000,0.001000,0.001000
1032.480769,-0.013356,0.001000,0.001000,0.001000,0.001000,0.001000
1032.500000,-0.014626,0.001000,0.001000,0.001000,0.001000,0.001000
1032.519231,-0.015885,0.001000,0.001000,0.001000,0.001000,0.001000
1032.538462,-0.017133,0.001000,0.001000,0.001000,0.001000,0.001000
1032.557692,-0.018370,0.001000,0.001000,0.001000,0.001000,0.001000
1032.576923,-0.019593,0.001000,0.001000,0.001000,0.001000,0.001000
1032.596154,-0.020803,0.001000,0.001000,0.001000,0.001000,0.001000
1032.615385,-0.021998,0.001000,0.001000,0.001000,0.001000,0.001000
1032.634615,-0.023178,0.001000,0.001000,0.001000,0.001000,0.001000
1032.653846,-0.024341,0.001000,0.001000,0.001000,0.001000,0.001000
1032.673077,-0.025488,0.001000,0.001000,0.001000,0.001000,0.001000
1032.692308,-0.026617,0.001000,0.001000,0.001000,0.001000,0.001000
1032.711538,-0.027727,0.001000,0.001000,0.001000,0.001000,0.001000
1032.730769,-0.028817,0.001000,0.001000,0.001000,0.001000,0.001000
1032.750000,-0.029888,0.001000,0.001000,0.001000,0.001000,0.001000
1032.769231,-0.030938,0.001000,0.001000,0.001000,0.001000,0.001000
1032.788462,-0.031966,0.001000,0.001000,0.001000,0.001000,0.001000
1032.807692,-0.032971,0.001000,0.001000,0.001000,0.001000,0.001000
1032.826923,-0.033954,0.001000,0.001000,0.001000,0.001000,0.001000
1032.846154,-0.034913,0.001000,0.001000,0.001000,0.001000,0.001000
1032.865385,-0.035847,0.001000,0.001000,0.001000,0.001000,0.001000
1032.884615,-0.036756,0.001000,0.001000,0.001000,0.001000,0.001000
1032.903846,-0.037640,0.001000,0.001000,0.001000,0.001000,0.001000
1032.923077,-0.038497,0.001000,0.001000,0.001000,0.001000,0.001000
1032.942308,-0.039327,0.001000,0.001000,0.001000,0.001000,0.001000
1032.961538,-0.040130,0.001000,0.001000,0.001000,0.001000,0.001000
1032.980769,-0.040905,0.001000,0.001000,0.001000,0.001000,0.001000
1033.000000,-0.041651,0.001000,0.001000,0.001000,0.001000,0.001000
1033.019231,-0.042368,0.001000,0.001000,0.001000,0.001000,0.001000
1033.038462,-0.043055,0.001000,0.001000,0.001000,0.001000,0.001000
1033.057692,-0.043713,0.001000,0.001000,0.001000,0.001000,0.001000
1033.076923,-0.044339,0.001000,0.001000,0.001000,0.001000,0.001000
1033.096154,-0.044935,0.001000,0.001000,0.001000,0.001000,0.001000
1033.115385,-0.045499,0.001000,0.001000,0.001000,0.001000,0.001000
1033.134615,-0.046032,0.001000,0.001000,0.001000,0.001000,0.001000
1033.153846,-0.046532,0.001000,0.001000,0.001000,0.001000,0.001000
1033.173077,-0.046999,0.001000,0.001000,0.001000,0.001000,0.001000
1033.192308,-0.047434,0.001000,0.001000,0.001000,0.001000,0.001000
1033.211538,-0.047836,0.001000,0.001000,0.001000,0.001000,0.001000
1033.230769,-0.048204,0.001000,0.001000,0.001000,0.001000,0.001000
1033.250000,-0.048538,0.001000,0.001000,0.001000,0.001000,0.001000
1033.269231,-0.048839,0.001000,0.001000,0.001000,0.001000,0.001000
1033.288462,-0.049105,0.001000,0.001000,0.001000,0.001000,0.001000
1033.307692,-0.049337,0.001000,0.001000,0.001000,0.001000,0.001000
1033.326923,-0.049534,0.001000,0.001000,0.001000,0.001000,0.001000
1033.346154,-0.049697,0.001000,0.001000,0.001000,0.001000,0.001000
1033.365385,-0.049825,0.001000,0.001000,0.001000,0.001000,0.001000
1033.384615,-0.049918,0.001000,0.001000,0.001000,0.001000,0.001000
1033.403846,-0.049976,0.001000,0.001000,0.001000,0.001000,0.001000
1033.423077,-0.050000,0.001000,0.001000,0.001000,0.001000,0.001000
1033.442308,-0.049988,0.001000,0.001000,0.001000,0.001000,0.001000
1033.461538,-0.049941,0.001000,0.001000,0.001000,0.001000,0.001000
1033.480769,-0.049859,0.001000,0.001000,0.001000,0.001000,0.001000
1033.500000,-0.049743,0.001000,0.001000,0.001000,0.001000,0.001000
1033.519231,-0.049592,0.001000,0.001000,0.001000,0.001000,0.001000
1033.538462,-0.049406,0.001000,0.001000,0.001000,0.001000,0.001000
1033.557692,-0.049185,0.001000,0.001000,0.001000,0.001000,0.001000
1033.576923,-0.048930,0.001000,0.001000,0.001000,0.001000,0.001000
1033.596154,-0.048641,0.001000,0.001000,0.001000,0.001000,0.001000
1033.615385,-0.048318,0.001000,0.001000,0.001000,0.001000,0.001000
1033.634615,-0.047961,0.001000,0.001000,0.001000,0.001000,0.001000
1033.653846,-0.047570,0.001000,0.001000,0.001000,0.001000,0.001000
1033.673077,-0.047146,0.001000,0.001000,0.001000,0.001000,0.001000
1033.692308,-0.046689,0.001000,0.001000,0.001000,0.001000,0.001000
1033.711538,-0.046200,0.001000,0.001000,0.001000,0.001000,0.001000
1033.730769,-0.045678,0.001000,0.001000,0.001000,0.001000,0.001000
1033.750000,-0.045124,0.001000,0.001000,0.001000,0.001000,0.001000
1033.769231,-0.044539,0.001000,0.001000,0.001000,0.001000,0.001000
1033.788462,-0.043923,0.001000,0.001000,0.001000,0.001000,0.001000
1033.807692,-0.043275,0.001000,0.001000,0.001000,0.001000,0.001000
1033.826923,-0.042598,0.001000,0.001000,0.001000,0.001000,0.001000
1033.846154,-0.041891,0.001000,0.001000,0.001000,0.001000,0.001000
1033.865385,-0.041154,0.001000,0.001000,0.001000,0.001000,0.001000
1033.884615,-0.040389,0.001000,0.001000,0.001000,0.001000,0.001000
1033.903846,-0.039595,0.001000,0.001000,0.001000,0.001000,0.001000
1033.923077,-0.038774,0.001000,0.001000,0.001000,0.001000,0.001000
1033.942308,-0.037925,0.001000,0.001000,0.001000,0.001000,0.001000
1033.961538,-0.037050,0.001000,0.001000,0.001000,0.001000,0.001000
1033.980769,-0.036149,0.001000,0.001000,0.001000,0.001000,0.001000
1034.000000,-0.035223,0.001000,0.001000,0.001000,0.001000,0.001000
1034.019231,-0.034272,0.001000,0.001000,0.001000,0.001000,0.001000
1034.038462,-0.033298,0.001000,0.001000,0.001000,0.001000,0.001000
1034.057692,-0.032299,0.001000,0.001000,0.001000,0.001000,0.001000
1034.076923,-0.031279,0.001000,0.001000,0.001000,0.001000,0.001000
1034.096154,-0.030236,0.001000,0.001000,0.001000,0.001000,0.001000
1034.115385,-0.029172,0.001000,0.001000,0.001000,0.001000,0.001000
1034.134615,-0.028088,0.001000,0.001000,0.001000,0.001000,0.001000
1034.153846,-0.026985,0.001000,0.001000,0.001000,0.001000,0.001000
1034.173077,-0.025862,0.001000,0.001000,0.001000,0.001000,0.001000
1034.192308,-0.024721,0.001000,0.001000,0.001000,0.001000,0.001000
1034.211538,-0.023563,0.001000,0.001000,0.001000,0.001000,0.001000
1034.230769,-0.022389,0.001000,0.001000,0.001000,0.001000,0.001000
1034.250000,-0.021198,0.001000,0.001000,0.001000,0.001000,0.001000
1034.269231,-0.019993,0.001000,0.001000,0.001000,0.001000,0.001000
1034.288462,-0.018774,0.001000,0.001000,0.001000,0.001000,0.001000
1034.307692,-0.017542,0.001000,0.001000,0.001000,0.001000,0.001000
1034.326923,-0.016298,0.001000,0.001000,0.001000,0.001000,0.001000
1034.346154,-0.015042,0.001000,0.001000,0.001000,0.001000,0.001000
1034.365385,-0.013776,0.001000,0.001000,0.001000,0.001000,0.001000
1034.384615,-0.012500,0.001000,0.001000,0.001000,0.001000,0.001000
1034.403846,-0.011215,0.001000,0.001000,0.001000,0.001000,0.001000
1034.423077,-0.009922,0.001000,0.001000,0.001000,0.001000,0.001000
1034.442308,-0.008623,0.001000,0.001000,0.001000,0.001000,0.001000
1034.461538,-0.007317,0.001000,0.001000,0.001000,0.001000,0.001000
1034.480769,-0.006007,0.001000,0.001000,0.001000,0.001000,0.001000
1034.500000,-0.004692,0.001000,0.001000,0.001000,0.001000,0.001000
1034.519231,-0.003374,0.001000,0.001000,0.001000,0.001000,0.001000
1034.538462,-0.002053,0.001000,0.001000,0.001000,0.001000,0.001000
1034.557692,-0.000731,0.001000,0.001000,0.001000,0.001000,0.001000
1034.576923,0.000591,0.001000,0.001000,0.001000,0.001000,0.001000
1034.596154,0.001913,0.001000,0.001000,0.001000,0.001000,0.001000
1034.615385,0.003234,0.001000,0.001000,0.001000,0.001000,0.001000
1034.634615,0.004552,0.001000,0.001000,0.001000,0.001000,0.001000
1034.653846,0.005867,0.001000,0.001000,0.001000,0.001000,0.001000
1034.673077,0.007179,0.001000,0.001000,0.001000,0.001000,0.001000
