timestamp,ax,ay,az,gx,gy,gz
1000.000000,0.000000,0.001000,0.001000,0.001000,0.001000,0.001000
1000.019231,0.001135,0.001000,0.001000,0.001000,0.001000,0.001000
1000.038462,0.002270,0.001000,0.001000,0.001000,0.001000,0.001000
1000.057692,0.003404,0.001000,0.001000,0.001000,0.001000,0.001000
1000.076923,0.004536,0.001000,0.001000,0.001000,0.001000,0.001000
1000.096154,0.005666,0.001000,0.001000,0.001000,0.001000,0.001000
1000.115385,0.006792,0.001000,0.001000,0.001000,0.001000,0.001000
1000.134615,0.007916,0.001000,0.001000,0.001000,0.001000,0.001000
1000.153846,0.009035,0.001000,0.001000,0.001000,0.001000,0.001000
1000.173077,0.010149,0.001000,0.001000,0.001000,0.001000,0.001000
1000.192308,0.011258,0.001000,0.001000,0.001000,0.001000,0.001000
1000.211538,0.012362,0.001000,0.001000,0.001000,0.001000,0.001000
1000.230769,0.013459,0.001000,0.001000,0.001000,0.001000,0.001000
1000.250000,0.014549,0.001000,0.001000,0.001000,0.001000,0.001000
1000.269231,0.015631,0.001000,0.001000,0.001000,0.001000,0.001000
1000.288462,0.016706,0.001000,0.001000,0.001000,0.001000,0.001000
1000.307692,0.017772,0.001000,0.001000,0.001000,0.001000,0.001000
1000.326923,0.018829,0.001000,0.001000,0.001000,0.001000,0.001000
1000.346154,0.019876,0.001000,0.001000,0.001000,0.001000,0.001000
1000.365385,0.020912,0.001000,0.001000,0.001000,0.001000,0.001000
1000.384615,0.021938,0.001000,0.001000,0.001000,0.001000,0.001000
1000.403846,0.022953,0.001000,0.001000,0.001000,0.001000,0.001000
1000.423077,0.023956,0.001000,0.001000,0.001000,0.001000,0.001000
1000.442308,0.024946,0.001000,0.001000,0.001000,0.001000,0.001000
1000.461538,0.025924,0.001000,0.001000,0.001000,0.001000,0.001000
1000.480769,0.026888,0.001000,0.001000,0.001000,0.001000,0.001000
1000.500000,0.027839,0.001000,0.001000,0.001000,0.001000,0.001000
1000.519231,0.028775,0.001000,0.001000,0.001000,0.001000,0.001000
1000.538462,0.029696,0.001000,0.001000,0.001000,0.001000,0.001000
1000.557692,0.030602,0.001000,0.001000,0.001000,0.001000,0.001000
1000.576923,0.031492,0.001000,0.001000,0.001000,0.001000,0.001000
1000.596154,0.032366,0.001000,0.001000,0.001000,0.001000,0.001000
1000.615385,0.033223,0.001000,0.001000,0.001000,0.001000,0.001000
1000.634615,0.034063,0.001000,0.001000,0.001000,0.001000,0.001000
1000.653846,0.034885,0.001000,0.001000,0.001000,0.001000,0.001000
1000.673077,0.035690,0.001000,0.001000,0.001000,0.001000,0.001000
1000.692308,0.036476,0.001000,0.001000,0.001000,0.001000,0.001000
1000.711538,0.037243,0.001000,0.001000,0.001000,0.001000,0.001000
1000.730769,0.037991,0.001000,0.001000,0.001000,0.001000,0.001000
1000.750000,0.038719,0.001000,0.001000,0.001000,0.001000,0.001000
1000.769231,0.039428,0.001000,0.001000,0.001000,0.001000,0.001000
1000.788462,0.040116,0.001000,0.001000,0.001000,0.001000,0.001000
1000.807692,0.040783,0.001000,0.001000,0.001000,0.001000,0.001000
1000.826923,0.041430,0.001000,0.001000,0.001000,0.001000,0.001000
1000.846154,0.042055,0.001000,0.001000,0.001000,0.001000,0.001000
1000.865385,0.042658,0.001000,0.001000,0.001000,0.001000,0.001000
1000.884615,0.043239,0.001000,0.001000,0.001000,0.001000,0.001000
1000.903846,0.043798,0.001000,0.001000,0.001000,0.001000,0.001000
1000.923077,0.044335,0.001000,0.001000,0.001000,0.001000,0.001000
1000.942308,0.044848,0.001000,0.001000,0.001000,0.001000,0.001000
1000.961538,0.045339,0.001000,0.001000,0.001000,0.001000,0.001000
1000.980769,0.045806,0.001000,0.001000,0.001000,0.001000,0.001000
1001.000000,0.046249,0.001000,0.001000,0.001000,0.001000,0.001000
1001.019231,0.046669,0.001000,0.001000,0.001000,0.001000,0.001000
1001.038462,0.047064,0.001000,0.001000,0.001000,0.001000,0.001000
1001.057692,0.047435,0.001000,0.001000,0.001000,0.001000,0.001000
1001.076923,0.047782,0.001000,0.001000,0.001000,0.001000,0.001000
1001.096154,0.048104,0.001000,0.001000,0.001000,0.001000,0.001000
1001.115385,0.048402,0.001000,0.001000,0.001000,0.001000,0.001000
1001.134615,0.048674,0.001000,0.001000,0.001000,0.001000,0.001000
1001.153846,0.048921,0.001000,0.001000,0.001000,0.001000,0.001000
1001.173077,0.049143,0.001000,0.001000,0.001000,0.001000,0.001000
1001.192308,0.049340,0.001000,0.001000,0.001000,0.001000,0.001000
1001.211538,0.049511,0.001000,0.001000,0.001000,0.001000,0.001000
1001.230769,0.049657,0.001000,0.001000,0.001000,0.001000,0.001000
1001.250000,0.049777,0.001000,0.001000,0.001000,0.001000,0.001000
1001.269231,0.049871,0.001000,0.001000,0.001000,0.001000,0.001000
1001.288462,0.049940,0.001000,0.001000,0.001000,0.001000,0.001000
1001.307692,0.049983,0.001000,0.001000,0.001000,0.001000,0.001000
1001.326923,0.050000,0.001000,0.001000,0.001000,0.001000,0.001000
1001.346154,0.049991,0.001000,0.001000,0.001000,0.001000,0.001000
1001.365385,0.049957,0.001000,0.001000,0.001000,0.001000,0.001000
1001.384615,0.049896,0.001000,0.001000,0.001000,0.001000,0.001000
1001.403846,0.049810,0.001000,0.001000,0.001000,0.001000,0.001000
1001.423077,0.049699,0.001000,0.001000,0.001000,0.001000,0.001000
1001.442308,0.049561,0.001000,0.001000,0.001000,0.001000,0.001000
1001.461538,0.049399,0.001000,0.001000,0.001000,0.001000,0.001000
1001.480769,0.049210,0.001000,0.001000,0.001000,0.001000,0.001000
1001.500000,0.048996,0.001000,0.001000,0.001000,0.001000,0.001000
1001.519231,0.048757,0.001000,0.001000,0.001000,0.001000,0.001000
1001.538462,0.048493,0.001000,0.001000,0.001000,0.001000,0.001000
1001.557692,0.048204,0.001000,0.001000,0.001000,0.001000,0.001000
1001.576923,0.047890,0.001000,0.001000,0.001000,0.001000,0.001000
1001.596154,0.047551,0.001000,0.001000,0.001000,0.001000,0.001000
1001.615385,0.047188,0.001000,0.001000,0.001000,0.001000,0.001000
1001.634615,0.046801,0.001000,0.001000,0.001000,0.001000,0.001000
1001.653846,0.046389,0.001000,0.001000,0.001000,0.001000,0.001000
1001.673077,0.045953,0.001000,0.001000,0.001000,0.001000,0.001000
1001.692308,0.045494,0.001000,0.001000,0.001000,0.001000,0.001000
1001.711538,0.045011,0.001000,0.001000,0.001000,0.001000,0.001000
1001.730769,0.044505,0.001000,0.001000,0.001000,0.001000,0.001000
1001.750000,0.043976,0.001000,0.001000,0.001000,0.001000,0.001000
1001.769231,0.043424,0.001000,0.001000,0.001000,0.001000,0.001000
1001.788462,0.042850,0.001000,0.001000,0.001000,0.001000,0.001000
1001.807692,0.042254,0.001000,0.001000,0.001000,0.001000,0.001000
1001.826923,0.041636,0.001000,0.001000,0.001000,0.001000,0.001000
1001.846154,0.040997,0.001000,0.001000,0.001000,0.001000,0.001000
1001.865385,0.040336,0.001000,0.001000,0.001000,0.001000,0.001000
1001.884615,0.039655,0.001000,0.001000,0.001000,0.001000,0.001000
1001.903846,0.038953,0.001000,0.001000,0.001000,0.001000,0.001000
1001.923077,0.038231,0.001000,0.001000,0.001000,0.001000,0.001000
1001.942308,0.037489,0.001000,0.001000,0.001000,0.001000,0.001000
1001.961538,0.036729,0.001000,0.001000,0.001000,0.001000,0.001000
1001.980769,0.035949,0.001000,0.001000,0.001000,0.001000,0.001000
1002.000000,0.035150,0.001000,0.001000,0.001000,0.001000,0.001000
1002.019231,0.034334,0.001000,0.001000,0.001000,0.001000,0.001000
1002.038462,0.033499,0.001000,0.001000,0.001000,0.001000,0.001000
1002.057692,0.032648,0.001000,0.001000,0.001000,0.001000,0.001000
1002.076923,0.031779,0.001000,0.001000,0.001000,0.001000,0.001000
1002.096154,0.030894,0.001000,0.001000,0.001000,0.001000,0.001000
1002.115385,0.029994,0.001000,0.001000,0.001000,0.001000,0.001000
1002.134615,0.029077,0.001000,0.001000,0.001000,0.001000,0.001000
1002.153846,0.028146,0.001000,0.001000,0.001000,0.001000,0.001000
1002.173077,0.027200,0.001000,0.001000,0.001000,0.001000,0.001000
1002.192308,0.026241,0.001000,0.001000,0.001000,0.001000,0.001000
1002.211538,0.025267,0.001000,0.001000,0.001000,0.001000,0.001000
1002.230769,0.024281,0.001000,0.001000,0.001000,0.001000,0.001000
1002.250000,0.023282,0.001000,0.001000,0.001000,0.001000,0.001000
1002.269231,0.022271,0.001000,0.001000,0.001000,0.001000,0.001000
1002.288462,0.021249,0.001000,0.001000,0.001000,0.001000,0.001000
1002.307692,0.020216,0.001000,0.001000,0.001000,0.001000,0.001000
1002.326923,0.019172,0.001000,0.001000,0.001000,0.001000,0.001000
1002.346154,0.018118,0.001000,0.001000,0.001000,0.001000,0.001000
1002.365385,0.017055,0.001000,0.001000,0.001000,0.001000,0.001000
1002.384615,0.015984,0.001000,0.001000,0.001000,0.001000,0.001000
1002.403846,0.014904,0.001000,0.001000,0.001000,0.001000,0.001000
1002.423077,0.013816,0.001000,0.001000,0.001000,0.001000,0.001000
1002.442308,0.012721,0.001000,0.001000,0.001000,0.001000,0.001000
1002.461538,0.011620,0.001000,0.001000,0.001000,0.001000,0.001000
1002.480769,0.010512,0.001000,0.001000,0.001000,0.001000,0.001000
1002.500000,0.009399,0.001000,0.001000,0.001000,0.001000,0.001000
1002.519231,0.008282,0.001000,0.001000,0.001000,0.001000,0.001000
1002.538462,0.007160,0.001000,0.001000,0.001000,0.001000,0.001000
1002.557692,0.006034,0.001000,0.001000,0.001000,0.001000,0.001000
1002.576923,0.004906,0.001000,0.001000,0.001000,0.001000,0.001000
1002.596154,0.003774,0.001000,0.001000,0.001000,0.001000,0.001000
1002.615385,0.002641,0.001000,0.001000,0.001000,0.001000,0.001000
1002.634615,0.001507,0.001000,0.001000,0.001000,0.001000,0.001000
1002.653846,0.000371,0.001000,0.001000,0.001000,0.001000,0.001000
1002.673077,-0.000764,0.001000,0.001000,0.001000,0.001000,0.001000
1002.692308,-0.001900,0.001000,0.001000,0.001000,0.001000,0.001000
1002.711538,-0.003034,0.001000,0.001000,0.001000,0.001000,0.001000
1002.730769,-0.004166,0.001000,0.001000,0.001000,0.001000,0.001000
1002.750000,-0.005297,0.001000,0.001000,0.001000,0.001000,0.001000
1002.769231,-0.006424,0.001000,0.001000,0.001000,0.001000,0.001000
1002.788462,-0.007549,0.001000,0.001000,0.001000,0.001000,0.001000
1002.807692,-0.008669,0.001000,0.001000,0.001000,0.001000,0.001000
1002.826923,-0.009785,0.001000,0.001000,0.001000,0.001000,0.001000
1002.846154,-0.010896,0.001000,0.001000,0.001000,0.001000,0.001000
1002.865385,-0.012002,0.001000,0.001000,0.001000,0.001000,0.001000
1002.884615,-0.013101,0.001000,0.001000,0.001000,0.001000,0.001000
1002.903846,-0.014193,0.001000,0.001000,0.001000,0.001000,0.001000
1002.923077,-0.015278,0.001000,0.001000,0.001000,0.001000,0.001000
1002.942308,-0.016356,0.001000,0.001000,0.001000,0.001000,0.001000
1002.961538,-0.017424,0.001000,0.001000,0.001000,0.001000,0.001000
1002.980769,-0.018484,0.001000,0.001000,0.001000,0.001000,0.001000
1003.000000,-0.019535,0.001000,0.001000,0.001000,0.001000,0.001000
1003.019231,-0.020575,0.001000,0.001000,0.001000,0.001000,0.001000
1003.038462,-0.021604,0.001000,0.001000,0.001000,0.001000,0.001000
1003.057692,-0.022623,0.001000,0.001000,0.001000,0.001000,0.001000
1003.076923,-0.023629,0.001000,0.001000,0.001000,0.001000,0.001000
1003.096154,-0.024624,0.001000,0.001000,0.001000,0.001000,0.001000
1003.115385,-0.025606,0.001000,0.001000,0.001000,0.001000,0.001000
1003.134615,-0.026575,0.001000,0.001000,0.001000,0.001000,0.001000
1003.153846,-0.027530,0.001000,0.001000,0.001000,0.001000,0.001000
1003.173077,-0.028470,0.001000,0.001000,0.001000,0.001000,0.001000
1003.192308,-0.029396,0.001000,0.001000,0.001000,0.001000,0.001000
1003.211538,-0.030307,0.001000,0.001000,0.001000,0.001000,0.001000
1003.230769,-0.031203,0.001000,0.001000,0.001000,0.001000,0.001000
1003.250000,-0.032082,0.001000,0.001000,0.001000,0.001000,0.001000
1003.269231,-0.032944,0.001000,0.001000,0.001000,0.001000,0.001000
1003.288462,-0.033790,0.001000,0.001000,0.001000,0.001000,0.001000
1003.307692,-0.034618,0.001000,0.001000,0.001000,0.001000,0.001000
1003.326923,-0.035429,0.001000,0.001000,0.001000,0.001000,0.001000
1003.346154,-0.036221,0.001000,0.001000,0.001000,0.001000,0.001000
1003.365385,-0.036994,0.001000,0.001000,0.001000,0.001000,0.001000
1003.384615,-0.037749,0.001000,0.001000,0.001000,0.001000,0.001000
1003.403846,-0.038483,0.001000,0.001000,0.001000,0.001000,0.001000
1003.423077,-0.039198,0.001000,0.001000,0.001000,0.001000,0.001000
1003.442308,-0.039893,0.001000,0.001000,0.001000,0.001000,0.001000
1003.461538,-0.040567,0.001000,0.001000,0.001000,0.001000,0.001000
1003.480769,-0.041221,0.001000,0.001000,0.001000,0.001000,0.001000
1003.500000,-0.041853,0.001000,0.001000,0.001000,0.001000,0.001000
1003.519231,-0.042463,0.001000,0.001000,0.001000,0.001000,0.001000
1003.538462,-0.043052,0.001000,0.001000,0.001000,0.001000,0.001000
1003.557692,-0.043618,0.001000,0.001000,0.001000,0.001000,0.001000
1003.576923,-0.044162,0.001000,0.001000,0.001000,0.001000,0.001000
1003.596154,-0.044683,0.001000,0.001000,0.001000,0.001000,0.001000
1003.615385,-0.045181,0.001000,0.001000,0.001000,0.001000,0.001000
1003.634615,-0.045656,0.001000,0.001000,0.001000,0.001000,0.001000
1003.653846,-0.046107,0.001000,0.001000,0.001000,0.001000,0.001000
1003.673077,-0.046534,0.001000,0.001000,0.001000,0.001000,0.001000
1003.692308,-0.046938,0.001000,0.001000,0.001000,0.001000,0.001000
1003.711538,-0.047317,0.001000,0.001000,0.001000,0.001000,0.001000
1003.730769,-0.047672,0.001000,0.001000,0.001000,0.001000,0.001000
1003.750000,-0.048002,0.001000,0.001000,0.001000,0.001000,0.001000
1003.769231,-0.048307,0.001000,0.001000,0.001000,0.001000,0.001000
1003.788462,-0.048588,0.001000,0.001000,0.001000,0.001000,0.001000
1003.807692,-0.048843,0.001000,0.001000,0.001000,0.001000,0.001000
1003.826923,-0.049073,0.001000,0.001000,0.001000,0.001000,0.001000
1003.846154,-0.049278,0.001000,0.001000,0.001000,0.001000,0.001000
1003.865385,-0.049458,0.001000,0.001000,0.001000,0.001000,0.001000
1003.884615,-0.049612,0.001000,0.001000,0.001000,0.001000,0.001000
1003.903846,-0.049740,0.001000,0.001000,0.001000,0.001000,0.001000
1003.923077,-0.049843,0.001000,0.001000,0.001000,0.001000,0.001000
1003.942308,-0.049920,0.001000,0.001000,0.001000,0.001000,0.001000
1003.961538,-0.049971,0.001000,0.001000,0.001000,0.001000,0.001000
1003.980769,-0.049997,0.001000,0.001000,0.001000,0.001000,0.001000
1004.000000,-0.049997,0.001000,0.001000,0.001000,0.001000,0.001000
1004.019231,-0.049971,0.001000,0.001000,0.001000,0.001000,0.001000
1004.038462,-0.049919,0.001000,0.001000,0.001000,0.001000,0.001000
1004.057692,-0.049841,0.001000,0.001000,0.001000,0.001000,0.001000
1004.076923,-0.049738,0.001000,0.001000,0.001000,0.001000,0.001000
1004.096154,-0.049609,0.001000,0.001000,0.001000,0.001000,0.001000
1004.115385,-0.049455,0.001000,0.001000,0.001000,0.001000,0.001000
1004.134615,-0.049275,0.001000,0.001000,0.001000,0.001000,0.001000
1004.153846,-0.049069,0.001000,0.001000,0.001000,0.001000,0.001000
1004.173077,-0.048838,0.001000,0.001000,0.001000,0.001000,0.001000
1004.192308,-0.048582,0.001000,0.001000,0.001000,0.001000,0.001000
1004.211538,-0.048301,0.001000,0.001000,0.001000,0.001000,0.001000
1004.230769,-0.047996,0.001000,0.001000,0.001000,0.001000,0.001000
1004.250000,-0.047665,0.001000,0.001000,0.001000,0.001000,0.001000
1004.269231,-0.047310,0.001000,0.001000,0.001000,0.001000,0.001000
1004.288462,-0.046930,0.001000,0.001000,0.001000,0.001000,0.001000
1004.307692,-0.046526,0.001000,0.001000,0.001000,0.001000,0.001000
1004.326923,-0.046098,0.001000,0.001000,0.001000,0.001000,0.001000
1004.346154,-0.045647,0.001000,0.001000,0.001000,0.001000,0.001000
1004.365385,-0.045172,0.001000,0.001000,0.001000,0.001000,0.001000
1004.384615,-0.044673,0.001000,0.001000,0.001000,0.001000,0.001000
1004.403846,-0.044152,0.001000,0.001000,0.001000,0.001000,0.001000
1004.423077,-0.043607,0.001000,0.001000,0.001000,0.001000,0.001000
1004.442308,-0.043040,0.001000,0.001000,0.001000,0.001000,0.001000
1004.461538,-0.042452,0.001000,0.001000,0.001000,0.001000,0.001000
1004.480769,-0.041841,0.001000,0.001000,0.001000,0.001000,0.001000
1004.500000,-0.041208,0.001000,0.001000,0.001000,0.001000,0.001000
1004.519231,-0.040554,0.001000,0.001000,0.001000,0.001000,0.001000
1004.538462,-0.039880,0.001000,0.001000,0.001000,0.001000,0.001000
1004.557692,-0.039185,0.001000,0.001000,0.001000,0.001000,0.001000
1004.576923,-0.038469,0.001000,0.001000,0.001000,0.001000,0.001000
1004.596154,-0.037734,0.001000,0.001000,0.001000,0.001000,0.001000
1004.615385,-0.036979,0.001000,0.001000,0.001000,0.001000,0.001000
1004.634615,-0.036206,0.001000,0.001000,0.001000,0.001000,0.001000
1004.653846,-0.035413,0.001000,0.001000,0.001000,0.001000,0.001000
1004.673077,-0.034602,0.001000,0.001000,0.001000,0.001000,0.001000
1004.692308,-0.033774,0.001000,0.001000,0.001000,0.001000,0.001000
1004.711538,-0.032928,0.001000,0.001000,0.001000,0.001000,0.001000
1004.730769,-0.032065,0.001000,0.001000,0.001000,0.001000,0.001000
1004.750000,-0.031185,0.001000,0.001000,0.001000,0.001000,0.001000
1004.769231,-0.030290,0.001000,0.001000,0.001000,0.001000,0.001000
1004.788462,-0.029379,0.001000,0.001000,0.001000,0.001000,0.001000
1004.807692,-0.028452,0.001000,0.001000,0.001000,0.001000,0.001000
1004.826923,-0.027511,0.001000,0.001000,0.001000,0.001000,0.001000
1004.846154,-0.026556,0.001000,0.001000,0.001000,0.001000,0.001000
1004.865385,-0.025587,0.001000,0.001000,0.001000,0.001000,0.001000
1004.884615,-0.024605,0.001000,0.001000,0.001000,0.001000,0.001000
1004.903846,-0.023610,0.001000,0.001000,0.001000,0.001000,0.001000
1004.923077,-0.022603,0.001000,0.001000,0.001000,0.001000,0.001000
1004.942308,-0.021584,0.001000,0.001000,0.001000,0.001000,0.001000
1004.961538,-0.020555,0.001000,0.001000,0.001000,0.001000,0.001000
1004.980769,-0.019514,0.001000,0.001000,0.001000,0.001000,0.001000
1005.000000,-0.018464,0.001000,0.001000,0.001000,0.001000,0.001000
1005.019231,-0.017404,0.001000,0.001000,0.001000,0.001000,0.001000
1005.038462,-0.016335,0.001000,0.001000,0.001000,0.001000,0.001000
1005.057692,-0.015257,0.001000,0.001000,0.001000,0.001000,0.001000
1005.076923,-0.014172,0.001000,0.001000,0.001000,0.001000,0.001000
1005.096154,-0.013080,0.001000,0.001000,0.001000,0.001000,0.001000
1005.115385,-0.011980,0.001000,0.001000,0.001000,0.001000,0.001000
1005.134615,-0.010875,0.001000,0.001000,0.001000,0.001000,0.001000
1005.153846,-0.009764,0.001000,0.001000,0.001000,0.001000,0.001000
1005.173077,-0.008648,0.001000,0.001000,0.001000,0.001000,0.001000
1005.192308,-0.007527,0.001000,0.001000,0.001000,0.001000,0.001000
1005.211538,-0.006403,0.001000,0.001000,0.001000,0.001000,0.001000
1005.230769,-0.005275,0.001000,0.001000,0.001000,0.001000,0.001000
1005.250000,-0.004144,0.001000,0.001000,0.001000,0.001000,0.001000
1005.269231,-0.003012,0.001000,0.001000,0.001000,0.001000,0.001000
1005.288462,-0.001877,0.001000,0.001000,0.001000,0.001000,0.001000
1005.307692,-0.000742,0.001000,0.001000,0.001000,0.001000,0.001000
1005.326923,0.000393,0.001000,0.001000,0.001000,0.001000,0.001000
1005.346154,0.001529,0.001000,0.001000,0.001000,0.001000,0.001000
1005.365385,0.002663,0.001000,0.001000,0.001000,0.001000,0.001000
1005.384615,0.003796,0.001000,0.001000,0.001000,0.001000,0.001000
1005.403846,0.004927,0.001000,0.001000,0.001000,0.001000,0.001000
1005.423077,0.006056,0.001000,0.001000,0.001000,0.001000,0.001000
1005.442308,0.007182,0.001000,0.001000,0.001000,0.001000,0.001000
1005.461538,0.008304,0.001000,0.001000,0.001000,0.001000,0.001000
1005.480769,0.009421,0.001000,0.001000,0.001000,0.001000,0.001000
1005.500000,0.010534,0.001000,0.001000,0.001000,0.001000,0.001000
1005.519231,0.011641,0.001000,0.001000,0.001000,0.001000,0.001000
1005.538462,0.012742,0.001000,0.001000,0.001000,0.001000,0.001000
1005.557692,0.013837,0.001000,0.001000,0.001000,0.001000,0.001000
1005.576923,0.014925,0.001000,0.001000,0.001000,0.001000,0.001000
1005.596154,0.016004,0.001000,0.001000,0.001000,0.001000,0.001000
1005.615385,0.017076,0.001000,0.001000,0.001000,0.001000,0.001000
1005.634615,0.018139,0.001000,0.001000,0.001000,0.001000,0.001000
1005.653846,0.019192,0.001000,0.001000,0.001000,0.001000,0.001000
1005.673077,0.020236,0.001000,0.001000,0.001000,0.001000,0.001000
1005.692308,0.021269,0.001000,0.001000,0.001000,0.001000,0.001000
1005.711538,0.022291,0.001000,0.001000,0.001000,0.001000,0.001000
1005.730769,0.023302,0.001000,0.001000,0.001000,0.001000,0.001000
1005.750000,0.024300,0.001000,0.001000,0.001000,0.001000,0.001000
1005.769231,0.025286,0.001000,0.001000,0.001000,0.001000,0.001000
1005.788462,0.026259,0.001000,0.001000,0.001000,0.001000,0.001000
1005.807692,0.027219,0.001000,0.001000,0.001000,0.001000,0.001000
1005.826923,0.028164,0.001000,0.001000,0.001000,0.001000,0.001000
1005.846154,0.029095,0.001000,0.001000,0.001000,0.001000,0.001000
1005.865385,0.030011,0.001000,0.001000,0.001000,0.001000,0.001000
1005.884615,0.030912,0.001000,0.001000,0.001000,0.001000,0.001000
1005.903846,0.031796,0.001000,0.001000,0.001000,0.001000,0.001000
1005.923077,0.032664,0.001000,0.001000,0.001000,0.001000,0.001000
1005.942308,0.033516,0.001000,0.001000,0.001000,0.001000,0.001000
1005.961538,0.034350,0.001000,0.001000,0.001000,0.001000,0.001000
1005.980769,0.035166,0.001000,0.001000,0.001000,0.001000,0.001000
1006.000000,0.035964,0.001000,0.001000,0.001000,0.001000,0.001000
1006.019231,0.036743,0.001000,0.001000,0.001000,0.001000,0.001000
1006.038462,0.037504,0.001000,0.001000,0.001000,0.001000,0.001000
1006.057692,0.038245,0.001000,0.001000,0.001000,0.001000,0.001000
1006.076923,0.038967,0.001000,0.001000,0.001000,0.001000,0.001000
1006.096154,0.039668,0.001000,0.001000,0.001000,0.001000,0.001000
1006.115385,0.040349,0.001000,0.001000,0.001000,0.001000,0.001000
1006.134615,0.041009,0.001000,0.001000,0.001000,0.001000,0.001000
1006.153846,0.041648,0.001000,0.001000,0.001000,0.001000,0.001000
1006.173077,0.042266,0.001000,0.001000,0.001000,0.001000,0.001000
1006.192308,0.042862,0.001000,0.001000,0.001000,0.001000,0.001000
1006.211538,0.043435,0.001000,0.001000,0.001000,0.001000,0.001000
1006.230769,0.043987,0.001000,0.001000,0.001000,0.001000,0.001000
1006.250000,0.044515,0.001000,0.001000,0.001000,0.001000,0.001000
1006.269231,0.045021,0.001000,0.001000,0.001000,0.001000,0.001000
1006.288462,0.045503,0.001000,0.001000,0.001000,0.001000,0.001000
1006.307692,0.045962,0.001000,0.001000,0.001000,0.001000,0.001000
1006.326923,0.046397,0.001000,0.001000,0.001000,0.001000,0.001000
1006.346154,0.046808,0.001000,0.001000,0.001000,0.001000,0.001000
1006.365385,0.047196,0.001000,0.001000,0.001000,0.001000,0.001000
1006.384615,0.047558,0.001000,0.001000,0.001000,0.001000,0.001000
1006.403846,0.047897,0.001000,0.001000,0.001000,0.001000,0.001000
1006.423077,0.048210,0.001000,0.001000,0.001000,0.001000,0.001000
1006.442308,0.048499,0.001000,0.001000,0.001000,0.001000,0.001000
1006.461538,0.048762,0.001000,0.001000,0.001000,0.001000,0.001000
1006.480769,0.049001,0.001000,0.001000,0.001000,0.001000,0.001000
1006.500000,0.049214,0.001000,0.001000,0.001000,0.001000,0.001000
1006.519231,0.049402,0.001000,0.001000,0.001000,0.001000,0.001000
1006.538462,0.049564,0.001000,0.001000,0.001000,0.001000,0.001000
1006.557692,0.049701,0.001000,0.001000,0.001000,0.001000,0.001000
1006.576923,0.049812,0.001000,0.001000,0.001000,0.001000,0.001000
1006.596154,0.049898,0.001000,0.001000,0.001000,0.001000,0.001000
1006.615385,0.049957,0.001000,0.001000,0.001000,0.001000,0.001000
1006.634615,0.049991,0.001000,0.001000,0.001000,0.001000,0.001000
1006.653846,0.050000,0.001000,0.001000,0.001000,0.001000,0.001000
1006.673077,0.049982,0.001000,0.001000,0.001000,0.001000,0.001000
1006.692308,0.049939,0.001000,0.001000,0.001000,0.001000,0.001000
1006.711538,0.049869,0.001000,0.001000,0.001000,0.001000,0.001000
1006.730769,0.049775,0.001000,0.001000,0.001000,0.001000,0.001000
1006.750000,0.049654,0.001000,0.001000,0.001000,0.001000,0.001000
1006.769231,0.049508,0.001000,0.001000,0.001000,0.001000,0.001000
1006.788462,0.049336,0.001000,0.001000,0.001000,0.001000,0.001000
1006.807692,0.049139,0.001000,0.001000,0.001000,0.001000,0.001000
1006.826923,0.048917,0.001000,0.001000,0.001000,0.001000,0.001000
1006.846154,0.048669,0.001000,0.001000,0.001000,0.001000,0.001000
1006.865385,0.048396,0.001000,0.001000,0.001000,0.001000,0.001000
1006.884615,0.048098,0.001000,0.001000,0.001000,0.001000,0.001000
1006.903846,0.047776,0.001000,0.001000,0.001000,0.001000,0.001000
1006.923077,0.047428,0.001000,0.001000,0.001000,0.001000,0.001000
1006.942308,0.047057,0.001000,0.001000,0.001000,0.001000,0.001000
1006.961538,0.046661,0.001000,0.001000,0.001000,0.001000,0.001000
1006.980769,0.046241,0.001000,0.001000,0.001000,0.001000,0.001000
1007.000000,0.045797,0.001000,0.001000,0.001000,0.001000,0.001000
1007.019231,0.045329,0.001000,0.001000,0.001000,0.001000,0.001000
1007.038462,0.044839,0.001000,0.001000,0.001000,0.001000,0.001000
1007.057692,0.044325,0.001000,0.001000,0.001000,0.001000,0.001000
1007.076923,0.043788,0.001000,0.001000,0.001000,0.001000,0.001000
1007.096154,0.043228,0.001000,0.001000,0.001000,0.001000,0.001000
1007.115385,0.042646,0.001000,0.001000,0.001000,0.001000,0.001000
1007.134615,0.042043,0.001000,0.001000,0.001000,0.001000,0.001000
1007.153846,0.041417,0.001000,0.001000,0.001000,0.001000,0.001000
1007.173077,0.040770,0.001000,0.001000,0.001000,0.001000,0.001000
1007.192308,0.040103,0.001000,0.001000,0.001000,0.001000,0.001000
1007.211538,0.039414,0.001000,0.001000,0.001000,0.001000,0.001000
1007.230769,0.038705,0.001000,0.001000,0.001000,0.001000,0.001000
1007.250000,0.037977,0.001000,0.001000,0.001000,0.001000,0.001000
1007.269231,0.037228,0.001000,0.001000,0.001000,0.001000,0.001000
1007.288462,0.036461,0.001000,0.001000,0.001000,0.001000,0.001000
1007.307692,0.035674,0.001000,0.001000,0.001000,0.001000,0.001000
1007.326923,0.034869,0.001000,0.001000,0.001000,0.001000,0.001000
1007.346154,0.034047,0.001000,0.001000,0.001000,0.001000,0.001000
1007.365385,0.033206,0.001000,0.001000,0.001000,0.001000,0.001000
1007.384615,0.032349,0.001000,0.001000,0.001000,0.001000,0.001000
1007.403846,0.031475,0.001000,0.001000,0.001000,0.001000,0.001000
1007.423077,0.030584,0.001000,0.001000,0.001000,0.001000,0.001000
1007.442308,0.029678,0.001000,0.001000,0.001000,0.001000,0.001000
1007.461538,0.028757,0.001000,0.001000,0.001000,0.001000,0.001000
1007.480769,0.027820,0.001000,0.001000,0.001000,0.001000,0.001000
1007.500000,0.026870,0.001000,0.001000,0.001000,0.001000,0.001000
1007.519231,0.025905,0.001000,0.001000,0.001000,0.001000,0.001000
1007.538462,0.024927,0.001000,0.001000,0.001000,0.001000,0.001000
1007.557692,0.023937,0.001000,0.001000,0.001000,0.001000,0.001000
1007.576923,0.022933,0.001000,0.001000,0.001000,0.001000,0.001000
1007.596154,0.021919,0.001000,0.001000,0.001000,0.001000,0.001000
1007.615385,0.020892,0.001000,0.001000,0.001000,0.001000,0.001000
1007.634615,0.019855,0.001000,0.001000,0.001000,0.001000,0.001000
1007.653846,0.018808,0.001000,0.001000,0.001000,0.001000,0.001000
1007.673077,0.017751,0.001000,0.001000,0.001000,0.001000,0.001000
1007.692308,0.016685,0.001000,0.001000,0.001000,0.001000,0.001000
1007.711538,0.015610,0.001000,0.001000,0.001000,0.001000,0.001000
1007.730769,0.014528,0.001000,0.001000,0.001000,0.001000,0.001000
1007.750000,0.013438,0.001000,0.001000,0.001000,0.001000,0.001000
1007.769231,0.012340,0.001000,0.001000,0.001000,0.001000,0.001000
1007.788462,0.011237,0.001000,0.001000,0.001000,0.001000,0.001000
1007.807692,0.010128,0.001000,0.001000,0.001000,0.001000,0.001000
1007.826923,0.009013,0.001000,0.001000,0.001000,0.001000,0.001000
1007.846154,0.007894,0.001000,0.001000,0.001000,0.001000,0.001000
1007.865385,0.006771,0.001000,0.001000,0.001000,0.001000,0.001000
1007.884615,0.005644,0.001000,0.001000,0.001000,0.001000,0.001000
1007.903846,0.004514,0.001000,0.001000,0.001000,0.001000,0.001000
1007.923077,0.003382,0.001000,0.001000,0.001000,0.001000,0.001000
1007.942308,0.002248,0.001000,0.001000,0.001000,0.001000,0.001000
1007.961538,0.001113,0.001000,0.001000,0.001000,0.001000,0.001000
1007.980769,-0.000022,0.001000,0.001000,0.001000,0.001000,0.001000
1008.000000,-0.001158,0.001000,0.001000,0.001000,0.001000,0.001000
1008.019231,-0.002292,0.001000,0.001000,0.001000,0.001000,0.001000
1008.038462,-0.003426,0.001000,0.001000,0.001000,0.001000,0.001000
1008.057692,-0.004558,0.001000,0.001000,0.001000,0.001000,0.001000
1008.076923,-0.005688,0.001000,0.001000,0.001000,0.001000,0.001000
1008.096154,-0.006814,0.001000,0.001000,0.001000,0.001000,0.001000
1008.115385,-0.007937,0.001000,0.001000,0.001000,0.001000,0.001000
1008.134615,-0.009056,0.001000,0.001000,0.001000,0.001000,0.001000
1008.153846,-0.010171,0.001000,0.001000,0.001000,0.001000,0.001000
1008.173077,-0.011280,0.001000,0.001000,0.001000,0.001000,0.001000
1008.192308,-0.012383,0.001000,0.001000,0.001000,0.001000,0.001000
1008.211538,-0.013480,0.001000,0.001000,0.001000,0.001000,0.001000
1008.230769,-0.014570,0.001000,0.001000,0.001000,0.001000,0.001000
1008.250000,-0.015652,0.001000,0.001000,0.001000,0.001000,0.001000
1008.269231,-0.016727,0.001000,0.001000,0.001000,0.001000,0.001000
1008.288462,-0.017792,0.001000,0.001000,0.001000,0.001000,0.001000
1008.307692,-0.018849,0.001000,0.001000,0.001000,0.001000,0.001000
1008.326923,-0.019896,0.001000,0.001000,0.001000,0.001000,0.001000
1008.346154,-0.020932,0.001000,0.001000,0.001000,0.001000,0.001000
1008.365385,-0.021958,0.001000,0.001000,0.001000,0.001000,0.001000
1008.384615,-0.022973,0.001000,0.001000,0.001000,0.001000,0.001000
1008.403846,-0.023975,0.001000,0.001000,0.001000,0.001000,0.001000
1008.423077,-0.024966,0.001000,0.001000,0.001000,0.001000,0.001000
1008.442308,-0.025943,0.001000,0.001000,0.001000,0.001000,0.001000
1008.461538,-0.026907,0.001000,0.001000,0.001000,0.001000,0.001000
1008.480769,-0.027857,0.001000,0.001000,0.001000,0.001000,0.001000
1008.500000,-0.028793,0.001000,0.001000,0.001000,0.001000,0.001000
1008.519231,-0.029714,0.001000,0.001000,0.001000,0.001000,0.001000
1008.538462,-0.030619,0.001000,0.001000,0.001000,0.001000,0.001000
1008.557692,-0.031509,0.001000,0.001000,0.001000,0.001000,0.001000
1008.576923,-0.032382,0.001000,0.001000,0.001000,0.001000,0.001000
1008.596154,-0.033239,0.001000,0.001000,0.001000,0.001000,0.001000
1008.615385,-0.034079,0.001000,0.001000,0.001000,0.001000,0.001000
1008.634615,-0.034901,0.001000,0.001000,0.001000,0.001000,0.001000
1008.653846,-0.035705,0.001000,0.001000,0.001000,0.001000,0.001000
1008.673077,-0.036491,0.001000,0.001000,0.001000,0.001000,0.001000
1008.692308,-0.037258,0.001000,0.001000,0.001000,0.001000,0.001000
1008.711538,-0.038005,0.001000,0.001000,0.001000,0.001000,0.001000
1008.730769,-0.038733,0.001000,0.001000,0.001000,0.001000,0.001000
1008.750000,-0.039441,0.001000,0.001000,0.001000,0.001000,0.001000
1008.769231,-0.040129,0.001000,0.001000,0.001000,0.001000,0.001000
1008.788462,-0.040796,0.001000,0.001000,0.001000,0.001000,0.001000
1008.807692,-0.041442,0.001000,0.001000,0.001000,0.001000,0.001000
1008.826923,-0.042067,0.001000,0.001000,0.001000,0.001000,0.001000
1008.846154,-0.042669,0.001000,0.001000,0.001000,0.001000,0.001000
1008.865385,-0.043250,0.001000,0.001000,0.001000,0.001000,0.001000
1008.884615,-0.043809,0.001000,0.001000,0.001000,0.001000,0.001000
1008.903846,-0.044345,0.001000,0.001000,0.001000,0.001000,0.001000
1008.923077,-0.044858,0.001000,0.001000,0.001000,0.001000,0.001000
1008.942308,-0.045348,0.001000,0.001000,0.001000,0.001000,0.001000
1008.961538,-0.045815,0.001000,0.001000,0.001000,0.001000,0.001000
1008.980769,-0.046258,0.001000,0.001000,0.001000,0.001000,0.001000
1009.000000,-0.046677,0.001000,0.001000,0.001000,0.001000,0.001000
1009.019231,-0.047072,0.001000,0.001000,0.001000,0.001000,0.001000
1009.038462,-0.047442,0.001000,0.001000,0.001000,0.001000,0.001000
1009.057692,-0.047789,0.001000,0.001000,0.001000,0.001000,0.001000
1009.076923,-0.048110,0.001000,0.001000,0.001000,0.001000,0.001000
1009.096154,-0.048407,0.001000,0.001000,0.001000,0.001000,0.001000
1009.115385,-0.048679,0.001000,0.001000,0.001000,0.001000,0.001000
1009.134615,-0.048926,0.001000,0.001000,0.001000,0.001000,0.001000
1009.153846,-0.049147,0.001000,0.001000,0.001000,0.001000,0.001000
1009.173077,-0.049343,0.001000,0.001000,0.001000,0.001000,0.001000
1009.192308,-0.049514,0.001000,0.001000,0.001000,0.001000,0.001000
1009.211538,-0.049659,0.001000,0.001000,0.001000,0.001000,0.001000
1009.230769,-0.049779,0.001000,0.001000,0.001000,0.001000,0.001000
1009.250000,-0.049873,0.001000,0.001000,0.001000,0.001000,0.001000
1009.269231,-0.049941,0.001000,0.001000,0.001000,0.001000,0.001000
1009.288462,-0.049983,0.001000,0.001000,0.001000,0.001000,0.001000
1009.307692,-0.050000,0.001000,0.001000,0.001000,0.001000,0.001000
1009.326923,-0.049991,0.001000,0.001000,0.001000,0.001000,0.001000
1009.346154,-0.049956,0.001000,0.001000,0.001000,0.001000,0.001000
1009.365385,-0.049895,0.001000,0.001000,0.001000,0.001000,0.001000
1009.384615,-0.049808,0.001000,0.001000,0.001000,0.001000,0.001000
1009.403846,-0.049696,0.001000,0.001000,0.001000,0.001000,0.001000
1009.423077,-0.049558,0.001000,0.001000,0.001000,0.001000,0.001000
1009.442308,-0.049395,0.001000,0.001000,0.001000,0.001000,0.001000
1009.461538,-0.049206,0.001000,0.001000,0.001000,0.001000,0.001000
1009.480769,-0.048992,0.001000,0.001000,0.001000,0.001000,0.001000
1009.500000,-0.048753,0.001000,0.001000,0.001000,0.001000,0.001000
1009.519231,-0.048488,0.001000,0.001000,0.001000,0.001000,0.001000
1009.538462,-0.048198,0.001000,0.001000,0.001000,0.001000,0.001000
1009.557692,-0.047884,0.001000,0.001000,0.001000,0.001000,0.001000
1009.576923,-0.047545,0.001000,0.001000,0.001000,0.001000,0.001000
1009.596154,-0.047181,0.001000,0.001000,0.001000,0.001000,0.001000
1009.615385,-0.046793,0.001000,0.001000,0.001000,0.001000,0.001000
1009.634615,-0.046381,0.001000,0.001000,0.001000,0.001000,0.001000
1009.653846,-0.045945,0.001000,0.001000,0.001000,0.001000,0.001000
1009.673077,-0.045485,0.001000,0.001000,0.001000,0.001000,0.001000
1009.692308,-0.045002,0.001000,0.001000,0.001000,0.001000,0.001000
1009.711538,-0.044495,0.001000,0.001000,0.001000,0.001000,0.001000
1009.730769,-0.043966,0.001000,0.001000,0.001000,0.001000,0.001000
1009.750000,-0.043414,0.001000,0.001000,0.001000,0.001000,0.001000
1009.769231,-0.042839,0.001000,0.001000,0.001000,0.001000,0.001000
1009.788462,-0.042242,0.001000,0.001000,0.001000,0.001000,0.001000
1009.807692,-0.041624,0.001000,0.001000,0.001000,0.001000,0.001000
1009.826923,-0.040984,0.001000,0.001000,0.001000,0.001000,0.001000
1009.846154,-0.040323,0.001000,0.001000,0.001000,0.001000,0.001000
1009.865385,-0.039641,0.001000,0.001000,0.001000,0.001000,0.001000
1009.884615,-0.038939,0.001000,0.001000,0.001000,0.001000,0.001000
1009.903846,-0.038217,0.001000,0.001000,0.001000,0.001000,0.001000
1009.923077,-0.037475,0.001000,0.001000,0.001000,0.001000,0.001000
1009.942308,-0.036714,0.001000,0.001000,0.001000,0.001000,0.001000
1009.961538,-0.035933,0.001000,0.001000,0.001000,0.001000,0.001000
1009.980769,-0.035134,0.001000,0.001000,0.001000,0.001000,0.001000
1010.000000,-0.034317,0.001000,0.001000,0.001000,0.001000,0.001000
1010.019231,-0.033483,0.001000,0.001000,0.001000,0.001000,0.001000
1010.038462,-0.032631,0.001000,0.001000,0.001000,0.001000,0.001000
1010.057692,-0.031762,0.001000,0.001000,0.001000,0.001000,0.001000
1010.076923,-0.030877,0.001000,0.001000,0.001000,0.001000,0.001000
1010.096154,-0.029976,0.001000,0.001000,0.001000,0.001000,0.001000
1010.115385,-0.029059,0.001000,0.001000,0.001000,0.001000,0.001000
1010.134615,-0.028128,0.001000,0.001000,0.001000,0.001000,0.001000
1010.153846,-0.027182,0.001000,0.001000,0.001000,0.001000,0.001000
1010.173077,-0.026222,0.001000,0.001000,0.001000,0.001000,0.001000
1010.192308,-0.025248,0.001000,0.001000,0.001000,0.001000,0.001000
1010.211538,-0.024262,0.001000,0.001000,0.001000,0.001000,0.001000
1010.230769,-0.023263,0.001000,0.001000,0.001000,0.001000,0.001000
1010.250000,-0.022252,0.001000,0.001000,0.001000,0.001000,0.001000
1010.269231,-0.021229,0.001000,0.001000,0.001000,0.001000,0.001000
1010.288462,-0.020196,0.001000,0.001000,0.001000,0.001000,0.001000
1010.307692,-0.019152,0.001000,0.001000,0.001000,0.001000,0.001000
1010.326923,-0.018098,0.001000,0.001000,0.001000,0.001000,0.001000
1010.346154,-0.017035,0.001000,0.001000,0.001000,0.001000,0.001000
1010.365385,-0.015963,0.001000,0.001000,0.001000,0.001000,0.001000
1010.384615,-0.014883,0.001000,0.001000,0.001000,0.001000,0.001000
1010.403846,-0.013795,0.001000,0.001000,0.001000,0.001000,0.001000
1010.423077,-0.012700,0.001000,0.001000,0.001000,0.001000,0.001000
1010.442308,-0.011598,0.001000,0.001000,0.001000,0.001000,0.001000
1010.461538,-0.010491,0.001000,0.001000,0.001000,0.001000,0.001000
1010.480769,-0.009378,0.001000,0.001000,0.001000,0.001000,0.001000
1010.500000,-0.008260,0.001000,0.001000,0.001000,0.001000,0.001000
1010.519231,-0.007138,0.001000,0.001000,0.001000,0.001000,0.001000
1010.538462,-0.006012,0.001000,0.001000,0.001000,0.001000,0.001000
1010.557692,-0.004884,0.001000,0.001000,0.001000,0.001000,0.001000
1010.576923,-0.003752,0.001000,0.001000,0.001000,0.001000,0.001000
1010.596154,-0.002619,0.001000,0.001000,0.001000,0.001000,0.001000
1010.615385,-0.001484,0.001000,0.001000,0.001000,0.001000,0.001000
1010.634615,-0.000349,0.001000,0.001000,0.001000,0.001000,0.001000
1010.653846,0.000786,0.001000,0.001000,0.001000,0.001000,0.001000
1010.673077,0.001922,0.001000,0.001000,0.001000,0.001000,0.001000
1010.692308,0.003056,0.001000,0.001000,0.001000,0.001000,0.001000
1010.711538,0.004188,0.001000,0.001000,0.001000,0.001000,0.001000
1010.730769,0.005319,0.001000,0.001000,0.001000,0.001000,0.001000
1010.750000,0.006446,0.001000,0.001000,0.001000,0.001000,0.001000
1010.769231,0.007571,0.001000,0.001000,0.001000,0.001000,0.001000
1010.788462,0.008691,0.001000,0.001000,0.001000,0.001000,0.001000
1010.807692,0.009807,0.001000,0.001000,0.001000,0.001000,0.001000
1010.826923,0.010918,0.001000,0.001000,0.001000,0.001000,0.001000
1010.846154,0.012023,0.001000,0.001000,0.001000,0.001000,0.001000
1010.865385,0.013122,0.001000,0.001000,0.001000,0.001000,0.001000
1010.884615,0.014214,0.001000,0.001000,0.001000,0.001000,0.001000
1010.903846,0.015299,0.001000,0.001000,0.001000,0.001000,0.001000
1010.923077,0.016376,0.001000,0.001000,0.001000,0.001000,0.001000
1010.942308,0.017445,0.001000,0.001000,0.001000,0.001000,0.001000
1010.961538,0.018505,0.001000,0.001000,0.001000,0.001000,0.001000
1010.980769,0.019555,0.001000,0.001000,0.001000,0.001000,0.001000
1011.000000,0.020595,0.001000,0.001000,0.001000,0.001000,0.001000
1011.019231,0.021624,0.001000,0.001000,0.001000,0.001000,0.001000
1011.038462,0.022642,0.001000,0.001000,0.001000,0.001000,0.001000
1011.057692,0.023649,0.001000,0.001000,0.001000,0.001000,0.001000
1011.076923,0.024643,0.001000,0.001000,0.001000,0.001000,0.001000
1011.096154,0.025625,0.001000,0.001000,0.001000,0.001000,0.001000
1011.115385,0.026593,0.001000,0.001000,0.001000,0.001000,0.001000
1011.134615,0.027548,0.001000,0.001000,0.001000,0.001000,0.001000
1011.153846,0.028488,0.001000,0.001000,0.001000,0.001000,0.001000
1011.173077,0.029414,0.001000,0.001000,0.001000,0.001000,0.001000
1011.192308,0.030325,0.001000,0.001000,0.001000,0.001000,0.001000
1011.211538,0.031220,0.001000,0.001000,0.001000,0.001000,0.001000
1011.230769,0.032099,0.001000,0.001000,0.001000,0.001000,0.001000
1011.250000,0.032961,0.001000,0.001000,0.001000,0.001000,0.001000
1011.269231,0.033806,0.001000,0.001000,0.001000,0.001000,0.001000
1011.288462,0.034634,0.001000,0.001000,0.001000,0.001000,0.001000
1011.307692,0.035444,0.001000,0.001000,0.001000,0.001000,0.001000
1011.326923,0.036236,0.001000,0.001000,0.001000,0.001000,0.001000
1011.346154,0.037009,0.001000,0.001000,0.001000,0.001000,0.001000
1011.365385,0.037763,0.001000,0.001000,0.001000,0.001000,0.001000
1011.384615,0.038497,0.001000,0.001000,0.001000,0.001000,0.001000
1011.403846,0.039212,0.001000,0.001000,0.001000,0.001000,0.001000
1011.423077,0.039906,0.001000,0.001000,0.001000,0.001000,0.001000
1011.442308,0.040580,0.001000,0.001000,0.001000,0.001000,0.001000
1011.461538,0.041233,0.001000,0.001000,0.001000,0.001000,0.001000
1011.480769,0.041865,0.001000,0.001000,0.001000,0.001000,0.001000
1011.500000,0.042475,0.001000,0.001000,0.001000,0.001000,0.001000
1011.519231,0.043063,0.001000,0.001000,0.001000,0.001000,0.001000
1011.538462,0.043629,0.001000,0.001000,0.001000,0.001000,0.001000
1011.557692,0.044172,0.001000,0.001000,0.001000,0.001000,0.001000
1011.576923,0.044693,0.001000,0.001000,0.001000,0.001000,0.001000
1011.596154,0.045190,0.001000,0.001000,0.001000,0.001000,0.001000
1011.615385,0.045665,0.001000,0.001000,0.001000,0.001000,0.001000
1011.634615,0.046115,0.001000,0.001000,0.001000,0.001000,0.001000
1011.653846,0.046542,0.001000,0.001000,0.001000,0.001000,0.001000
1011.673077,0.046945,0.001000,0.001000,0.001000,0.001000,0.001000
1011.692308,0.047324,0.001000,0.001000,0.001000,0.001000,0.001000
1011.711538,0.047678,0.001000,0.001000,0.001000,0.001000,0.001000
1011.730769,0.048008,0.001000,0.001000,0.001000,0.001000,0.001000
1011.750000,0.048313,0.001000,0.001000,0.001000,0.001000,0.001000
1011.769231,0.048593,0.001000,0.001000,0.001000,0.001000,0.001000
1011.788462,0.048848,0.001000,0.001000,0.001000,0.001000,0.001000
1011.807692,0.049078,0.001000,0.001000,0.001000,0.001000,0.001000
1011.826923,0.049282,0.001000,0.001000,0.001000,0.001000,0.001000
1011.846154,0.049461,0.001000,0.001000,0.001000,0.001000,0.001000
1011.865385,0.049615,0.001000,0.001000,0.001000,0.001000,0.001000
1011.884615,0.049742,0.001000,0.001000,0.001000,0.001000,0.001000
1011.903846,0.049845,0.001000,0.001000,0.001000,0.001000,0.001000
1011.923077,0.049921,0.001000,0.001000,0.001000,0.001000,0.001000
1011.942308,0.049972,0.001000,0.001000,0.001000,0.001000,0.001000
1011.961538,0.049997,0.001000,0.001000,0.001000,0.001000,0.001000
1011.980769,0.049996,0.001000,0.001000,0.001000,0.001000,0.001000
1012.000000,0.049970,0.001000,0.001000,0.001000,0.001000,0.001000
1012.019231,0.049918,0.001000,0.001000,0.001000,0.001000,0.001000
1012.038462,0.049839,0.001000,0.001000,0.001000,0.001000,0.001000
1012.057692,0.049736,0.001000,0.001000,0.001000,0.001000,0.001000
1012.076923,0.049606,0.001000,0.001000,0.001000,0.001000,0.001000
1012.096154,0.049451,0.001000,0.001000,0.001000,0.001000,0.001000
1012.115385,0.049271,0.001000,0.001000,0.001000,0.001000,0.001000
1012.134615,0.049065,0.001000,0.001000,0.001000,0.001000,0.001000
1012.153846,0.048834,0.001000,0.001000,0.001000,0.001000,0.001000
1012.173077,0.048577,0.001000,0.001000,0.001000,0.001000,0.001000
1012.192308,0.048296,0.001000,0.001000,0.001000,0.001000,0.001000
1012.211538,0.047989,0.001000,0.001000,0.001000,0.001000,0.001000
1012.230769,0.047658,0.001000,0.001000,0.001000,0.001000,0.001000
1012.250000,0.047303,0.001000,0.001000,0.001000,0.001000,0.001000
1012.269231,0.046922,0.001000,0.001000,0.001000,0.001000,0.001000
1012.288462,0.046518,0.001000,0.001000,0.001000,0.001000,0.001000
1012.307692,0.046090,0.001000,0.001000,0.001000,0.001000,0.001000
1012.326923,0.045638,0.001000,0.001000,0.001000,0.001000,0.001000
1012.346154,0.045162,0.001000,0.001000,0.001000,0.001000,0.001000
1012.365385,0.044663,0.001000,0.001000,0.001000,0.001000,0.001000
1012.384615,0.044141,0.001000,0.001000,0.001000,0.001000,0.001000
1012.403846,0.043596,0.001000,0.001000,0.001000,0.001000,0.001000
1012.423077,0.043029,0.001000,0.001000,0.001000,0.001000,0.001000
1012.442308,0.042440,0.001000,0.001000,0.001000,0.001000,0.001000
1012.461538,0.041829,0.001000,0.001000,0.001000,0.001000,0.001000
1012.480769,0.041196,0.001000,0.001000,0.001000,0.001000,0.001000
1012.500000,0.040542,0.001000,0.001000,0.001000,0.001000,0.001000
1012.519231,0.039867,0.001000,0.001000,0.001000,0.001000,0.001000
1012.538462,0.039171,0.001000,0.001000,0.001000,0.001000,0.001000
1012.557692,0.038455,0.001000,0.001000,0.001000,0.001000,0.001000
1012.576923,0.037720,0.001000,0.001000,0.001000,0.001000,0.001000
1012.596154,0.036965,0.001000,0.001000,0.001000,0.001000,0.001000
1012.615385,0.036190,0.001000,0.001000,0.001000,0.001000,0.001000
1012.634615,0.035398,0.001000,0.001000,0.001000,0.001000,0.001000
1012.653846,0.034586,0.001000,0.001000,0.001000,0.001000,0.001000
1012.673077,0.033758,0.001000,0.001000,0.001000,0.001000,0.001000
1012.692308,0.032911,0.001000,0.001000,0.001000,0.001000,0.001000
1012.711538,0.032048,0.001000,0.001000,0.001000,0.001000,0.001000
1012.730769,0.031168,0.001000,0.001000,0.001000,0.001000,0.001000
1012.750000,0.030272,0.001000,0.001000,0.001000,0.001000,0.001000
1012.769231,0.029361,0.001000,0.001000,0.001000,0.001000,0.001000
1012.788462,0.028434,0.001000,0.001000,0.001000,0.001000,0.001000
1012.807692,0.027493,0.001000,0.001000,0.001000,0.001000,0.001000
1012.826923,0.026537,0.001000,0.001000,0.001000,0.001000,0.001000
1012.846154,0.025568,0.001000,0.001000,0.001000,0.001000,0.001000
1012.865385,0.024586,0.001000,0.001000,0.001000,0.001000,0.001000
1012.884615,0.023591,0.001000,0.001000,0.001000,0.001000,0.001000
1012.903846,0.022583,0.001000,0.001000,0.001000,0.001000,0.001000
1012.923077,0.021565,0.001000,0.001000,0.001000,0.001000,0.001000
1012.942308,0.020535,0.001000,0.001000,0.001000,0.001000,0.001000
1012.961538,0.019494,0.001000,0.001000,0.001000,0.001000,0.001000
1012.980769,0.018443,0.001000,0.001000,0.001000,0.001000,0.001000
1013.000000,0.017383,0.001000,0.001000,0.001000,0.001000,0.001000
1013.019231,0.016314,0.001000,0.001000,0.001000,0.001000,0.001000
1013.038462,0.015236,0.001000,0.001000,0.001000,0.001000,0.001000
1013.057692,0.014151,0.001000,0.001000,0.001000,0.001000,0.001000
1013.076923,0.013058,0.001000,0.001000,0.001000,0.001000,0.001000
1013.096154,0.011959,0.001000,0.001000,0.001000,0.001000,0.001000
1013.115385,0.010853,0.001000,0.001000,0.001000,0.001000,0.001000
1013.134615,0.009742,0.001000,0.001000,0.001000,0.001000,0.001000
1013.153846,0.008626,0.001000,0.001000,0.001000,0.001000,0.001000
1013.173077,0.007505,0.001000,0.001000,0.001000,0.001000,0.001000
1013.192308,0.006381,0.001000,0.001000,0.001000,0.001000,0.001000
1013.211538,0.005253,0.001000,0.001000,0.001000,0.001000,0.001000
1013.230769,0.004122,0.001000,0.001000,0.001000,0.001000,0.001000
1013.250000,0.002990,0.001000,0.001000,0.001000,0.001000,0.001000
1013.269231,0.001855,0.001000,0.001000,0.001000,0.001000,0.001000
1013.288462,0.000720,0.001000,0.001000,0.001000,0.001000,0.001000
1013.307692,-0.000415,0.001000,0.001000,0.001000,0.001000,0.001000
1013.326923,-0.001551,0.001000,0.001000,0.001000,0.001000,0.001000
1013.346154,-0.002685,0.001000,0.001000,0.001000,0.001000,0.001000
1013.365385,-0.003818,0.001000,0.001000,0.001000,0.001000,0.001000
1013.384615,-0.004949,0.001000,0.001000,0.001000,0.001000,0.001000
1013.403846,-0.006078,0.001000,0.001000,0.001000,0.001000,0.001000
1013.423077,-0.007204,0.001000,0.001000,0.001000,0.001000,0.001000
1013.442308,-0.008325,0.001000,0.001000,0.001000,0.001000,0.001000
1013.461538,-0.009443,0.001000,0.001000,0.001000,0.001000,0.001000
1013.480769,-0.010555,0.001000,0.001000,0.001000,0.001000,0.001000
1013.500000,-0.011663,0.001000,0.001000,0.001000,0.001000,0.001000
1013.519231,-0.012764,0.001000,0.001000,0.001000,0.001000,0.001000
1013.538462,-0.013858,0.001000,0.001000,0.001000,0.001000,0.001000
1013.557692,-0.014946,0.001000,0.001000,0.001000,0.001000,0.001000
1013.576923,-0.016025,0.001000,0.001000,0.001000,0.001000,0.001000
1013.596154,-0.017097,0.001000,0.001000,0.001000,0.001000,0.001000
1013.615385,-0.018159,0.001000,0.001000,0.001000,0.001000,0.001000
1013.634615,-0.019213,0.001000,0.001000,0.001000,0.001000,0.001000
1013.653846,-0.020256,0.001000,0.001000,0.001000,0.001000,0.001000
1013.673077,-0.021289,0.001000,0.001000,0.001000,0.001000,0.001000
1013.692308,-0.022311,0.001000,0.001000,0.001000,0.001000,0.001000
1013.711538,-0.023321,0.001000,0.001000,0.001000,0.001000,0.001000
1013.730769,-0.024320,0.001000,0.001000,0.001000,0.001000,0.001000
1013.750000,-0.025305,0.001000,0.001000,0.001000,0.001000,0.001000
1013.769231,-0.026278,0.001000,0.001000,0.001000,0.001000,0.001000
1013.788462,-0.027237,0.001000,0.001000,0.001000,0.001000,0.001000
1013.807692,-0.028183,0.001000,0.001000,0.001000,0.001000,0.001000
1013.826923,-0.029113,0.001000,0.001000,0.001000,0.001000,0.001000
1013.846154,-0.030029,0.001000,0.001000,0.001000,0.001000,0.001000
1013.865385,-0.030929,0.001000,0.001000,0.001000,0.001000,0.001000
1013.884615,-0.031813,0.001000,0.001000,0.001000,0.001000,0.001000
1013.903846,-0.032681,0.001000,0.001000,0.001000,0.001000,0.001000
1013.923077,-0.033532,0.001000,0.001000,0.001000,0.001000,0.001000
1013.942308,-0.034366,0.001000,0.001000,0.001000,0.001000,0.001000
1013.961538,-0.035181,0.001000,0.001000,0.001000,0.001000,0.001000
1013.980769,-0.035979,0.001000,0.001000,0.001000,0.001000,0.001000
1014.000000,-0.036758,0.001000,0.001000,0.001000,0.001000,0.001000
1014.019231,-0.037519,0.001000,0.001000,0.001000,0.001000,0.001000
1014.038462,-0.038260,0.001000,0.001000,0.001000,0.001000,0.001000
1014.057692,-0.038981,0.001000,0.001000,0.001000,0.001000,0.001000
1014.076923,-0.039682,0.001000,0.001000,0.001000,0.001000,0.001000
1014.096154,-0.040362,0.001000,0.001000,0.001000,0.001000,0.001000
1014.115385,-0.041022,0.001000,0.001000,0.001000,0.001000,0.001000
1014.134615,-0.041661,0.001000,0.001000,0.001000,0.001000,0.001000
1014.153846,-0.042278,0.001000,0.001000,0.001000,0.001000,0.001000
1014.173077,-0.042873,0.001000,0.001000,0.001000,0.001000,0.001000
1014.192308,-0.043446,0.001000,0.001000,0.001000,0.001000,0.001000
1014.211538,-0.043997,0.001000,0.001000,0.001000,0.001000,0.001000
1014.230769,-0.044525,0.001000,0.001000,0.001000,0.001000,0.001000
1014.250000,-0.045030,0.001000,0.001000,0.001000,0.001000,0.001000
1014.269231,-0.045512,0.001000,0.001000,0.001000,0.001000,0.001000
1014.288462,-0.045971,0.001000,0.001000,0.001000,0.001000,0.001000
1014.307692,-0.046405,0.001000,0.001000,0.001000,0.001000,0.001000
1014.326923,-0.046816,0.001000,0.001000,0.001000,0.001000,0.001000
1014.346154,-0.047203,0.001000,0.001000,0.001000,0.001000,0.001000
1014.365385,-0.047565,0.001000,0.001000,0.001000,0.001000,0.001000
1014.384615,-0.047903,0.001000,0.001000,0.001000,0.001000,0.001000
1014.403846,-0.048216,0.001000,0.001000,0.001000,0.001000,0.001000
1014.423077,-0.048504,0.001000,0.001000,0.001000,0.001000,0.001000
1014.442308,-0.048767,0.001000,0.001000,0.001000,0.001000,0.001000
1014.461538,-0.049005,0.001000,0.001000,0.001000,0.001000,0.001000
1014.480769,-0.049218,0.001000,0.001000,0.001000,0.001000,0.001000
1014.500000,-0.049405,0.001000,0.001000,0.001000,0.001000,0.001000
1014.519231,-0.049567,0.001000,0.001000,0.001000,0.001000,0.001000
1014.538462,-0.049703,0.001000,0.001000,0.001000,0.001000,0.001000
1014.557692,-0.049814,0.001000,0.001000,0.001000,0.001000,0.001000
1014.576923,-0.049899,0.001000,0.001000,0.001000,0.001000,0.001000
1014.596154,-0.049958,0.001000,0.001000,0.001000,0.001000,0.001000
1014.615385,-0.049992,0.001000,0.001000,0.001000,0.001000,0.001000
1014.634615,-0.049999,0.001000,0.001000,0.001000,0.001000,0.001000
1014.653846,-0.049981,0.001000,0.001000,0.001000,0.001000,0.001000
1014.673077,-0.049937,0.001000,0.001000,0.001000,0.001000,0.001000
1014.692308,-0.049868,0.001000,0.001000,0.001000,0.001000,0.001000
1014.711538,-0.049772,0.001000,0.001000,0.001000,0.001000,0.001000
1014.730769,-0.049651,0.001000,0.001000,0.001000,0.001000,0.001000
1014.750000,-0.049505,0.001000,0.001000,0.001000,0.001000,0.001000
1014.769231,-0.049333,0.001000,0.001000,0.001000,0.001000,0.001000
1014.788462,-0.049135,0.001000,0.001000,0.001000,0.001000,0.001000
1014.807692,-0.048912,0.001000,0.001000,0.001000,0.001000,0.001000
1014.826923,-0.048664,0.001000,0.001000,0.001000,0.001000,0.001000
1014.846154,-0.048390,0.001000,0.001000,0.001000,0.001000,0.001000
1014.865385,-0.048092,0.001000,0.001000,0.001000,0.001000,0.001000
1014.884615,-0.047769,0.001000,0.001000,0.001000,0.001000,0.001000
1014.903846,-0.047421,0.001000,0.001000,0.001000,0.001000,0.001000
1014.923077,-0.047049,0.001000,0.001000,0.001000,0.001000,0.001000
1014.942308,-0.046653,0.001000,0.001000,0.001000,0.001000,0.001000
1014.961538,-0.046232,0.001000,0.001000,0.001000,0.001000,0.001000
1014.980769,-0.045788,0.001000,0.001000,0.001000,0.001000,0.001000
1015.000000,-0.045320,0.001000,0.001000,0.001000,0.001000,0.001000
1015.019231,-0.044829,0.001000,0.001000,0.001000,0.001000,0.001000
1015.038462,-0.044314,0.001000,0.001000,0.001000,0.001000,0.001000
1015.057692,-0.043777,0.001000,0.001000,0.001000,0.001000,0.001000
1015.076923,-0.043217,0.001000,0.001000,0.001000,0.001000,0.001000
1015.096154,-0.042635,0.001000,0.001000,0.001000,0.001000,0.001000
1015.115385,-0.042031,0.001000,0.001000,0.001000,0.001000,0.001000
1015.134615,-0.041405,0.001000,0.001000,0.001000,0.001000,0.001000
1015.153846,-0.040758,0.001000,0.001000,0.001000,0.001000,0.001000
1015.173077,-0.040089,0.001000,0.001000,0.001000,0.001000,0.001000
1015.192308,-0.039401,0.001000,0.001000,0.001000,0.001000,0.001000
1015.211538,-0.038691,0.001000,0.001000,0.001000,0.001000,0.001000
1015.230769,-0.037962,0.001000,0.001000,0.001000,0.001000,0.001000
1015.250000,-0.037213,0.001000,0.001000,0.001000,0.001000,0.001000
1015.269231,-0.036445,0.001000,0.001000,0.001000,0.001000,0.001000
1015.288462,-0.035659,0.001000,0.001000,0.001000,0.001000,0.001000
1015.307692,-0.034854,0.001000,0.001000,0.001000,0.001000,0.001000
1015.326923,-0.034030,0.001000,0.001000,0.001000,0.001000,0.001000
1015.346154,-0.033190,0.001000,0.001000,0.001000,0.001000,0.001000
1015.365385,-0.032332,0.001000,0.001000,0.001000,0.001000,0.001000
1015.384615,-0.031458,0.001000,0.001000,0.001000,0.001000,0.001000
1015.403846,-0.030567,0.001000,0.001000,0.001000,0.001000,0.001000
1015.423077,-0.029660,0.001000,0.001000,0.001000,0.001000,0.001000
1015.442308,-0.028739,0.001000,0.001000,0.001000,0.001000,0.001000
1015.461538,-0.027802,0.001000,0.001000,0.001000,0.001000,0.001000
1015.480769,-0.026851,0.001000,0.001000,0.001000,0.001000,0.001000
1015.500000,-0.025886,0.001000,0.001000,0.001000,0.001000,0.001000
1015.519231,-0.024908,0.001000,0.001000,0.001000,0.001000,0.001000
1015.538462,-0.023917,0.001000,0.001000,0.001000,0.001000,0.001000
1015.557692,-0.022914,0.001000,0.001000,0.001000,0.001000,0.001000
1015.576923,-0.021899,0.001000,0.001000,0.001000,0.001000,0.001000
1015.596154,-0.020872,0.001000,0.001000,0.001000,0.001000,0.001000
1015.615385,-0.019835,0.001000,0.001000,0.001000,0.001000,0.001000
1015.634615,-0.018788,0.001000,0.001000,0.001000,0.001000,0.001000
1015.653846,-0.017731,0.001000,0.001000,0.001000,0.001000,0.001000
1015.673077,-0.016664,0.001000,0.001000,0.001000,0.001000,0.001000
1015.692308,-0.015590,0.001000,0.001000,0.001000,0.001000,0.001000
1015.711538,-0.014507,0.001000,0.001000,0.001000,0.001000,0.001000
1015.730769,-0.013416,0.001000,0.001000,0.001000,0.001000,0.001000
1015.750000,-0.012319,0.001000,0.001000,0.001000,0.001000,0.001000
1015.769231,-0.011215,0.001000,0.001000,0.001000,0.001000,0.001000
1015.788462,-0.010106,0.001000,0.001000,0.001000,0.001000,0.001000
1015.807692,-0.008991,0.001000,0.001000,0.001000,0.001000,0.001000
1015.826923,-0.007872,0.001000,0.001000,0.001000,0.001000,0.001000
1015.846154,-0.006749,0.001000,0.001000,0.001000,0.001000,0.001000
1015.865385,-0.005622,0.001000,0.001000,0.001000,0.001000,0.001000
1015.884615,-0.004492,0.001000,0.001000,0.001000,0.001000,0.001000
1015.903846,-0.003360,0.001000,0.001000,0.001000,0.001000,0.001000
1015.923077,-0.002226,0.001000,0.001000,0.001000,0.001000,0.001000
1015.942308,-0.001091,0.001000,0.001000,0.001000,0.001000,0.001000
1015.961538,0.000044,0.001000,0.001000,0.001000,0.001000,0.001000
1015.980769,0.001180,0.001000,0.001000,0.001000,0.001000,0.001000
1016.000000,0.002314,0.001000,0.001000,0.001000,0.001000,0.001000
1016.019231,0.003448,0.001000,0.001000,0.001000,0.001000,0.001000
1016.038462,0.004580,0.001000,0.001000,0.001000,0.001000,0.001000
1016.057692,0.005709,0.001000,0.001000,0.001000,0.001000,0.001000
1016.076923,0.006836,0.001000,0.001000,0.001000,0.001000,0.001000
1016.096154,0.007959,0.001000,0.001000,0.001000,0.001000,0.001000
1016.115385,0.009078,0.001000,0.001000,0.001000,0.001000,0.001000
1016.134615,0.010192,0.001000,0.001000,0.001000,0.001000,0.001000
1016.153846,0.011301,0.001000,0.001000,0.001000,0.001000,0.001000
1016.173077,0.012404,0.001000,0.001000,0.001000,0.001000,0.001000
1016.192308,0.013501,0.001000,0.001000,0.001000,0.001000,0.001000
1016.211538,0.014591,0.001000,0.001000,0.001000,0.001000,0.001000
1016.230769,0.015673,0.001000,0.001000,0.001000,0.001000,0.001000
1016.250000,0.016748,0.001000,0.001000,0.001000,0.001000,0.001000
1016.269231,0.017813,0.001000,0.001000,0.001000,0.001000,0.001000
1016.288462,0.018869,0.001000,0.001000,0.001000,0.001000,0.001000
1016.307692,0.019916,0.001000,0.001000,0.001000,0.001000,0.001000
1016.326923,0.020952,0.001000,0.001000,0.001000,0.001000,0.001000
1016.346154,0.021978,0.001000,0.001000,0.001000,0.001000,0.001000
1016.365385,0.022992,0.001000,0.001000,0.001000,0.001000,0.001000
1016.384615,0.023995,0.001000,0.001000,0.001000,0.001000,0.001000
1016.403846,0.024985,0.001000,0.001000,0.001000,0.001000,0.001000
1016.423077,0.025962,0.001000,0.001000,0.001000,0.001000,0.001000
1016.442308,0.026925,0.001000,0.001000,0.001000,0.001000,0.001000
1016.461538,0.027875,0.001000,0.001000,0.001000,0.001000,0.001000
1016.480769,0.028811,0.001000,0.001000,0.001000,0.001000,0.001000
1016.500000,0.029731,0.001000,0.001000,0.001000,0.001000,0.001000
1016.519231,0.030637,0.001000,0.001000,0.001000,0.001000,0.001000
1016.538462,0.031526,0.001000,0.001000,0.001000,0.001000,0.001000
1016.557692,0.032399,0.001000,0.001000,0.001000,0.001000,0.001000
1016.576923,0.033256,0.001000,0.001000,0.001000,0.001000,0.001000
1016.596154,0.034095,0.001000,0.001000,0.001000,0.001000,0.001000
1016.615385,0.034917,0.001000,0.001000,0.001000,0.001000,0.001000
1016.634615,0.035720,0.001000,0.001000,0.001000,0.001000,0.001000
1016.653846,0.036506,0.001000,0.001000,0.001000,0.001000,0.001000
1016.673077,0.037272,0.001000,0.001000,0.001000,0.001000,0.001000
1016.692308,0.038020,0.001000,0.001000,0.001000,0.001000,0.001000
1016.711538,0.038747,0.001000,0.001000,0.001000,0.001000,0.001000
1016.730769,0.039455,0.001000,0.001000,0.001000,0.001000,0.001000
1016.750000,0.040142,0.001000,0.001000,0.001000,0.001000,0.001000
1016.769231,0.040809,0.001000,0.001000,0.001000,0.001000,0.001000
1016.788462,0.041454,0.001000,0.001000,0.001000,0.001000,0.001000
1016.807692,0.042078,0.001000,0.001000,0.001000,0.001000,0.001000
1016.826923,0.042681,0.001000,0.001000,0.001000,0.001000,0.001000
1016.846154,0.043261,0.001000,0.001000,0.001000,0.001000,0.001000
1016.865385,0.043820,0.001000,0.001000,0.001000,0.001000,0.001000
1016.884615,0.044355,0.001000,0.001000,0.001000,0.001000,0.001000
1016.903846,0.044868,0.001000,0.001000,0.001000,0.001000,0.001000
1016.923077,0.045357,0.001000,0.001000,0.001000,0.001000,0.001000
1016.942308,0.045823,0.001000,0.001000,0.001000,0.001000,0.001000
1016.961538,0.046266,0.001000,0.001000,0.001000,0.001000,0.001000
1016.980769,0.046685,0.001000,0.001000,0.001000,0.001000,0.001000
1017.000000,0.047079,0.001000,0.001000,0.001000,0.001000,0.001000
1017.019231,0.047449,0.001000,0.001000,0.001000,0.001000,0.001000
1017.038462,0.047795,0.001000,0.001000,0.001000,0.001000,0.001000
1017.057692,0.048116,0.001000,0.001000,0.001000,0.001000,0.001000
1017.076923,0.048413,0.001000,0.001000,0.001000,0.001000,0.001000
1017.096154,0.048684,0.001000,0.001000,0.001000,0.001000,0.001000
1017.115385,0.048930,0.001000,0.001000,0.001000,0.001000,0.001000
1017.134615,0.049151,0.001000,0.001000,0.001000,0.001000,0.001000
1017.153846,0.049347,0.001000,0.001000,0.001000,0.001000,0.001000
1017.173077,0.049517,0.001000,0.001000,0.001000,0.001000,0.001000
1017.192308,0.049662,0.001000,0.001000,0.001000,0.001000,0.001000
1017.211538,0.049781,0.001000,0.001000,0.001000,0.001000,0.001000
1017.230769,0.049874,0.001000,0.001000,0.001000,0.001000,0.001000
1017.250000,0.049942,0.001000,0.001000,0.001000,0.001000,0.001000
1017.269231,0.049984,0.001000,0.001000,0.001000,0.001000,0.001000
1017.288462,0.050000,0.001000,0.001000,0.001000,0.001000,0.001000
1017.307692,0.049990,0.001000,0.001000,0.001000,0.001000,0.001000
1017.326923,0.049955,0.001000,0.001000,0.001000,0.001000,0.001000
1017.346154,0.049893,0.001000,0.001000,0.001000,0.001000,0.001000
1017.365385,0.049806,0.001000,0.001000,0.001000,0.001000,0.001000
1017.384615,0.049694,0.001000,0.001000,0.001000,0.001000,0.001000
1017.403846,0.049556,0.001000,0.001000,0.001000,0.001000,0.001000
1017.423077,0.049392,0.001000,0.001000,0.001000,0.001000,0.001000
1017.442308,0.049202,0.001000,0.001000,0.001000,0.001000,0.001000
1017.461538,0.048988,0.001000,0.001000,0.001000,0.001000,0.001000
1017.480769,0.048748,0.001000,0.001000,0.001000,0.001000,0.001000
1017.500000,0.048483,0.001000,0.001000,0.001000,0.001000,0.001000
1017.519231,0.048192,0.001000,0.001000,0.001000,0.001000,0.001000
1017.538462,0.047877,0.001000,0.001000,0.001000,0.001000,0.001000
1017.557692,0.047538,0.001000,0.001000,0.001000,0.001000,0.001000
1017.576923,0.047174,0.001000,0.001000,0.001000,0.001000,0.001000
1017.596154,0.046785,0.001000,0.001000,0.001000,0.001000,0.001000
1017.615385,0.046372,0.001000,0.001000,0.001000,0.001000,0.001000
1017.634615,0.045936,0.001000,0.001000,0.001000,0.001000,0.001000
1017.653846,0.045476,0.001000,0.001000,0.001000,0.001000,0.001000
1017.673077,0.044992,0.001000,0.001000,0.001000,0.001000,0.001000
1017.692308,0.044485,0.001000,0.001000,0.001000,0.001000,0.001000
1017.711538,0.043955,0.001000,0.001000,0.001000,0.001000,0.001000
1017.730769,0.043403,0.001000,0.001000,0.001000,0.001000,0.001000
1017.750000,0.042828,0.001000,0.001000,0.001000,0.001000,0.001000
1017.769231,0.042231,0.001000,0.001000,0.001000,0.001000,0.001000
1017.788462,0.041612,0.001000,0.001000,0.001000,0.001000,0.001000
1017.807692,0.040972,0.001000,0.001000,0.001000,0.001000,0.001000
1017.826923,0.040310,0.001000,0.001000,0.001000,0.001000,0.001000
1017.846154,0.039628,0.001000,0.001000,0.001000,0.001000,0.001000
1017.865385,0.038925,0.001000,0.001000,0.001000,0.001000,0.001000
1017.884615,0.038203,0.001000,0.001000,0.001000,0.001000,0.001000
1017.903846,0.037460,0.001000,0.001000,0.001000,0.001000,0.001000
1017.923077,0.036699,0.001000,0.001000,0.001000,0.001000,0.001000
1017.942308,0.035918,0.001000,0.001000,0.001000,0.001000,0.001000
1017.961538,0.035119,0.001000,0.001000,0.001000,0.001000,0.001000
1017.980769,0.034301,0.001000,0.001000,0.001000,0.001000,0.001000
1018.000000,0.033466,0.001000,0.001000,0.001000,0.001000,0.001000
1018.019231,0.032614,0.001000,0.001000,0.001000,0.001000,0.001000
1018.038462,0.031745,0.001000,0.001000,0.001000,0.001000,0.001000
1018.057692,0.030860,0.001000,0.001000,0.001000,0.001000,0.001000
1018.076923,0.029958,0.001000,0.001000,0.001000,0.001000,0.001000
1018.096154,0.029042,0.001000,0.001000,0.001000,0.001000,0.001000
1018.115385,0.028110,0.001000,0.001000,0.001000,0.001000,0.001000
1018.134615,0.027163,0.001000,0.001000,0.001000,0.001000,0.001000
1018.153846,0.026203,0.001000,0.001000,0.001000,0.001000,0.001000
1018.173077,0.025229,0.001000,0.001000,0.001000,0.001000,0.001000
1018.192308,0.024243,0.001000,0.001000,0.001000,0.001000,0.001000
1018.211538,0.023243,0.001000,0.001000,0.001000,0.001000,0.001000
1018.230769,0.022232,0.001000,0.001000,0.001000,0.001000,0.001000
1018.250000,0.021209,0.001000,0.001000,0.001000,0.001000,0.001000
1018.269231,0.020175,0.001000,0.001000,0.001000,0.001000,0.001000
1018.288462,0.019131,0.001000,0.001000,0.001000,0.001000,0.001000
1018.307692,0.018077,0.001000,0.001000,0.001000,0.001000,0.001000
1018.326923,0.017014,0.001000,0.001000,0.001000,0.001000,0.001000
1018.346154,0.015942,0.001000,0.001000,0.001000,0.001000,0.001000
1018.365385,0.014861,0.001000,0.001000,0.001000,0.001000,0.001000
1018.384615,0.013773,0.001000,0.001000,0.001000,0.001000,0.001000
1018.403846,0.012678,0.001000,0.001000,0.001000,0.001000,0.001000
1018.423077,0.011577,0.001000,0.001000,0.001000,0.001000,0.001000
1018.442308,0.010469,0.001000,0.001000,0.001000,0.001000,0.001000
1018.461538,0.009356,0.001000,0.001000,0.001000,0.001000,0.001000
1018.480769,0.008238,0.001000,0.001000,0.001000,0.001000,0.001000
1018.500000,0.007116,0.001000,0.001000,0.001000,0.001000,0.001000
1018.519231,0.005991,0.001000,0.001000,0.001000,0.001000,0.001000
1018.538462,0.004862,0.001000,0.001000,0.001000,0.001000,0.001000
1018.557692,0.003730,0.001000,0.001000,0.001000,0.001000,0.001000
1018.576923,0.002597,0.001000,0.001000,0.001000,0.001000,0.001000
1018.596154,0.001462,0.001000,0.001000,0.001000,0.001000,0.001000
1018.615385,0.000327,0.001000,0.001000,0.001000,0.001000,0.001000
1018.634615,-0.000808,0.001000,0.001000,0.001000,0.001000,0.001000
1018.653846,-0.001944,0.001000,0.001000,0.001000,0.001000,0.001000
1018.673077,-0.003078,0.001000,0.001000,0.001000,0.001000,0.001000
1018.692308,-0.004210,0.001000,0.001000,0.001000,0.001000,0.001000
1018.711538,-0.005341,0.001000,0.001000,0.001000,0.001000,0.001000
1018.730769,-0.006468,0.001000,0.001000,0.001000,0.001000,0.001000
1018.750000,-0.007592,0.001000,0.001000,0.001000,0.001000,0.001000
1018.769231,-0.008713,0.001000,0.001000,0.001000,0.001000,0.001000
1018.788462,-0.009829,0.001000,0.001000,0.001000,0.001000,0.001000
1018.807692,-0.010939,0.001000,0.001000,0.001000,0.001000,0.001000
1018.826923,-0.012045,0.001000,0.001000,0.001000,0.001000,0.001000
1018.846154,-0.013143,0.001000,0.001000,0.001000,0.001000,0.001000
1018.865385,-0.014236,0.001000,0.001000,0.001000,0.001000,0.001000
1018.884615,-0.015320,0.001000,0.001000,0.001000,0.001000,0.001000
1018.903846,-0.016397,0.001000,0.001000,0.001000,0.001000,0.001000
1018.923077,-0.017466,0.001000,0.001000,0.001000,0.001000,0.001000
1018.942308,-0.018525,0.001000,0.001000,0.001000,0.001000,0.001000
1018.961538,-0.019575,0.001000,0.001000,0.001000,0.001000,0.001000
1018.980769,-0.020615,0.001000,0.001000,0.001000,0.001000,0.001000
1019.000000,-0.021644,0.001000,0.001000,0.001000,0.001000,0.001000
1019.019231,-0.022662,0.001000,0.001000,0.001000,0.001000,0.001000
1019.038462,-0.023668,0.001000,0.001000,0.001000,0.001000,0.001000
1019.057692,-0.024662,0.001000,0.001000,0.001000,0.001000,0.001000
1019.076923,-0.025644,0.001000,0.001000,0.001000,0.001000,0.001000
1019.096154,-0.026612,0.001000,0.001000,0.001000,0.001000,0.001000
1019.115385,-0.027566,0.001000,0.001000,0.001000,0.001000,0.001000
1019.134615,-0.028507,0.001000,0.001000,0.001000,0.001000,0.001000
1019.153846,-0.029432,0.001000,0.001000,0.001000,0.001000,0.001000
1019.173077,-0.030342,0.001000,0.001000,0.001000,0.001000,0.001000
1019.192308,-0.031237,0.001000,0.001000,0.001000,0.001000,0.001000
1019.211538,-0.032116,0.001000,0.001000,0.001000,0.001000,0.001000
1019.230769,-0.032978,0.001000,0.001000,0.001000,0.001000,0.001000
1019.250000,-0.033823,0.001000,0.001000,0.001000,0.001000,0.001000
1019.269231,-0.034650,0.001000,0.001000,0.001000,0.001000,0.001000
1019.288462,-0.035460,0.001000,0.001000,0.001000,0.001000,0.001000
1019.307692,-0.036251,0.001000,0.001000,0.001000,0.001000,0.001000
1019.326923,-0.037024,0.001000,0.001000,0.001000,0.001000,0.001000
1019.346154,-0.037777,0.001000,0.001000,0.001000,0.001000,0.001000
1019.365385,-0.038512,0.001000,0.001000,0.001000,0.001000,0.001000
1019.384615,-0.039226,0.001000,0.001000,0.001000,0.001000,0.001000
1019.403846,-0.039920,0.001000,0.001000,0.001000,0.001000,0.001000
1019.423077,-0.040593,0.001000,0.001000,0.001000,0.001000,0.001000
1019.442308,-0.041246,0.001000,0.001000,0.001000,0.001000,0.001000
1019.461538,-0.041877,0.001000,0.001000,0.001000,0.001000,0.001000
1019.480769,-0.042486,0.001000,0.001000,0.001000,0.001000,0.001000
1019.500000,-0.043074,0.001000,0.001000,0.001000,0.001000,0.001000
1019.519231,-0.043640,0.001000,0.001000,0.001000,0.001000,0.001000
1019.538462,-0.044183,0.001000,0.001000,0.001000,0.001000,0.001000
1019.557692,-0.044703,0.001000,0.001000,0.001000,0.001000,0.001000
1019.576923,-0.045200,0.001000,0.001000,0.001000,0.001000,0.001000
1019.596154,-0.045674,0.001000,0.001000,0.001000,0.001000,0.001000
1019.615385,-0.046124,0.001000,0.001000,0.001000,0.001000,0.001000
1019.634615,-0.046550,0.001000,0.001000,0.001000,0.001000,0.001000
1019.653846,-0.046953,0.001000,0.001000,0.001000,0.001000,0.001000
1019.673077,-0.047331,0.001000,0.001000,0.001000,0.001000,0.001000
1019.692308,-0.047685,0.001000,0.001000,0.001000,0.001000,0.001000
1019.711538,-0.048014,0.001000,0.001000,0.001000,0.001000,0.001000
1019.730769,-0.048318,0.001000,0.001000,0.001000,0.001000,0.001000
1019.750000,-0.048598,0.001000,0.001000,0.001000,0.001000,0.001000
1019.769231,-0.048852,0.001000,0.001000,0.001000,0.001000,0.001000
1019.788462,-0.049082,0.001000,0.001000,0.001000,0.001000,0.001000
1019.807692,-0.049286,0.001000,0.001000,0.001000,0.001000,0.001000
1019.826923,-0.049464,0.001000,0.001000,0.001000,0.001000,0.001000
1019.846154,-0.049617,0.001000,0.001000,0.001000,0.001000,0.001000
1019.865385,-0.049745,0.001000,0.001000,0.001000,0.001000,0.001000
1019.884615,-0.049846,0.001000,0.001000,0.001000,0.001000,0.001000
1019.903846,-0.049923,0.001000,0.001000,0.001000,0.001000,0.001000
1019.923077,-0.049973,0.001000,0.001000,0.001000,0.001000,0.001000
1019.942308,-0.049997,0.001000,0.001000,0.001000,0.001000,0.001000
1019.961538,-0.049996,0.001000,0.001000,0.001000,0.001000,0.001000
1019.980769,-0.049969,0.001000,0.001000,0.001000,0.001000,0.001000
1020.000000,-0.049916,0.001000,0.001000,0.001000,0.001000,0.001000
1020.019231,-0.049838,0.001000,0.001000,0.001000,0.001000,0.001000
1020.038462,-0.049733,0.001000,0.001000,0.001000,0.001000,0.001000
1020.057692,-0.049604,0.001000,0.001000,0.001000,0.001000,0.001000
1020.076923,-0.049448,0.001000,0.001000,0.001000,0.001000,0.001000
1020.096154,-0.049267,0.001000,0.001000,0.001000,0.001000,0.001000
1020.115385,-0.049061,0.001000,0.001000,0.001000,0.001000,0.001000
1020.134615,-0.048829,0.001000,0.001000,0.001000,0.001000,0.001000
1020.153846,-0.048572,0.001000,0.001000,0.001000,0.001000,0.001000
1020.173077,-0.048290,0.001000,0.001000,0.001000,0.001000,0.001000
1020.192308,-0.047983,0.001000,0.001000,0.001000,0.001000,0.001000
1020.211538,-0.047652,0.001000,0.001000,0.001000,0.001000,0.001000
1020.230769,-0.047295,0.001000,0.001000,0.001000,0.001000,0.001000
1020.250000,-0.046915,0.001000,0.001000,0.001000,0.001000,0.001000
1020.269231,-0.046510,0.001000,0.001000,0.001000,0.001000,0.001000
1020.288462,-0.046081,0.001000,0.001000,0.001000,0.001000,0.001000
1020.307692,-0.045629,0.001000,0.001000,0.001000,0.001000,0.001000
1020.326923,-0.045153,0.001000,0.001000,0.001000,0.001000,0.001000
1020.346154,-0.044653,0.001000,0.001000,0.001000,0.001000,0.001000
1020.365385,-0.044131,0.001000,0.001000,0.001000,0.001000,0.001000
1020.384615,-0.043586,0.001000,0.001000,0.001000,0.001000,0.001000
1020.403846,-0.043018,0.001000,0.001000,0.001000,0.001000,0.001000
1020.423077,-0.042428,0.001000,0.001000,0.001000,0.001000,0.001000
1020.442308,-0.041816,0.001000,0.001000,0.001000,0.001000,0.001000
1020.461538,-0.041183,0.001000,0.001000,0.001000,0.001000,0.001000
1020.480769,-0.040529,0.001000,0.001000,0.001000,0.001000,0.001000
1020.500000,-0.039853,0.001000,0.001000,0.001000,0.001000,0.001000
1020.519231,-0.039157,0.001000,0.001000,0.001000,0.001000,0.001000
1020.538462,-0.038441,0.001000,0.001000,0.001000,0.001000,0.001000
1020.557692,-0.037705,0.001000,0.001000,0.001000,0.001000,0.001000
1020.576923,-0.036950,0.001000,0.001000,0.001000,0.001000,0.001000
1020.596154,-0.036175,0.001000,0.001000,0.001000,0.001000,0.001000
1020.615385,-0.035382,0.001000,0.001000,0.001000,0.001000,0.001000
1020.634615,-0.034571,0.001000,0.001000,0.001000,0.001000,0.001000
1020.653846,-0.033741,0.001000,0.001000,0.001000,0.001000,0.001000
1020.673077,-0.032895,0.001000,0.001000,0.001000,0.001000,0.001000
1020.692308,-0.032031,0.001000,0.001000,0.001000,0.001000,0.001000
1020.711538,-0.031151,0.001000,0.001000,0.001000,0.001000,0.001000
1020.730769,-0.030255,0.001000,0.001000,0.001000,0.001000,0.001000
1020.750000,-0.029343,0.001000,0.001000,0.001000,0.001000,0.001000
1020.769231,-0.028416,0.001000,0.001000,0.001000,0.001000,0.001000
1020.788462,-0.027474,0.001000,0.001000,0.001000,0.001000,0.001000
1020.807692,-0.026519,0.001000,0.001000,0.001000,0.001000,0.001000
1020.826923,-0.025549,0.001000,0.001000,0.001000,0.001000,0.001000
1020.846154,-0.024566,0.001000,0.001000,0.001000,0.001000,0.001000
1020.865385,-0.023571,0.001000,0.001000,0.001000,0.001000,0.001000
1020.884615,-0.022564,0.001000,0.001000,0.001000,0.001000,0.001000
1020.903846,-0.021545,0.001000,0.001000,0.001000,0.001000,0.001000
1020.923077,-0.020514,0.001000,0.001000,0.001000,0.001000,0.001000
1020.942308,-0.019474,0.001000,0.001000,0.001000,0.001000,0.001000
1020.961538,-0.018423,0.001000,0.001000,0.001000,0.001000,0.001000
1020.980769,-0.017362,0.001000,0.001000,0.001000,0.001000,0.001000
1021.000000,-0.016293,0.001000,0.001000,0.001000,0.001000,0.001000
1021.019231,-0.015215,0.001000,0.001000,0.001000,0.001000,0.001000
1021.038462,-0.014130,0.001000,0.001000,0.001000,0.001000,0.001000
1021.057692,-0.013037,0.001000,0.001000,0.001000,0.001000,0.001000
1021.076923,-0.011938,0.001000,0.001000,0.001000,0.001000,0.001000
1021.096154,-0.010832,0.001000,0.001000,0.001000,0.001000,0.001000
1021.115385,-0.009721,0.001000,0.001000,0.001000,0.001000,0.001000
1021.134615,-0.008604,0.001000,0.001000,0.001000,0.001000,0.001000
1021.153846,-0.007483,0.001000,0.001000,0.001000,0.001000,0.001000
1021.173077,-0.006359,0.001000,0.001000,0.001000,0.001000,0.001000
1021.192308,-0.005231,0.001000,0.001000,0.001000,0.001000,0.001000
1021.211538,-0.004100,0.001000,0.001000,0.001000,0.001000,0.001000
1021.230769,-0.002968,0.001000,0.001000,0.001000,0.001000,0.001000
1021.250000,-0.001833,0.001000,0.001000,0.001000,0.001000,0.001000
1021.269231,-0.000698,0.001000,0.001000,0.001000,0.001000,0.001000
1021.288462,0.000437,0.001000,0.001000,0.001000,0.001000,0.001000
1021.307692,0.001573,0.001000,0.001000,0.001000,0.001000,0.001000
1021.326923,0.002707,0.001000,0.001000,0.001000,0.001000,0.001000
1021.346154,0.003840,0.001000,0.001000,0.001000,0.001000,0.001000
1021.365385,0.004971,0.001000,0.001000,0.001000,0.001000,0.001000
1021.384615,0.006100,0.001000,0.001000,0.001000,0.001000,0.001000
1021.403846,0.007225,0.001000,0.001000,0.001000,0.001000,0.001000
1021.423077,0.008347,0.001000,0.001000,0.001000,0.001000,0.001000
1021.442308,0.009464,0.001000,0.001000,0.001000,0.001000,0.001000
1021.461538,0.010577,0.001000,0.001000,0.001000,0.001000,0.001000
1021.480769,0.011684,0.001000,0.001000,0.001000,0.001000,0.001000
1021.500000,0.012785,0.001000,0.001000,0.001000,0.001000,0.001000
1021.519231,0.013879,0.001000,0.001000,0.001000,0.001000,0.001000
1021.538462,0.014967,0.001000,0.001000,0.001000,0.001000,0.001000
1021.557692,0.016046,0.001000,0.001000,0.001000,0.001000,0.001000
1021.576923,0.017117,0.001000,0.001000,0.001000,0.001000,0.001000
1021.596154,0.018180,0.001000,0.001000,0.001000,0.001000,0.001000
1021.615385,0.019233,0.001000,0.001000,0.001000,0.001000,0.001000
1021.634615,0.020276,0.001000,0.001000,0.001000,0.001000,0.001000
1021.653846,0.021309,0.001000,0.001000,0.001000,0.001000,0.001000
1021.673077,0.022331,0.001000,0.001000,0.001000,0.001000,0.001000
1021.692308,0.023341,0.001000,0.001000,0.001000,0.001000,0.001000
1021.711538,0.024339,0.001000,0.001000,0.001000,0.001000,0.001000
1021.730769,0.025324,0.001000,0.001000,0.001000,0.001000,0.001000
1021.750000,0.026297,0.001000,0.001000,0.001000,0.001000,0.001000
1021.769231,0.027256,0.001000,0.001000,0.001000,0.001000,0.001000
1021.788462,0.028201,0.001000,0.001000,0.001000,0.001000,0.001000
1021.807692,0.029131,0.001000,0.001000,0.001000,0.001000,0.001000
1021.826923,0.030047,0.001000,0.001000,0.001000,0.001000,0.001000
1021.846154,0.030946,0.001000,0.001000,0.001000,0.001000,0.001000
1021.865385,0.031830,0.001000,0.001000,0.001000,0.001000,0.001000
1021.884615,0.032698,0.001000,0.001000,0.001000,0.001000,0.001000
1021.903846,0.033548,0.001000,0.001000,0.001000,0.001000,0.001000
1021.923077,0.034382,0.001000,0.001000,0.001000,0.001000,0.001000
1021.942308,0.035197,0.001000,0.001000,0.001000,0.001000,0.001000
1021.961538,0.035995,0.001000,0.001000,0.001000,0.001000,0.001000
1021.980769,0.036773,0.001000,0.001000,0.001000,0.001000,0.001000
1022.000000,0.037533,0.001000,0.001000,0.001000,0.001000,0.001000
1022.019231,0.038274,0.001000,0.001000,0.001000,0.001000,0.001000
1022.038462,0.038994,0.001000,0.001000,0.001000,0.001000,0.001000
1022.057692,0.039695,0.001000,0.001000,0.001000,0.001000,0.001000
1022.076923,0.040375,0.001000,0.001000,0.001000,0.001000,0.001000
1022.096154,0.041035,0.001000,0.001000,0.001000,0.001000,0.001000
1022.115385,0.041673,0.001000,0.001000,0.001000,0.001000,0.001000
1022.134615,0.042290,0.001000,0.001000,0.001000,0.001000,0.001000
1022.153846,0.042884,0.001000,0.001000,0.001000,0.001000,0.001000
1022.173077,0.043457,0.001000,0.001000,0.001000,0.001000,0.001000
1022.192308,0.044008,0.001000,0.001000,0.001000,0.001000,0.001000
1022.211538,0.044535,0.001000,0.001000,0.001000,0.001000,0.001000
1022.230769,0.045040,0.001000,0.001000,0.001000,0.001000,0.001000
1022.250000,0.045521,0.001000,0.001000,0.001000,0.001000,0.001000
1022.269231,0.045979,0.001000,0.001000,0.001000,0.001000,0.001000
1022.288462,0.046414,0.001000,0.001000,0.001000,0.001000,0.001000
1022.307692,0.046824,0.001000,0.001000,0.001000,0.001000,0.001000
1022.326923,0.047210,0.001000,0.001000,0.001000,0.001000,0.001000
1022.346154,0.047572,0.001000,0.001000,0.001000,0.001000,0.001000
1022.365385,0.047909,0.001000,0.001000,0.001000,0.001000,0.001000
1022.384615,0.048222,0.001000,0.001000,0.001000,0.001000,0.001000
1022.403846,0.048509,0.001000,0.001000,0.001000,0.001000,0.001000
1022.423077,0.048772,0.001000,0.001000,0.001000,0.001000,0.001000
1022.442308,0.049010,0.001000,0.001000,0.001000,0.001000,0.001000
1022.461538,0.049222,0.001000,0.001000,0.001000,0.001000,0.001000
1022.480769,0.049409,0.001000,0.001000,0.001000,0.001000,0.001000
1022.500000,0.049570,0.001000,0.001000,0.001000,0.001000,0.001000
1022.519231,0.049706,0.001000,0.001000,0.001000,0.001000,0.001000
1022.538462,0.049816,0.001000,0.001000,0.001000,0.001000,0.001000
1022.557692,0.049900,0.001000,0.001000,0.001000,0.001000,0.001000
1022.576923,0.049959,0.001000,0.001000,0.001000,0.001000,0.001000
1022.596154,0.049992,0.001000,0.001000,0.001000,0.001000,0.001000
1022.615385,0.049999,0.001000,0.001000,0.001000,0.001000,0.001000
1022.634615,0.049981,0.001000,0.001000,0.001000,0.001000,0.001000
1022.653846,0.049936,0.001000,0.001000,0.001000,0.001000,0.001000
1022.673077,0.049866,0.001000,0.001000,0.001000,0.001000,0.001000
1022.692308,0.049770,0.001000,0.001000,0.001000,0.001000,0.001000
1022.711538,0.049649,0.001000,0.001000,0.001000,0.001000,0.001000
1022.730769,0.049502,0.001000,0.001000,0.001000,0.001000,0.001000
1022.750000,0.049329,0.001000,0.001000,0.001000,0.001000,0.001000
1022.769231,0.049131,0.001000,0.001000,0.001000,0.001000,0.001000
1022.788462,0.048907,0.001000,0.001000,0.001000,0.001000,0.001000
1022.807692,0.048659,0.001000,0.001000,0.001000,0.001000,0.001000
1022.826923,0.048385,0.001000,0.001000,0.001000,0.001000,0.001000
1022.846154,0.048086,0.001000,0.001000,0.001000,0.001000,0.001000
1022.865385,0.047763,0.001000,0.001000,0.001000,0.001000,0.001000
1022.884615,0.047414,0.001000,0.001000,0.001000,0.001000,0.001000
1022.903846,0.047042,0.001000,0.001000,0.001000,0.001000,0.001000
1022.923077,0.046645,0.001000,0.001000,0.001000,0.001000,0.001000
1022.942308,0.046224,0.001000,0.001000,0.001000,0.001000,0.001000
1022.961538,0.045779,0.001000,0.001000,0.001000,0.001000,0.001000
1022.980769,0.045311,0.001000,0.001000,0.001000,0.001000,0.001000
1023.000000,0.044819,0.001000,0.001000,0.001000,0.001000,0.001000
1023.019231,0.044304,0.001000,0.001000,0.001000,0.001000,0.001000
1023.038462,0.043766,0.001000,0.001000,0.001000,0.001000,0.001000
1023.057692,0.043206,0.001000,0.001000,0.001000,0.001000,0.001000
1023.076923,0.042623,0.001000,0.001000,0.001000,0.001000,0.001000
1023.096154,0.042019,0.001000,0.001000,0.001000,0.001000,0.001000
1023.115385,0.041393,0.001000,0.001000,0.001000,0.001000,0.001000
1023.134615,0.040745,0.001000,0.001000,0.001000,0.001000,0.001000
1023.153846,0.040076,0.001000,0.001000,0.001000,0.001000,0.001000
1023.173077,0.039387,0.001000,0.001000,0.001000,0.001000,0.001000
1023.192308,0.038677,0.001000,0.001000,0.001000,0.001000,0.001000
1023.211538,0.037948,0.001000,0.001000,0.001000,0.001000,0.001000
1023.230769,0.037199,0.001000,0.001000,0.001000,0.001000,0.001000
1023.250000,0.036430,0.001000,0.001000,0.001000,0.001000,0.001000
1023.269231,0.035643,0.001000,0.001000,0.001000,0.001000,0.001000
1023.288462,0.034838,0.001000,0.001000,0.001000,0.001000,0.001000
1023.307692,0.034014,0.001000,0.001000,0.001000,0.001000,0.001000
1023.326923,0.033173,0.001000,0.001000,0.001000,0.001000,0.001000
1023.346154,0.032315,0.001000,0.001000,0.001000,0.001000,0.001000
1023.365385,0.031440,0.001000,0.001000,0.001000,0.001000,0.001000
1023.384615,0.030549,0.001000,0.001000,0.001000,0.001000,0.001000
1023.403846,0.029643,0.001000,0.001000,0.001000,0.001000,0.001000
1023.423077,0.028721,0.001000,0.001000,0.001000,0.001000,0.001000
1023.442308,0.027784,0.001000,0.001000,0.001000,0.001000,0.001000
1023.461538,0.026832,0.001000,0.001000,0.001000,0.001000,0.001000
1023.480769,0.025867,0.001000,0.001000,0.001000,0.001000,0.001000
1023.500000,0.024889,0.001000,0.001000,0.001000,0.001000,0.001000
1023.519231,0.023898,0.001000,0.001000,0.001000,0.001000,0.001000
1023.538462,0.022894,0.001000,0.001000,0.001000,0.001000,0.001000
1023.557692,0.021879,0.001000,0.001000,0.001000,0.001000,0.001000
1023.576923,0.020852,0.001000,0.001000,0.001000,0.001000,0.001000
1023.596154,0.019815,0.001000,0.001000,0.001000,0.001000,0.001000
1023.615385,0.018767,0.001000,0.001000,0.001000,0.001000,0.001000
1023.634615,0.017710,0.001000,0.001000,0.001000,0.001000,0.001000
1023.653846,0.016644,0.001000,0.001000,0.001000,0.001000,0.001000
1023.673077,0.015569,0.001000,0.001000,0.001000,0.001000,0.001000
1023.692308,0.014486,0.001000,0.001000,0.001000,0.001000,0.001000
1023.711538,0.013395,0.001000,0.001000,0.001000,0.001000,0.001000
1023.730769,0.012298,0.001000,0.001000,0.001000,0.001000,0.001000
1023.750000,0.011194,0.001000,0.001000,0.001000,0.001000,0.001000
1023.769231,0.010084,0.001000,0.001000,0.001000,0.001000,0.001000
1023.788462,0.008970,0.001000,0.001000,0.001000,0.001000,0.001000
1023.807692,0.007850,0.001000,0.001000,0.001000,0.001000,0.001000
1023.826923,0.006727,0.001000,0.001000,0.001000,0.001000,0.001000
1023.846154,0.005600,0.001000,0.001000,0.001000,0.001000,0.001000
1023.865385,0.004470,0.001000,0.001000,0.001000,0.001000,0.001000
1023.884615,0.003338,0.001000,0.001000,0.001000,0.001000,0.001000
1023.903846,0.002204,0.001000,0.001000,0.001000,0.001000,0.001000
1023.923077,0.001069,0.001000,0.001000,0.001000,0.001000,0.001000
1023.942308,-0.000066,0.001000,0.001000,0.001000,0.001000,0.001000
1023.961538,-0.001202,0.001000,0.001000,0.001000,0.001000,0.001000
1023.980769,-0.002336,0.001000,0.001000,0.001000,0.001000,0.001000
1024.000000,-0.003470,0.001000,0.001000,0.001000,0.001000,0.001000
1024.019231,-0.004602,0.001000,0.001000,0.001000,0.001000,0.001000
1024.038462,-0.005731,0.001000,0.001000,0.001000,0.001000,0.001000
1024.057692,-0.006858,0.001000,0.001000,0.001000,0.001000,0.001000
1024.076923,-0.007981,0.001000,0.001000,0.001000,0.001000,0.001000
1024.096154,-0.009100,0.001000,0.001000,0.001000,0.001000,0.001000
1024.115385,-0.010214,0.001000,0.001000,0.001000,0.001000,0.001000
1024.134615,-0.011323,0.001000,0.001000,0.001000,0.001000,0.001000
1024.153846,-0.012426,0.001000,0.001000,0.001000,0.001000,0.001000
1024.173077,-0.013522,0.001000,0.001000,0.001000,0.001000,0.001000
1024.192308,-0.014612,0.001000,0.001000,0.001000,0.001000,0.001000
1024.211538,-0.015694,0.001000,0.001000,0.001000,0.001000,0.001000
1024.230769,-0.016768,0.001000,0.001000,0.001000,0.001000,0.001000
1024.250000,-0.017834,0.001000,0.001000,0.001000,0.001000,0.001000
1024.269231,-0.018890,0.001000,0.001000,0.001000,0.001000,0.001000
1024.288462,-0.019936,0.001000,0.001000,0.001000,0.001000,0.001000
1024.307692,-0.020972,0.001000,0.001000,0.001000,0.001000,0.001000
1024.326923,-0.021998,0.001000,0.001000,0.001000,0.001000,0.001000
1024.346154,-0.023012,0.001000,0.001000,0.001000,0.001000,0.001000
1024.365385,-0.024014,0.001000,0.001000,0.001000,0.001000,0.001000
1024.384615,-0.025004,0.001000,0.001000,0.001000,0.001000,0.001000
1024.403846,-0.025981,0.001000,0.001000,0.001000,0.001000,0.001000
1024.423077,-0.026944,0.001000,0.001000,0.001000,0.001000,0.001000
1024.442308,-0.027894,0.001000,0.001000,0.001000,0.001000,0.001000
1024.461538,-0.028829,0.001000,0.001000,0.001000,0.001000,0.001000
1024.480769,-0.029749,0.001000,0.001000,0.001000,0.001000,0.001000
1024.500000,-0.030654,0.001000,0.001000,0.001000,0.001000,0.001000
1024.519231,-0.031543,0.001000,0.001000,0.001000,0.001000,0.001000
1024.538462,-0.032416,0.001000,0.001000,0.001000,0.001000,0.001000
1024.557692,-0.033272,0.001000,0.001000,0.001000,0.001000,0.001000
1024.576923,-0.034111,0.001000,0.001000,0.001000,0.001000,0.001000
1024.596154,-0.034933,0.001000,0.001000,0.001000,0.001000,0.001000
1024.615385,-0.035736,0.001000,0.001000,0.001000,0.001000,0.001000
1024.634615,-0.036521,0.001000,0.001000,0.001000,0.001000,0.001000
1024.653846,-0.037287,0.001000,0.001000,0.001000,0.001000,0.001000
1024.673077,-0.038034,0.001000,0.001000,0.001000,0.001000,0.001000
1024.692308,-0.038761,0.001000,0.001000,0.001000,0.001000,0.001000
1024.711538,-0.039468,0.001000,0.001000,0.001000,0.001000,0.001000
1024.730769,-0.040155,0.001000,0.001000,0.001000,0.001000,0.001000
1024.750000,-0.040821,0.001000,0.001000,0.001000,0.001000,0.001000
1024.769231,-0.041467,0.001000,0.001000,0.001000,0.001000,0.001000
1024.788462,-0.042090,0.001000,0.001000,0.001000,0.001000,0.001000
1024.807692,-0.042692,0.001000,0.001000,0.001000,0.001000,0.001000
1024.826923,-0.043272,0.001000,0.001000,0.001000,0.001000,0.001000
1024.846154,-0.043830,0.001000,0.001000,0.001000,0.001000,0.001000
1024.865385,-0.044365,0.001000,0.001000,0.001000,0.001000,0.001000
1024.884615,-0.044877,0.001000,0.001000,0.001000,0.001000,0.001000
1024.903846,-0.045367,0.001000,0.001000,0.001000,0.001000,0.001000
1024.923077,-0.045832,0.001000,0.001000,0.001000,0.001000,0.001000
1024.942308,-0.046274,0.001000,0.001000,0.001000,0.001000,0.001000
1024.961538,-0.046692,0.001000,0.001000,0.001000,0.001000,0.001000
1024.980769,-0.047086,0.001000,0.001000,0.001000,0.001000,0.001000
1025.000000,-0.047456,0.001000,0.001000,0.001000,0.001000,0.001000
1025.019231,-0.047802,0.001000,0.001000,0.001000,0.001000,0.001000
1025.038462,-0.048122,0.001000,0.001000,0.001000,0.001000,0.001000
1025.057692,-0.048418,0.001000,0.001000,0.001000,0.001000,0.001000
1025.076923,-0.048689,0.001000,0.001000,0.001000,0.001000,0.001000
1025.096154,-0.048935,0.001000,0.001000,0.001000,0.001000,0.001000
1025.115385,-0.049155,0.001000,0.001000,0.001000,0.001000,0.001000
1025.134615,-0.049350,0.001000,0.001000,0.001000,0.001000,0.001000
1025.153846,-0.049520,0.001000,0.001000,0.001000,0.001000,0.001000
1025.173077,-0.049664,0.001000,0.001000,0.001000,0.001000,0.001000
1025.192308,-0.049783,0.001000,0.001000,0.001000,0.001000,0.001000
1025.211538,-0.049876,0.001000,0.001000,0.001000,0.001000,0.001000
1025.230769,-0.049943,0.001000,0.001000,0.001000,0.001000,0.001000
1025.250000,-0.049984,0.001000,0.001000,0.001000,0.001000,0.001000
1025.269231,-0.050000,0.001000,0.001000,0.001000,0.001000,0.001000
1025.288462,-0.049990,0.001000,0.001000,0.001000,0.001000,0.001000
1025.307692,-0.049954,0.001000,0.001000,0.001000,0.001000,0.001000
1025.326923,-0.049892,0.001000,0.001000,0.001000,0.001000,0.001000
1025.346154,-0.049805,0.001000,0.001000,0.001000,0.001000,0.001000
1025.365385,-0.049691,0.001000,0.001000,0.001000,0.001000,0.001000
1025.384615,-0.049553,0.001000,0.001000,0.001000,0.001000,0.001000
1025.403846,-0.049388,0.001000,0.001000,0.001000,0.001000,0.001000
1025.423077,-0.049198,0.001000,0.001000,0.001000,0.001000,0.001000
1025.442308,-0.048983,0.001000,0.001000,0.001000,0.001000,0.001000
1025.461538,-0.048743,0.001000,0.001000,0.001000,0.001000,0.001000
1025.480769,-0.048477,0.001000,0.001000,0.001000,0.001000,0.001000
1025.500000,-0.048187,0.001000,0.001000,0.001000,0.001000,0.001000
1025.519231,-0.047871,0.001000,0.001000,0.001000,0.001000,0.001000
1025.538462,-0.047531,0.001000,0.001000,0.001000,0.001000,0.001000
1025.557692,-0.047166,0.001000,0.001000,0.001000,0.001000,0.001000
1025.576923,-0.046777,0.001000,0.001000,0.001000,0.001000,0.001000
1025.596154,-0.046364,0.001000,0.001000,0.001000,0.001000,0.001000
1025.615385,-0.045927,0.001000,0.001000,0.001000,0.001000,0.001000
1025.634615,-0.045466,0.001000,0.001000,0.001000,0.001000,0.001000
1025.653846,-0.044982,0.001000,0.001000,0.001000,0.001000,0.001000
1025.673077,-0.044475,0.001000,0.001000,0.001000,0.001000,0.001000
1025.692308,-0.043945,0.001000,0.001000,0.001000,0.001000,0.001000
1025.711538,-0.043392,0.001000,0.001000,0.001000,0.001000,0.001000
1025.730769,-0.042816,0.001000,0.001000,0.001000,0.001000,0.001000
1025.750000,-0.042219,0.001000,0.001000,0.001000,0.001000,0.001000
1025.769231,-0.041600,0.001000,0.001000,0.001000,0.001000,0.001000
1025.788462,-0.040959,0.001000,0.001000,0.001000,0.001000,0.001000
1025.807692,-0.040297,0.001000,0.001000,0.001000,0.001000,0.001000
1025.826923,-0.039615,0.001000,0.001000,0.001000,0.001000,0.001000
1025.846154,-0.038912,0.001000,0.001000,0.001000,0.001000,0.001000
1025.865385,-0.038188,0.001000,0.001000,0.001000,0.001000,0.001000
1025.884615,-0.037446,0.001000,0.001000,0.001000,0.001000,0.001000
1025.903846,-0.036684,0.001000,0.001000,0.001000,0.001000,0.001000
1025.923077,-0.035903,0.001000,0.001000,0.001000,0.001000,0.001000
1025.942308,-0.035103,0.001000,0.001000,0.001000,0.001000,0.001000
1025.961538,-0.034285,0.001000,0.001000,0.001000,0.001000,0.001000
1025.980769,-0.033450,0.001000,0.001000,0.001000,0.001000,0.001000
1026.000000,-0.032597,0.001000,0.001000,0.001000,0.001000,0.001000
1026.019231,-0.031728,0.001000,0.001000,0.001000,0.001000,0.001000
1026.038462,-0.030842,0.001000,0.001000,0.001000,0.001000,0.001000
1026.057692,-0.029941,0.001000,0.001000,0.001000,0.001000,0.001000
1026.076923,-0.029024,0.001000,0.001000,0.001000,0.001000,0.001000
1026.096154,-0.028092,0.001000,0.001000,0.001000,0.001000,0.001000
1026.115385,-0.027145,0.001000,0.001000,0.001000,0.001000,0.001000
1026.134615,-0.026184,0.001000,0.001000,0.001000,0.001000,0.001000
1026.153846,-0.025210,0.001000,0.001000,0.001000,0.001000,0.001000
1026.173077,-0.024223,0.001000,0.001000,0.001000,0.001000,0.001000
1026.192308,-0.023224,0.001000,0.001000,0.001000,0.001000,0.001000
1026.211538,-0.022212,0.001000,0.001000,0.001000,0.001000,0.001000
1026.230769,-0.021189,0.001000,0.001000,0.001000,0.001000,0.001000
1026.250000,-0.020155,0.001000,0.001000,0.001000,0.001000,0.001000
1026.269231,-0.019111,0.001000,0.001000,0.001000,0.001000,0.001000
1026.288462,-0.018057,0.001000,0.001000,0.001000,0.001000,0.001000
1026.307692,-0.016993,0.001000,0.001000,0.001000,0.001000,0.001000
1026.326923,-0.015921,0.001000,0.001000,0.001000,0.001000,0.001000
1026.346154,-0.014840,0.001000,0.001000,0.001000,0.001000,0.001000
1026.365385,-0.013752,0.001000,0.001000,0.001000,0.001000,0.001000
1026.384615,-0.012657,0.001000,0.001000,0.001000,0.001000,0.001000
1026.403846,-0.011555,0.001000,0.001000,0.001000,0.001000,0.001000
1026.423077,-0.010448,0.001000,0.001000,0.001000,0.001000,0.001000
1026.442308,-0.009334,0.001000,0.001000,0.001000,0.001000,0.001000
1026.461538,-0.008217,0.001000,0.001000,0.001000,0.001000,0.001000
1026.480769,-0.007094,0.001000,0.001000,0.001000,0.001000,0.001000
1026.500000,-0.005969,0.001000,0.001000,0.001000,0.001000,0.001000
1026.519231,-0.004840,0.001000,0.001000,0.001000,0.001000,0.001000
1026.538462,-0.003708,0.001000,0.001000,0.001000,0.001000,0.001000
1026.557692,-0.002575,0.001000,0.001000,0.001000,0.001000,0.001000
1026.576923,-0.001440,0.001000,0.001000,0.001000,0.001000,0.001000
1026.596154,-0.000305,0.001000,0.001000,0.001000,0.001000,0.001000
1026.615385,0.000830,0.001000,0.001000,0.001000,0.001000,0.001000
1026.634615,0.001966,0.001000,0.001000,0.001000,0.001000,0.001000
1026.653846,0.003100,0.001000,0.001000,0.001000,0.001000,0.001000
1026.673077,0.004232,0.001000,0.001000,0.001000,0.001000,0.001000
1026.692308,0.005362,0.001000,0.001000,0.001000,0.001000,0.001000
1026.711538,0.006490,0.001000,0.001000,0.001000,0.001000,0.001000
1026.730769,0.007614,0.001000,0.001000,0.001000,0.001000,0.001000
1026.750000,0.008734,0.001000,0.001000,0.001000,0.001000,0.001000
1026.769231,0.009850,0.001000,0.001000,0.001000,0.001000,0.001000
1026.788462,0.010961,0.001000,0.001000,0.001000,0.001000,0.001000
1026.807692,0.012066,0.001000,0.001000,0.001000,0.001000,0.001000
1026.826923,0.013165,0.001000,0.001000,0.001000,0.001000,0.001000
1026.846154,0.014257,0.001000,0.001000,0.001000,0.001000,0.001000
1026.865385,0.015341,0.001000,0.001000,0.001000,0.001000,0.001000
1026.884615,0.016418,0.001000,0.001000,0.001000,0.001000,0.001000
1026.903846,0.017486,0.001000,0.001000,0.001000,0.001000,0.001000
1026.923077,0.018546,0.001000,0.001000,0.001000,0.001000,0.001000
1026.942308,0.019595,0.001000,0.001000,0.001000,0.001000,0.001000
1026.961538,0.020635,0.001000,0.001000,0.001000,0.001000,0.001000
1026.980769,0.021664,0.001000,0.001000,0.001000,0.001000,0.001000
1027.000000,0.022682,0.001000,0.001000,0.001000,0.001000,0.001000
1027.019231,0.023688,0.001000,0.001000,0.001000,0.001000,0.001000
1027.038462,0.024682,0.001000,0.001000,0.001000,0.001000,0.001000
1027.057692,0.025663,0.001000,0.001000,0.001000,0.001000,0.001000
1027.076923,0.026631,0.001000,0.001000,0.001000,0.001000,0.001000
1027.096154,0.027585,0.001000,0.001000,0.001000,0.001000,0.001000
1027.115385,0.028525,0.001000,0.001000,0.001000,0.001000,0.001000
1027.134615,0.029450,0.001000,0.001000,0.001000,0.001000,0.001000
1027.153846,0.030360,0.001000,0.001000,0.001000,0.001000,0.001000
1027.173077,0.031254,0.001000,0.001000,0.001000,0.001000,0.001000
1027.192308,0.032132,0.001000,0.001000,0.001000,0.001000,0.001000
1027.211538,0.032994,0.001000,0.001000,0.001000,0.001000,0.001000
1027.230769,0.033839,0.001000,0.001000,0.001000,0.001000,0.001000
1027.250000,0.034666,0.001000,0.001000,0.001000,0.001000,0.001000
1027.269231,0.035475,0.001000,0.001000,0.001000,0.001000,0.001000
1027.288462,0.036266,0.001000,0.001000,0.001000,0.001000,0.001000
1027.307692,0.037039,0.001000,0.001000,0.001000,0.001000,0.001000
1027.326923,0.037792,0.001000,0.001000,0.001000,0.001000,0.001000
1027.346154,0.038526,0.001000,0.001000,0.001000,0.001000,0.001000
1027.365385,0.039239,0.001000,0.001000,0.001000,0.001000,0.001000
1027.384615,0.039933,0.001000,0.001000,0.001000,0.001000,0.001000
1027.403846,0.040606,0.001000,0.001000,0.001000,0.001000,0.001000
1027.423077,0.041258,0.001000,0.001000,0.001000,0.001000,0.001000
1027.442308,0.041889,0.001000,0.001000,0.001000,0.001000,0.001000
1027.461538,0.042498,0.001000,0.001000,0.001000,0.001000,0.001000
1027.480769,0.043085,0.001000,0.001000,0.001000,0.001000,0.001000
1027.500000,0.043650,0.001000,0.001000,0.001000,0.001000,0.001000
1027.519231,0.044193,0.001000,0.001000,0.001000,0.001000,0.001000
1027.538462,0.044713,0.001000,0.001000,0.001000,0.001000,0.001000
1027.557692,0.045209,0.001000,0.001000,0.001000,0.001000,0.001000
1027.576923,0.045683,0.001000,0.001000,0.001000,0.001000,0.001000
1027.596154,0.046132,0.001000,0.001000,0.001000,0.001000,0.001000
1027.615385,0.046558,0.001000,0.001000,0.001000,0.001000,0.001000
1027.634615,0.046960,0.001000,0.001000,0.001000,0.001000,0.001000
1027.653846,0.047338,0.001000,0.001000,0.001000,0.001000,0.001000
1027.673077,0.047691,0.001000,0.001000,0.001000,0.001000,0.001000
1027.692308,0.048020,0.001000,0.001000,0.001000,0.001000,0.001000
1027.711538,0.048324,0.001000,0.001000,0.001000,0.001000,0.001000
1027.730769,0.048603,0.001000,0.001000,0.001000,0.001000,0.001000
1027.750000,0.048857,0.001000,0.001000,0.001000,0.001000,0.001000
1027.769231,0.049086,0.001000,0.001000,0.001000,0.001000,0.001000
1027.788462,0.049289,0.001000,0.001000,0.001000,0.001000,0.001000
1027.807692,0.049467,0.001000,0.001000,0.001000,0.001000,0.001000
1027.826923,0.049620,0.001000,0.001000,0.001000,0.001000,0.001000
1027.846154,0.049747,0.001000,0.001000,0.001000,0.001000,0.001000
1027.865385,0.049848,0.001000,0.001000,0.001000,0.001000,0.001000
1027.884615,0.049924,0.001000,0.001000,0.001000,0.001000,0.001000
1027.903846,0.049974,0.001000,0.001000,0.001000,0.001000,0.001000
1027.923077,0.049998,0.001000,0.001000,0.001000,0.001000,0.001000
1027.942308,0.049996,0.001000,0.001000,0.001000,0.001000,0.001000
1027.961538,0.049968,0.001000,0.001000,0.001000,0.001000,0.001000
1027.980769,0.049915,0.001000,0.001000,0.001000,0.001000,0.001000
1028.000000,0.049836,0.001000,0.001000,0.001000,0.001000,0.001000
1028.019231,0.049731,0.001000,0.001000,0.001000,0.001000,0.001000
1028.038462,0.049601,0.001000,0.001000,0.001000,0.001000,0.001000
1028.057692,0.049445,0.001000,0.001000,0.001000,0.001000,0.001000
1028.076923,0.049263,0.001000,0.001000,0.001000,0.001000,0.001000
1028.096154,0.049056,0.001000,0.001000,0.001000,0.001000,0.001000
1028.115385,0.048824,0.001000,0.001000,0.001000,0.001000,0.001000
1028.134615,0.048567,0.001000,0.001000,0.001000,0.001000,0.001000
1028.153846,0.048284,0.001000,0.001000,0.001000,0.001000,0.001000
1028.173077,0.047977,0.001000,0.001000,0.001000,0.001000,0.001000
1028.192308,0.047645,0.001000,0.001000,0.001000,0.001000,0.001000
1028.211538,0.047288,0.001000,0.001000,0.001000,0.001000,0.001000
1028.230769,0.046907,0.001000,0.001000,0.001000,0.001000,0.001000
1028.250000,0.046502,0.001000,0.001000,0.001000,0.001000,0.001000
1028.269231,0.046073,0.001000,0.001000,0.001000,0.001000,0.001000
1028.288462,0.045620,0.001000,0.001000,0.001000,0.001000,0.001000
1028.307692,0.045143,0.001000,0.001000,0.001000,0.001000,0.001000
1028.326923,0.044643,0.001000,0.001000,0.001000,0.001000,0.001000
1028.346154,0.044120,0.001000,0.001000,0.001000,0.001000,0.001000
1028.365385,0.043575,0.001000,0.001000,0.001000,0.001000,0.001000
1028.384615,0.043007,0.001000,0.001000,0.001000,0.001000,0.001000
1028.403846,0.042417,0.001000,0.001000,0.001000,0.001000,0.001000
1028.423077,0.041804,0.001000,0.001000,0.001000,0.001000,0.001000
1028.442308,0.041171,0.001000,0.001000,0.001000,0.001000,0.001000
1028.461538,0.040516,0.001000,0.001000,0.001000,0.001000,0.001000
1028.480769,0.039840,0.001000,0.001000,0.001000,0.001000,0.001000
1028.500000,0.039144,0.001000,0.001000,0.001000,0.001000,0.001000
1028.519231,0.038427,0.001000,0.001000,0.001000,0.001000,0.001000
1028.538462,0.037691,0.001000,0.001000,0.001000,0.001000,0.001000
1028.557692,0.036935,0.001000,0.001000,0.001000,0.001000,0.001000
1028.576923,0.036160,0.001000,0.001000,0.001000,0.001000,0.001000
1028.596154,0.035366,0.001000,0.001000,0.001000,0.001000,0.001000
1028.615385,0.034555,0.001000,0.001000,0.001000,0.001000,0.001000
1028.634615,0.033725,0.001000,0.001000,0.001000,0.001000,0.001000
1028.653846,0.032878,0.001000,0.001000,0.001000,0.001000,0.001000
1028.673077,0.032014,0.001000,0.001000,0.001000,0.001000,0.001000
1028.692308,0.031134,0.001000,0.001000,0.001000,0.001000,0.001000
1028.711538,0.030237,0.001000,0.001000,0.001000,0.001000,0.001000
1028.730769,0.029325,0.001000,0.001000,0.001000,0.001000,0.001000
1028.750000,0.028398,0.001000,0.001000,0.001000,0.001000,0.001000
1028.769231,0.027456,0.001000,0.001000,0.001000,0.001000,0.001000
1028.788462,0.026500,0.001000,0.001000,0.001000,0.001000,0.001000
1028.807692,0.025530,0.001000,0.001000,0.001000,0.001000,0.001000
1028.826923,0.024547,0.001000,0.001000,0.001000,0.001000,0.001000
1028.846154,0.023552,0.001000,0.001000,0.001000,0.001000,0.001000
1028.865385,0.022544,0.001000,0.001000,0.001000,0.001000,0.001000
1028.884615,0.021525,0.001000,0.001000,0.001000,0.001000,0.001000
1028.903846,0.020494,0.001000,0.001000,0.001000,0.001000,0.001000
1028.923077,0.019453,0.001000,0.001000,0.001000,0.001000,0.001000
1028.942308,0.018402,0.001000,0.001000,0.001000,0.001000,0.001000
1028.961538,0.017342,0.001000,0.001000,0.001000,0.001000,0.001000
1028.980769,0.016272,0.001000,0.001000,0.001000,0.001000,0.001000
1029.000000,0.015194,0.001000,0.001000,0.001000,0.001000,0.001000
1029.019231,0.014109,0.001000,0.001000,0.001000,0.001000,0.001000
1029.038462,0.013016,0.001000,0.001000,0.001000,0.001000,0.001000
1029.057692,0.011916,0.001000,0.001000,0.001000,0.001000,0.001000
1029.076923,0.010810,0.001000,0.001000,0.001000,0.001000,0.001000
1029.096154,0.009699,0.001000,0.001000,0.001000,0.001000,0.001000
1029.115385,0.008582,0.001000,0.001000,0.001000,0.001000,0.001000
1029.134615,0.007462,0.001000,0.001000,0.001000,0.001000,0.001000
1029.153846,0.006337,0.001000,0.001000,0.001000,0.001000,0.001000
1029.173077,0.005209,0.001000,0.001000,0.001000,0.001000,0.001000
1029.192308,0.004078,0.001000,0.001000,0.001000,0.001000,0.001000
1029.211538,0.002946,0.001000,0.001000,0.001000,0.001000,0.001000
1029.230769,0.001811,0.001000,0.001000,0.001000,0.001000,0.001000
1029.250000,0.000676,0.001000,0.001000,0.001000,0.001000,0.001000
1029.269231,-0.000459,0.001000,0.001000,0.001000,0.001000,0.001000
1029.288462,-0.001595,0.001000,0.001000,0.001000,0.001000,0.001000
1029.307692,-0.002729,0.001000,0.001000,0.001000,0.001000,0.001000
1029.326923,-0.003862,0.001000,0.001000,0.001000,0.001000,0.001000
1029.346154,-0.004993,0.001000,0.001000,0.001000,0.001000,0.001000
1029.365385,-0.006122,0.001000,0.001000,0.001000,0.001000,0.001000
1029.384615,-0.007247,0.001000,0.001000,0.001000,0.001000,0.001000
1029.403846,-0.008369,0.001000,0.001000,0.001000,0.001000,0.001000
1029.423077,-0.009486,0.001000,0.001000,0.001000,0.001000,0.001000
1029.442308,-0.010598,0.001000,0.001000,0.001000,0.001000,0.001000
1029.461538,-0.011705,0.001000,0.001000,0.001000,0.001000,0.001000
1029.480769,-0.012806,0.001000,0.001000,0.001000,0.001000,0.001000
1029.500000,-0.013901,0.001000,0.001000,0.001000,0.001000,0.001000
1029.519231,-0.014988,0.001000,0.001000,0.001000,0.001000,0.001000
1029.538462,-0.016067,0.001000,0.001000,0.001000,0.001000,0.001000
1029.557692,-0.017138,0.001000,0.001000,0.001000,0.001000,0.001000
1029.576923,-0.018200,0.001000,0.001000,0.001000,0.001000,0.001000
1029.596154,-0.019253,0.001000,0.001000,0.001000,0.001000,0.001000
1029.615385,-0.020296,0.001000,0.001000,0.001000,0.001000,0.001000
1029.634615,-0.021329,0.001000,0.001000,0.001000,0.001000,0.001000
1029.653846,-0.022350,0.001000,0.001000,0.001000,0.001000,0.001000
1029.673077,-0.023360,0.001000,0.001000,0.001000,0.001000,0.001000
1029.692308,-0.024358,0.001000,0.001000,0.001000,0.001000,0.001000
1029.711538,-0.025343,0.001000,0.001000,0.001000,0.001000,0.001000
1029.730769,-0.026316,0.001000,0.001000,0.001000,0.001000,0.001000
1029.750000,-0.027274,0.001000,0.001000,0.001000,0.001000,0.001000
1029.769231,-0.028219,0.001000,0.001000,0.001000,0.001000,0.001000
1029.788462,-0.029149,0.001000,0.001000,0.001000,0.001000,0.001000
1029.807692,-0.030064,0.001000,0.001000,0.001000,0.001000,0.001000
1029.826923,-0.030964,0.001000,0.001000,0.001000,0.001000,0.001000
1029.846154,-0.031847,0.001000,0.001000,0.001000,0.001000,0.001000
1029.865385,-0.032714,0.001000,0.001000,0.001000,0.001000,0.001000
1029.884615,-0.033565,0.001000,0.001000,0.001000,0.001000,0.001000
1029.903846,-0.034398,0.001000,0.001000,0.001000,0.001000,0.001000
1029.923077,-0.035213,0.001000,0.001000,0.001000,0.001000,0.001000
1029.942308,-0.036010,0.001000,0.001000,0.001000,0.001000,0.001000
1029.961538,-0.036788,0.001000,0.001000,0.001000,0.001000,0.001000
1029.980769,-0.037548,0.001000,0.001000,0.001000,0.001000,0.001000
1030.000000,0.000000,0.001000,0.001000,0.001000,0.001000,0.001000
1030.019231,0.001091,0.001000,0.001000,0.001000,0.001000,0.001000
1030.038462,0.002181,0.001000,0.001000,0.001000,0.001000,0.001000
1030.057692,0.003270,0.001000,0.001000,0.001000,0.001000,0.001000
1030.076923,0.004358,0.001000,0.001000,0.001000,0.001000,0.001000
1030.096154,0.005443,0.001000,0.001000,0.001000,0.001000,0.001000
1030.115385,0.006526,0.001000,0.001000,0.001000,0.001000,0.001000
1030.134615,0.007606,0.001000,0.001000,0.001000,0.001000,0.001000
1030.153846,0.008683,0.001000,0.001000,0.001000,0.001000,0.001000
1030.173077,0.009755,0.001000,0.001000,0.001000,0.001000,0.001000
1030.192308,0.010822,0.001000,0.001000,0.001000,0.001000,0.001000
1030.211538,0.011884,0.001000,0.001000,0.001000,0.001000,0.001000
1030.230769,0.012941,0.001000,0.001000,0.001000,0.001000,0.001000
1030.250000,0.013992,0.001000,0.001000,0.001000,0.001000,0.001000
1030.269231,0.015036,0.001000,0.001000,0.001000,0.001000,0.001000
1030.288462,0.016072,0.001000,0.001000,0.001000,0.001000,0.001000
1030.307692,0.017101,0.001000,0.001000,0.001000,0.001000,0.001000
1030.326923,0.018122,0.001000,0.001000,0.001000,0.001000,0.001000
1030.346154,0.019134,0.001000,0.001000,0.001000,0.001000,0.001000
1030.365385,0.020138,0.001000,0.001000,0.001000,0.001000,0.001000
1030.384615,0.021131,0.001000,0.001000,0.001000,0.001000,0.001000
1030.403846,0.022115,0.001000,0.001000,0.001000,0.001000,0.001000
1030.423077,0.023088,0.001000,0.001000,0.001000,0.001000,0.001000
1030.442308,0.024050,0.001000,0.001000,0.001000,0.001000,0.001000
1030.461538,0.025000,0.001000,0.001000,0.001000,0.001000,0.001000
1030.480769,0.025939,0.001000,0.001000,0.001000,0.001000,0.001000
1030.500000,0.026865,0.001000,0.001000,0.001000,0.001000,0.001000
1030.519231,0.027779,0.001000,0.001000,0.001000,0.001000,0.001000
1030.538462,0.028679,0.001000,0.001000,0.001000,0.001000,0.001000
1030.557692,0.029566,0.001000,0.001000,0.001000,0.001000,0.001000
1030.576923,0.030438,0.001000,0.001000,0.001000,0.001000,0.001000
1030.596154,0.031297,0.001000,0.001000,0.001000,0.001000,0.001000
1030.615385,0.032140,0.001000,0.001000,0.001000,0.001000,0.001000
1030.634615,0.032968,0.001000,0.001000,0.001000,0.001000,0.001000
1030.653846,0.033780,0.001000,0.001000,0.001000,0.001000,0.001000
1030.673077,0.034576,0.001000,0.001000,0.001000,0.001000,0.001000
1030.692308,0.035356,0.001000,0.001000,0.001000,0.001000,0.001000
1030.711538,0.036119,0.001000,0.001000,0.001000,0.001000,0.001000
1030.730769,0.036864,0.001000,0.001000,0.001000,0.001000,0.001000
1030.750000,0.037592,0.001000,0.001000,0.001000,0.001000,0.001000
1030.769231,0.038303,0.001000,0.001000,0.001000,0.001000,0.001000
1030.788462,0.038995,0.001000,0.001000,0.001000,0.001000,0.001000
1030.807692,0.039668,0.001000,0.001000,0.001000,0.001000,0.001000
1030.826923,0.040323,0.001000,0.001000,0.001000,0.001000,0.001000
1030.846154,0.040958,0.001000,0.001000,0.001000,0.001000,0.001000
1030.865385,0.041574,0.001000,0.001000,0.001000,0.001000,0.001000
1030.884615,0.042170,0.001000,0.001000,0.001000,0.001000,0.001000
1030.903846,0.042746,0.001000,0.001000,0.001000,0.001000,0.001000
1030.923077,0.043302,0.001000,0.001000,0.001000,0.001000,0.001000
1030.942308,0.043837,0.001000,0.001000,0.001000,0.001000,0.001000
1030.961538,0.044351,0.001000,0.001000,0.001000,0.001000,0.001000
1030.980769,0.044844,0.001000,0.001000,0.001000,0.001000,0.001000
1031.000000,0.045316,0.001000,0.001000,0.001000,0.001000,0.001000
1031.019231,0.045766,0.001000,0.001000,0.001000,0.001000,0.001000
1031.038462,0.046194,0.001000,0.001000,0.001000,0.001000,0.001000
1031.057692,0.046601,0.001000,0.001000,0.001000,0.001000,0.001000
1031.076923,0.046985,0.001000,0.001000,0.001000,0.001000,0.001000
1031.096154,0.047347,0.001000,0.001000,0.001000,0.001000,0.001000
1031.115385,0.047686,0.001000,0.001000,0.001000,0.001000,0.001000
1031.134615,0.048003,0.001000,0.001000,0.001000,0.001000,0.001000
1031.153846,0.048297,0.001000,0.001000,0.001000,0.001000,0.001000
1031.173077,0.048567,0.001000,0.001000,0.001000,0.001000,0.001000
1031.192308,0.048815,0.001000,0.001000,0.001000,0.001000,0.001000
1031.211538,0.049039,0.001000,0.001000,0.001000,0.001000,0.001000
1031.230769,0.049241,0.001000,0.001000,0.001000,0.001000,0.001000
1031.250000,0.049418,0.001000,0.001000,0.001000,0.001000,0.001000
1031.269231,0.049572,0.001000,0.001000,0.001000,0.001000,0.001000
1031.288462,0.049703,0.001000,0.001000,0.001000,0.001000,0.001000
1031.307692,0.049810,0.001000,0.001000,0.001000,0.001000,0.001000
1031.326923,0.049893,0.001000,0.001000,0.001000,0.001000,0.001000
1031.346154,0.049952,0.001000,0.001000,0.001000,0.001000,0.001000
1031.365385,0.049988,0.001000,0.001000,0.001000,0.001000,0.001000
1031.384615,0.050000,0.001000,0.001000,0.001000,0.001000,0.001000
1031.403846,0.049988,0.001000,0.001000,0.001000,0.001000,0.001000
1031.423077,0.049952,0.001000,0.001000,0.001000,0.001000,0.001000
1031.442308,0.049893,0.001000,0.001000,0.001000,0.001000,0.001000
1031.461538,0.049810,0.001000,0.001000,0.001000,0.001000,0.001000
1031.480769,0.049703,0.001000,0.001000,0.001000,0.001000,0.001000
1031.500000,0.049572,0.001000,0.001000,0.001000,0.001000,0.001000
1031.519231,0.049418,0.001000,0.001000,0.001000,0.001000,0.001000
1031.538462,0.049240,0.001000,0.001000,0.001000,0.001000,0.001000
1031.557692,0.049039,0.001000,0.001000,0.001000,0.001000,0.001000
1031.576923,0.048815,0.001000,0.001000,0.001000,0.001000,0.001000
1031.596154,0.048567,0.001000,0.001000,0.001000,0.001000,0.001000
1031.615385,0.048296,0.001000,0.001000,0.001000,0.001000,0.001000
1031.634615,0.048002,0.001000,0.001000,0.001000,0.001000,0.001000
1031.653846,0.047685,0.001000,0.001000,0.001000,0.001000,0.001000
1031.673077,0.047346,0.001000,0.001000,0.001000,0.001000,0.001000
1031.692308,0.046984,0.001000,0.001000,0.001000,0.001000,0.001000
1031.711538,0.046600,0.001000,0.001000,0.001000,0.001000,0.001000
1031.730769,0.046193,0.001000,0.001000,0.001000,0.001000,0.001000
1031.750000,0.045765,0.001000,0.001000,0.001000,0.001000,0.001000
1031.769231,0.045315,0.001000,0.001000,0.001000,0.001000,0.001000
1031.788462,0.044843,0.001000,0.001000,0.001000,0.001000,0.001000
1031.807692,0.044350,0.001000,0.001000,0.001000,0.001000,0.001000
1031.826923,0.043836,0.001000,0.001000,0.001000,0.001000,0.001000
1031.846154,0.043301,0.001000,0.001000,0.001000,0.001000,0.001000
1031.865385,0.042745,0.001000,0.001000,0.001000,0.001000,0.001000
1031.884615,0.042169,0.001000,0.001000,0.001000,0.001000,0.001000
1031.903846,0.041573,0.001000,0.001000,0.001000,0.001000,0.001000
1031.923077,0.040957,0.001000,0.001000,0.001000,0.001000,0.001000
1031.942308,0.040321,0.001000,0.001000,0.001000,0.001000,0.001000
1031.961538,0.039667,0.001000,0.001000,0.001000,0.001000,0.001000
1031.980769,0.038993,0.001000,0.001000,0.001000,0.001000,0.001000
1032.000000,0.038301,0.001000,0.001000,0.001000,0.001000,0.001000
1032.019231,0.037591,0.001000,0.001000,0.001000,0.001000,0.001000
1032.038462,0.036863,0.001000,0.001000,0.001000,0.001000,0.001000
1032.057692,0.036117,0.001000,0.001000,0.001000,0.001000,0.001000
1032.076923,0.035354,0.001000,0.001000,0.001000,0.001000,0.001000
1032.096154,0.034574,0.001000,0.001000,0.001000,0.001000,0.001000
1032.115385,0.033778,0.001000,0.001000,0.001000,0.001000,0.001000
1032.134615,0.032966,0.001000,0.001000,0.001000,0.001000,0.001000
1032.153846,0.032138,0.001000,0.001000,0.001000,0.001000,0.001000
1032.173077,0.031295,0.001000,0.001000,0.001000,0.001000,0.001000
1032.192308,0.030437,0.001000,0.001000,0.001000,0.001000,0.001000
1032.211538,0.029564,0.001000,0.001000,0.001000,0.001000,0.001000
1032.230769,0.028677,0.001000,0.001000,0.001000,0.001000,0.001000
1032.250000,0.027777,0.001000,0.001000,0.001000,0.001000,0.001000
1032.269231,0.026863,0.001000,0.001000,0.001000,0.001000,0.001000
1032.288462,0.025937,0.001000,0.001000,0.001000,0.001000,0.001000
1032.307692,0.024998,0.001000,0.001000,0.001000,0.001000,0.001000
1032.326923,0.024048,0.001000,0.001000,0.001000,0.001000,0.001000
1032.346154,0.023086,0.001000,0.001000,0.001000,0.001000,0.001000
1032.365385,0.022113,0.001000,0.001000,0.001000,0.001000,0.001000
1032.384615,0.021129,0.001000,0.001000,0.001000,0.001000,0.001000
1032.403846,0.020136,0.001000,0.001000,0.001000,0.001000,0.001000
1032.423077,0.019132,0.001000,0.001000,0.001000,0.001000,0.001000
1032.442308,0.018120,0.001000,0.001000,0.001000,0.001000,0.001000
1032.461538,0.017099,0.001000,0.001000,0.001000,0.001000,0.001000
1032.480769,0.016070,0.001000,0.001000,0.001000,0.001000,0.001000
1032.500000,0.015033,0.001000,0.001000,0.001000,0.001000,0.001000
1032.519231,0.013989,0.001000,0.001000,0.001000,0.001000,0.001000
1032.538462,0.012939,0.001000,0.001000,0.001000,0.001000,0.001000
1032.557692,0.011882,0.001000,0.001000,0.001000,0.001000,0.001000
1032.576923,0.010820,0.001000,0.001000,0.001000,0.001000,0.001000
1032.596154,0.009752,0.001000,0.001000,0.001000,0.001000,0.001000
1032.615385,0.008680,0.001000,0.001000,0.001000,0.001000,0.001000
1032.634615,0.007604,0.001000,0.001000,0.001000,0.001000,0.001000
1032.653846,0.006524,0.001000,0.001000,0.001000,0.001000,0.001000
1032.673077,0.005441,0.001000,0.001000,0.001000,0.001000,0.001000
1032.692308,0.004356,0.001000,0.001000,0.001000,0.001000,0.001000
1032.711538,0.003268,0.001000,0.001000,0.001000,0.001000,0.001000
1032.730769,0.002179,0.001000,0.001000,0.001000,0.001000,0.001000
1032.750000,0.001088,0.001000,0.001000,0.001000,0.001000,0.001000
1032.769231,-0.000002,0.001000,0.001000,0.001000,0.001000,0.001000
1032.788462,-0.001093,0.001000,0.001000,0.001000,0.001000,0.001000
1032.807692,-0.002183,0.001000,0.001000,0.001000,0.001000,0.001000
1032.826923,-0.003272,0.001000,0.001000,0.001000,0.001000,0.001000
1032.846154,-0.004360,0.001000,0.001000,0.001000,0.001000,0.001000
1032.865385,-0.005446,0.001000,0.001000,0.001000,0.001000,0.001000
1032.884615,-0.006529,0.001000,0.001000,0.001000,0.001000,0.001000
1032.903846,-0.007609,0.001000,0.001000,0.001000,0.001000,0.001000
1032.923077,-0.008685,0.001000,0.001000,0.001000,0.001000,0.001000
1032.942308,-0.009757,0.001000,0.001000,0.001000,0.001000,0.001000
1032.961538,-0.010824,0.001000,0.001000,0.001000,0.001000,0.001000
1032.980769,-0.011887,0.001000,0.001000,0.001000,0.001000,0.001000
1033.000000,-0.012943,0.001000,0.001000,0.001000,0.001000,0.001000
1033.019231,-0.013994,0.001000,0.001000,0.001000,0.001000,0.001000
1033.038462,-0.015038,0.001000,0.001000,0.001000,0.001000,0.001000
1033.057692,-0.016074,0.001000,0.001000,0.001000,0.001000,0.001000
1033.076923,-0.017103,0.001000,0.001000,0.001000,0.001000,0.001000
1033.096154,-0.018124,0.001000,0.001000,0.001000,0.001000,0.001000
1033.115385,-0.019137,0.001000,0.001000,0.001000,0.001000,0.001000
1033.134615,-0.020140,0.001000,0.001000,0.001000,0.001000,0.001000
1033.153846,-0.021133,0.001000,0.001000,0.001000,0.001000,0.001000
1033.173077,-0.022117,0.001000,0.001000,0.001000,0.001000,0.001000
1033.192308,-0.023090,0.001000,0.001000,0.001000,0.001000,0.001000
1033.211538,-0.024052,0.001000,0.001000,0.001000,0.001000,0.001000
1033.230769,-0.025002,0.001000,0.001000,0.001000,0.001000,0.001000
1033.250000,-0.025941,0.001000,0.001000,0.001000,0.001000,0.001000
1033.269231,-0.026867,0.001000,0.001000,0.001000,0.001000,0.001000
1033.288462,-0.027781,0.001000,0.001000,0.001000,0.001000,0.001000
1033.307692,-0.028681,0.001000,0.001000,0.001000,0.001000,0.001000
1033.326923,-0.029568,0.001000,0.001000,0.001000,0.001000,0.001000
1033.346154,-0.030440,0.001000,0.001000,0.001000,0.001000,0.001000
1033.365385,-0.031298,0.001000,0.001000,0.001000,0.001000,0.001000
1033.384615,-0.032142,0.001000,0.001000,0.001000,0.001000,0.001000
1033.403846,-0.032969,0.001000,0.001000,0.001000,0.001000,0.001000
1033.423077,-0.033782,0.001000,0.001000,0.001000,0.001000,0.001000
1033.442308,-0.034578,0.001000,0.001000,0.001000,0.001000,0.001000
1033.461538,-0.035357,0.001000,0.001000,0.001000,0.001000,0.001000
1033.480769,-0.036120,0.001000,0.001000,0.001000,0.001000,0.001000
1033.500000,-0.036866,0.001000,0.001000,0.001000,0.001000,0.001000
1033.519231,-0.037594,0.001000,0.001000,0.001000,0.001000,0.001000
1033.538462,-0.038304,0.001000,0.001000,0.001000,0.001000,0.001000
1033.557692,-0.038996,0.001000,0.001000,0.001000,0.001000,0.001000
1033.576923,-0.039669,0.001000,0.001000,0.001000,0.001000,0.001000
1033.596154,-0.040324,0.001000,0.001000,0.001000,0.001000,0.001000
1033.615385,-0.040959,0.001000,0.001000,0.001000,0.001000,0.001000
1033.634615,-0.041575,0.001000,0.001000,0.001000,0.001000,0.001000
1033.653846,-0.042171,0.001000,0.001000,0.001000,0.001000,0.001000
1033.673077,-0.042747,0.001000,0.001000,0.001000,0.001000,0.001000
1033.692308,-0.043303,0.001000,0.001000,0.001000,0.001000,0.001000
1033.711538,-0.043838,0.001000,0.001000,0.001000,0.001000,0.001000
1033.730769,-0.044352,0.001000,0.001000,0.001000,0.001000,0.001000
1033.750000,-0.044845,0.001000,0.001000,0.001000,0.001000,0.001000
1033.769231,-0.045317,0.001000,0.001000,0.001000,0.001000,0.001000
1033.788462,-0.045767,0.001000,0.001000,0.001000,0.001000,0.001000
1033.807692,-0.046195,0.001000,0.001000,0.001000,0.001000,0.001000
1033.826923,-0.046602,0.001000,0.001000,0.001000,0.001000,0.001000
1033.846154,-0.046986,0.001000,0.001000,0.001000,0.001000,0.001000
1033.865385,-0.047348,0.001000,0.001000,0.001000,0.001000,0.001000
1033.884615,-0.047687,0.001000,0.001000,0.001000,0.001000,0.001000
1033.903846,-0.048003,0.001000,0.001000,0.001000,0.001000,0.001000
1033.923077,-0.048297,0.001000,0.001000,0.001000,0.001000,0.001000
1033.942308,-0.048568,0.001000,0.001000,0.001000,0.001000,0.001000
1033.961538,-0.048816,0.001000,0.001000,0.001000,0.001000,0.001000
1033.980769,-0.049040,0.001000,0.001000,0.001000,0.001000,0.001000
1034.000000,-0.049241,0.001000,0.001000,0.001000,0.001000,0.001000
1034.019231,-0.049419,0.001000,0.001000,0.001000,0.001000,0.001000
1034.038462,-0.049573,0.001000,0.001000,0.001000,0.001000,0.001000
1034.057692,-0.049703,0.001000,0.001000,0.001000,0.001000,0.001000
1034.076923,-0.049810,0.001000,0.001000,0.001000,0.001000,0.001000
1034.096154,-0.049893,0.001000,0.001000,0.001000,0.001000,0.001000
1034.115385,-0.049953,0.001000,0.001000,0.001000,0.001000,0.001000
1034.134615,-0.049988,0.001000,0.001000,0.001000,0.001000,0.001000
1034.153846,-0.050000,0.001000,0.001000,0.001000,0.001000,0.001000
1034.173077,-0.049988,0.001000,0.001000,0.001000,0.001000,0.001000
1034.192308,-0.049952,0.001000,0.001000,0.001000,0.001000,0.001000
1034.211538,-0.049893,0.001000,0.001000,0.001000,0.001000,0.001000
1034.230769,-0.049809,0.001000,0.001000,0.001000,0.001000,0.001000
1034.250000,-0.049702,0.001000,0.001000,0.001000,0.001000,0.001000
1034.269231,-0.049572,0.001000,0.001000,0.001000,0.001000,0.001000
1034.288462,-0.049418,0.001000,0.001000,0.001000,0.001000,0.001000
1034.307692,-0.049240,0.001000,0.001000,0.001000,0.001000,0.001000
1034.326923,-0.049039,0.001000,0.001000,0.001000,0.001000,0.001000
1034.346154,-0.048814,0.001000,0.001000,0.001000,0.001000,0.001000
1034.365385,-0.048566,0.001000,0.001000,0.001000,0.001000,0.001000
1034.384615,-0.048295,0.001000,0.001000,0.001000,0.001000,0.001000
1034.403846,-0.048001,0.001000,0.001000,0.001000,0.001000,0.001000
1034.423077,-0.047685,0.001000,0.001000,0.001000,0.001000,0.001000
1034.442308,-0.047345,0.001000,0.001000,0.001000,0.001000,0.001000
1034.461538,-0.046983,0.001000,0.001000,0.001000,0.001000,0.001000
1034.480769,-0.046599,0.001000,0.001000,0.001000,0.001000,0.001000
1034.500000,-0.046193,0.001000,0.001000,0.001000,0.001000,0.001000
1034.519231,-0.045764,0.001000,0.001000,0.001000,0.001000,0.001000
1034.538462,-0.045314,0.001000,0.001000,0.001000,0.001000,0.001000
1034.557692,-0.044842,0.001000,0.001000,0.001000,0.001000,0.001000
1034.576923,-0.044349,0.001000,0.001000,0.001000,0.001000,0.001000
1034.596154,-0.043835,0.001000,0.001000,0.001000,0.001000,0.001000
1034.615385,-0.043299,0.001000,0.001000,0.001000,0.001000,0.001000
1034.634615,-0.042744,0.001000,0.001000,0.001000,0.001000,0.001000
1034.653846,-0.042168,0.001000,0.001000,0.001000,0.001000,0.001000
1034.673077,-0.041571,0.001000,0.001000,0.001000,0.001000,0.001000
1034.692308,-0.040955,0.001000,0.001000,0.001000,0.001000,0.001000
