timestamp,ax,ay,az,gx,gy,gz
1000.000000,0.000000,0.001000,0.001000,0.001000,0.001000,0.001000
1000.019231,0.001238,0.001000,0.001000,0.001000,0.001000,0.001000
1000.038462,0.002476,0.001000,0.001000,0.001000,0.001000,0.001000
1000.057692,0.003711,0.001000,0.001000,0.001000,0.001000,0.001000
1000.076923,0.004945,0.001000,0.001000,0.001000,0.001000,0.001000
1000.096154,0.006176,0.001000,0.001000,0.001000,0.001000,0.001000
1000.115385,0.007402,0.001000,0.001000,0.001000,0.001000,0.001000
1000.134615,0.008625,0.001000,0.001000,0.001000,0.001000,0.001000
1000.153846,0.009842,0.001000,0.001000,0.001000,0.001000,0.001000
1000.173077,0.011052,0.001000,0.001000,0.001000,0.001000,0.001000
1000.192308,0.012257,0.001000,0.001000,0.001000,0.001000,0.001000
1000.211538,0.013453,0.001000,0.001000,0.001000,0.001000,0.001000
1000.230769,0.014642,0.001000,0.001000,0.001000,0.001000,0.001000
1000.250000,0.015821,0.001000,0.001000,0.001000,0.001000,0.001000
1000.269231,0.016991,0.001000,0.001000,0.001000,0.001000,0.001000
1000.288462,0.018150,0.001000,0.001000,0.001000,0.001000,0.001000
1000.307692,0.019298,0.001000,0.001000,0.001000,0.001000,0.001000
1000.326923,0.020434,0.001000,0.001000,0.001000,0.001000,0.001000
1000.346154,0.021558,0.001000,0.001000,0.001000,0.001000,0.001000
1000.365385,0.022669,0.001000,0.001000,0.001000,0.001000,0.001000
1000.384615,0.023765,0.001000,0.001000,0.001000,0.001000,0.001000
1000.403846,0.024847,0.001000,0.001000,0.001000,0.001000,0.001000
1000.423077,0.025914,0.001000,0.001000,0.001000,0.001000,0.001000
1000.442308,0.026965,0.001000,0.001000,0.001000,0.001000,0.001000
1000.461538,0.027999,0.001000,0.001000,0.001000,0.001000,0.001000
1000.480769,0.029017,0.001000,0.001000,0.001000,0.001000,0.001000
1000.500000,0.030016,0.001000,0.001000,0.001000,0.001000,0.001000
1000.519231,0.030997,0.001000,0.001000,0.001000,0.001000,0.001000
1000.538462,0.031959,0.001000,0.001000,0.001000,0.001000,0.001000
1000.557692,0.032902,0.001000,0.001000,0.001000,0.001000,0.001000
1000.576923,0.033824,0.001000,0.001000,0.001000,0.001000,0.001000
1000.596154,0.034725,0.001000,0.001000,0.001000,0.001000,0.001000
1000.615385,0.035605,0.001000,0.001000,0.001000,0.001000,0.001000
1000.634615,0.036464,0.001000,0.001000,0.001000,0.001000,0.001000
1000.653846,0.037300,0.001000,0.001000,0.001000,0.001000,0.001000
1000.673077,0.038113,0.001000,0.001000,0.001000,0.001000,0.001000
1000.692308,0.038903,0.001000,0.001000,0.001000,0.001000,0.001000
1000.711538,0.039669,0.001000,0.001000,0.001000,0.001000,0.001000
1000.730769,0.040410,0.001000,0.001000,0.001000,0.001000,0.001000
1000.750000,0.041127,0.001000,0.001000,0.001000,0.001000,0.001000
1000.769231,0.041818,0.001000,0.001000,0.001000,0.001000,0.001000
1000.788462,0.042484,0.001000,0.001000,0.001000,0.001000,0.001000
1000.807692,0.043124,0.001000,0.001000,0.001000,0.001000,0.001000
1000.826923,0.043737,0.001000,0.001000,0.001000,0.001000,0.001000
1000.846154,0.044324,0.001000,0.001000,0.001000,0.001000,0.001000
1000.865385,0.044883,0.001000,0.001000,0.001000,0.001000,0.001000
1000.884615,0.045415,0.001000,0.001000,0.001000,0.001000,0.001000
1000.903846,0.045919,0.001000,0.001000,0.001000,0.001000,0.001000
1000.923077,0.046395,0.001000,0.001000,0.001000,0.001000,0.001000
1000.942308,0.046843,0.001000,0.001000,0.001000,0.001000,0.001000
1000.961538,0.047261,0.001000,0.001000,0.001000,0.001000,0.001000
1000.980769,0.047651,0.001000,0.001000,0.001000,0.001000,0.001000
1001.000000,0.048011,0.001000,0.001000,0.001000,0.001000,0.001000
1001.019231,0.048342,0.001000,0.001000,0.001000,0.001000,0.001000
1001.038462,0.048644,0.001000,0.001000,0.001000,0.001000,0.001000
1001.057692,0.048915,0.001000,0.001000,0.001000,0.001000,0.001000
1001.076923,0.049157,0.001000,0.001000,0.001000,0.001000,0.001000
1001.096154,0.049368,0.001000,0.001000,0.001000,0.001000,0.001000
1001.115385,0.049549,0.001000,0.001000,0.001000,0.001000,0.001000
1001.134615,0.049700,0.001000,0.001000,0.001000,0.001000,0.001000
1001.153846,0.049820,0.001000,0.001000,0.001000,0.001000,0.001000
1001.173077,0.049910,0.001000,0.001000,0.001000,0.001000,0.001000
1001.192308,0.049969,0.001000,0.001000,0.001000,0.001000,0.001000
1001.211538,0.049997,0.001000,0.001000,0.001000,0.001000,0.001000
1001.230769,0.049995,0.001000,0.001000,0.001000,0.001000,0.001000
1001.250000,0.049962,0.001000,0.001000,0.001000,0.001000,0.001000
1001.269231,0.049898,0.001000,0.001000,0.001000,0.001000,0.001000
1001.288462,0.049804,0.001000,0.001000,0.001000,0.001000,0.001000
1001.307692,0.049680,0.001000,0.001000,0.001000,0.001000,0.001000
1001.326923,0.049524,0.001000,0.001000,0.001000,0.001000,0.001000
1001.346154,0.049339,0.001000,0.001000,0.001000,0.001000,0.001000
1001.365385,0.049123,0.001000,0.001000,0.001000,0.001000,0.001000
1001.384615,0.048877,0.001000,0.001000,0.001000,0.001000,0.001000
1001.403846,0.048601,0.001000,0.001000,0.001000,0.001000,0.001000
1001.423077,0.048296,0.001000,0.001000,0.001000,0.001000,0.001000
1001.442308,0.047960,0.001000,0.001000,0.001000,0.001000,0.001000
1001.461538,0.047595,0.001000,0.001000,0.001000,0.001000,0.001000
1001.480769,0.047202,0.001000,0.001000,0.001000,0.001000,0.001000
1001.500000,0.046779,0.001000,0.001000,0.001000,0.001000,0.001000
1001.519231,0.046327,0.001000,0.001000,0.001000,0.001000,0.001000
1001.538462,0.045847,0.001000,0.001000,0.001000,0.001000,0.001000
1001.557692,0.045339,0.001000,0.001000,0.001000,0.001000,0.001000
1001.576923,0.044803,0.001000,0.001000,0.001000,0.001000,0.001000
1001.596154,0.044240,0.001000,0.001000,0.001000,0.001000,0.001000
1001.615385,0.043649,0.001000,0.001000,0.001000,0.001000,0.001000
1001.634615,0.043032,0.001000,0.001000,0.001000,0.001000,0.001000
1001.653846,0.042388,0.001000,0.001000,0.001000,0.001000,0.001000
1001.673077,0.041719,0.001000,0.001000,0.001000,0.001000,0.001000
1001.692308,0.041023,0.001000,0.001000,0.001000,0.001000,0.001000
1001.711538,0.040303,0.001000,0.001000,0.001000,0.001000,0.001000
1001.730769,0.039558,0.001000,0.001000,0.001000,0.001000,0.001000
1001.750000,0.038788,0.001000,0.001000,0.001000,0.001000,0.001000
1001.769231,0.037995,0.001000,0.001000,0.001000,0.001000,0.001000
1001.788462,0.037179,0.001000,0.001000,0.001000,0.001000,0.001000
1001.807692,0.036339,0.001000,0.001000,0.001000,0.001000,0.001000
1001.826923,0.035478,0.001000,0.001000,0.001000,0.001000,0.001000
1001.846154,0.034594,0.001000,0.001000,0.001000,0.001000,0.001000
1001.865385,0.033690,0.001000,0.001000,0.001000,0.001000,0.001000
1001.884615,0.032765,0.001000,0.001000,0.001000,0.001000,0.001000
1001.903846,0.031819,0.001000,0.001000,0.001000,0.001000,0.001000
1001.923077,0.030854,0.001000,0.001000,0.001000,0.001000,0.001000
1001.942308,0.029871,0.001000,0.001000,0.001000,0.001000,0.001000
1001.961538,0.028869,0.001000,0.001000,0.001000,0.001000,0.001000
1001.980769,0.027849,0.001000,0.001000,0.001000,0.001000,0.001000
1002.000000,0.026812,0.001000,0.001000,0.001000,0.001000,0.001000
1002.019231,0.025759,0.001000,0.001000,0.001000,0.001000,0.001000
1002.038462,0.024690,0.001000,0.001000,0.001000,0.001000,0.001000
1002.057692,0.023605,0.001000,0.001000,0.001000,0.001000,0.001000
1002.076923,0.022507,0.001000,0.001000,0.001000,0.001000,0.001000
1002.096154,0.021394,0.001000,0.001000,0.001000,0.001000,0.001000
1002.115385,0.020268,0.001000,0.001000,0.001000,0.001000,0.001000
1002.134615,0.019130,0.001000,0.001000,0.001000,0.001000,0.001000
1002.153846,0.017980,0.001000,0.001000,0.001000,0.001000,0.001000
1002.173077,0.016820,0.001000,0.001000,0.001000,0.001000,0.001000
1002.192308,0.015649,0.001000,0.001000,0.001000,0.001000,0.001000
1002.211538,0.014468,0.001000,0.001000,0.001000,0.001000,0.001000
1002.230769,0.013278,0.001000,0.001000,0.001000,0.001000,0.001000
1002.250000,0.012080,0.001000,0.001000,0.001000,0.001000,0.001000
1002.269231,0.010875,0.001000,0.001000,0.001000,0.001000,0.001000
1002.288462,0.009663,0.001000,0.001000,0.001000,0.001000,0.001000
1002.307692,0.008446,0.001000,0.001000,0.001000,0.001000,0.001000
1002.326923,0.007223,0.001000,0.001000,0.001000,0.001000,0.001000
1002.346154,0.005995,0.001000,0.001000,0.001000,0.001000,0.001000
1002.365385,0.004764,0.001000,0.001000,0.001000,0.001000,0.001000
1002.384615,0.003530,0.001000,0.001000,0.001000,0.001000,0.001000
1002.403846,0.002294,0.001000,0.001000,0.001000,0.001000,0.001000
1002.423077,0.001057,0.001000,0.001000,0.001000,0.001000,0.001000
1002.442308,-0.000182,0.001000,0.001000,0.001000,0.001000,0.001000
1002.461538,-0.001420,0.001000,0.001000,0.001000,0.001000,0.001000
1002.480769,-0.002657,0.001000,0.001000,0.001000,0.001000,0.001000
1002.500000,-0.003893,0.001000,0.001000,0.001000,0.001000,0.001000
1002.519231,-0.005126,0.001000,0.001000,0.001000,0.001000,0.001000
1002.538462,-0.006356,0.001000,0.001000,0.001000,0.001000,0.001000
1002.557692,-0.007582,0.001000,0.001000,0.001000,0.001000,0.001000
1002.576923,-0.008803,0.001000,0.001000,0.001000,0.001000,0.001000
1002.596154,-0.010020,0.001000,0.001000,0.001000,0.001000,0.001000
1002.615385,-0.011230,0.001000,0.001000,0.001000,0.001000,0.001000
1002.634615,-0.012433,0.001000,0.001000,0.001000,0.001000,0.001000
1002.653846,-0.013628,0.001000,0.001000,0.001000,0.001000,0.001000
1002.673077,-0.014815,0.001000,0.001000,0.001000,0.001000,0.001000
1002.692308,-0.015993,0.001000,0.001000,0.001000,0.001000,0.001000
1002.711538,-0.017161,0.001000,0.001000,0.001000,0.001000,0.001000
1002.730769,-0.018319,0.001000,0.001000,0.001000,0.001000,0.001000
1002.750000,-0.019466,0.001000,0.001000,0.001000,0.001000,0.001000
1002.769231,-0.020600,0.001000,0.001000,0.001000,0.001000,0.001000
1002.788462,-0.021722,0.001000,0.001000,0.001000,0.001000,0.001000
1002.807692,-0.022830,0.001000,0.001000,0.001000,0.001000,0.001000
1002.826923,-0.023925,0.001000,0.001000,0.001000,0.001000,0.001000
1002.846154,-0.025005,0.001000,0.001000,0.001000,0.001000,0.001000
1002.865385,-0.026069,0.001000,0.001000,0.001000,0.001000,0.001000
1002.884615,-0.027118,0.001000,0.001000,0.001000,0.001000,0.001000
1002.903846,-0.028150,0.001000,0.001000,0.001000,0.001000,0.001000
1002.923077,-0.029164,0.001000,0.001000,0.001000,0.001000,0.001000
1002.942308,-0.030161,0.001000,0.001000,0.001000,0.001000,0.001000
1002.961538,-0.031140,0.001000,0.001000,0.001000,0.001000,0.001000
1002.980769,-0.032099,0.001000,0.001000,0.001000,0.001000,0.001000
1003.000000,-0.033038,0.001000,0.001000,0.001000,0.001000,0.001000
1003.019231,-0.033957,0.001000,0.001000,0.001000,0.001000,0.001000
1003.038462,-0.034856,0.001000,0.001000,0.001000,0.001000,0.001000
1003.057692,-0.035733,0.001000,0.001000,0.001000,0.001000,0.001000
1003.076923,-0.036588,0.001000,0.001000,0.001000,0.001000,0.001000
1003.096154,-0.037421,0.001000,0.001000,0.001000,0.001000,0.001000
1003.115385,-0.038230,0.001000,0.001000,0.001000,0.001000,0.001000
1003.134615,-0.039017,0.001000,0.001000,0.001000,0.001000,0.001000
1003.153846,-0.039779,0.001000,0.001000,0.001000,0.001000,0.001000
1003.173077,-0.040517,0.001000,0.001000,0.001000,0.001000,0.001000
1003.192308,-0.041230,0.001000,0.001000,0.001000,0.001000,0.001000
1003.211538,-0.041918,0.001000,0.001000,0.001000,0.001000,0.001000
1003.230769,-0.042580,0.001000,0.001000,0.001000,0.001000,0.001000
1003.250000,-0.043216,0.001000,0.001000,0.001000,0.001000,0.001000
1003.269231,-0.043825,0.001000,0.001000,0.001000,0.001000,0.001000
1003.288462,-0.044408,0.001000,0.001000,0.001000,0.001000,0.001000
1003.307692,-0.044963,0.001000,0.001000,0.001000,0.001000,0.001000
1003.326923,-0.045491,0.001000,0.001000,0.001000,0.001000,0.001000
1003.346154,-0.045991,0.001000,0.001000,0.001000,0.001000,0.001000
1003.365385,-0.046463,0.001000,0.001000,0.001000,0.001000,0.001000
1003.384615,-0.046906,0.001000,0.001000,0.001000,0.001000,0.001000
1003.403846,-0.047320,0.001000,0.001000,0.001000,0.001000,0.001000
1003.423077,-0.047706,0.001000,0.001000,0.001000,0.001000,0.001000
1003.442308,-0.048062,0.001000,0.001000,0.001000,0.001000,0.001000
1003.461538,-0.048388,0.001000,0.001000,0.001000,0.001000,0.001000
1003.480769,-0.048685,0.001000,0.001000,0.001000,0.001000,0.001000
1003.500000,-0.048952,0.001000,0.001000,0.001000,0.001000,0.001000
1003.519231,-0.049190,0.001000,0.001000,0.001000,0.001000,0.001000
1003.538462,-0.049397,0.001000,0.001000,0.001000,0.001000,0.001000
1003.557692,-0.049573,0.001000,0.001000,0.001000,0.001000,0.001000
1003.576923,-0.049719,0.001000,0.001000,0.001000,0.001000,0.001000
1003.596154,-0.049835,0.001000,0.001000,0.001000,0.001000,0.001000
1003.615385,-0.049920,0.001000,0.001000,0.001000,0.001000,0.001000
1003.634615,-0.049975,0.001000,0.001000,0.001000,0.001000,0.001000
1003.653846,-0.049999,0.001000,0.001000,0.001000,0.001000,0.001000
1003.673077,-0.049992,0.001000,0.001000,0.001000,0.001000,0.001000
1003.692308,-0.049955,0.001000,0.001000,0.001000,0.001000,0.001000
1003.711538,-0.049887,0.001000,0.001000,0.001000,0.001000,0.001000
1003.730769,-0.049788,0.001000,0.001000,0.001000,0.001000,0.001000
1003.750000,-0.049659,0.001000,0.001000,0.001000,0.001000,0.001000
1003.769231,-0.049499,0.001000,0.001000,0.001000,0.001000,0.001000
1003.788462,-0.049309,0.001000,0.001000,0.001000,0.001000,0.001000
1003.807692,-0.049089,0.001000,0.001000,0.001000,0.001000,0.001000
1003.826923,-0.048839,0.001000,0.001000,0.001000,0.001000,0.001000
1003.846154,-0.048558,0.001000,0.001000,0.001000,0.001000,0.001000
1003.865385,-0.048248,0.001000,0.001000,0.001000,0.001000,0.001000
1003.884615,-0.047909,0.001000,0.001000,0.001000,0.001000,0.001000
1003.903846,-0.047540,0.001000,0.001000,0.001000,0.001000,0.001000
1003.923077,-0.047141,0.001000,0.001000,0.001000,0.001000,0.001000
1003.942308,-0.046714,0.001000,0.001000,0.001000,0.001000,0.001000
1003.961538,-0.046258,0.001000,0.001000,0.001000,0.001000,0.001000
1003.980769,-0.045774,0.001000,0.001000,0.001000,0.001000,0.001000
1004.000000,-0.045262,0.001000,0.001000,0.001000,0.001000,0.001000
1004.019231,-0.044722,0.001000,0.001000,0.001000,0.001000,0.001000
1004.038462,-0.044155,0.001000,0.001000,0.001000,0.001000,0.001000
1004.057692,-0.043560,0.001000,0.001000,0.001000,0.001000,0.001000
1004.076923,-0.042939,0.001000,0.001000,0.001000,0.001000,0.001000
1004.096154,-0.042292,0.001000,0.001000,0.001000,0.001000,0.001000
1004.115385,-0.041618,0.001000,0.001000,0.001000,0.001000,0.001000
1004.134615,-0.040919,0.001000,0.001000,0.001000,0.001000,0.001000
1004.153846,-0.040195,0.001000,0.001000,0.001000,0.001000,0.001000
1004.173077,-0.039446,0.001000,0.001000,0.001000,0.001000,0.001000
1004.192308,-0.038673,0.001000,0.001000,0.001000,0.001000,0.001000
1004.211538,-0.037877,0.001000,0.001000,0.001000,0.001000,0.001000
1004.230769,-0.037057,0.001000,0.001000,0.001000,0.001000,0.001000
1004.250000,-0.036214,0.001000,0.001000,0.001000,0.001000,0.001000
1004.269231,-0.035349,0.001000,0.001000,0.001000,0.001000,0.001000
1004.288462,-0.034463,0.001000,0.001000,0.001000,0.001000,0.001000
1004.307692,-0.033555,0.001000,0.001000,0.001000,0.001000,0.001000
1004.326923,-0.032627,0.001000,0.001000,0.001000,0.001000,0.001000
1004.346154,-0.031679,0.001000,0.001000,0.001000,0.001000,0.001000
1004.365385,-0.030711,0.001000,0.001000,0.001000,0.001000,0.001000
1004.384615,-0.029725,0.001000,0.001000,0.001000,0.001000,0.001000
1004.403846,-0.028720,0.001000,0.001000,0.001000,0.001000,0.001000
1004.423077,-0.027698,0.001000,0.001000,0.001000,0.001000,0.001000
1004.442308,-0.026658,0.001000,0.001000,0.001000,0.001000,0.001000
1004.461538,-0.025603,0.001000,0.001000,0.001000,0.001000,0.001000
1004.480769,-0.024531,0.001000,0.001000,0.001000,0.001000,0.001000
1004.500000,-0.023445,0.001000,0.001000,0.001000,0.001000,0.001000
1004.519231,-0.022344,0.001000,0.001000,0.001000,0.001000,0.001000
1004.538462,-0.021230,0.001000,0.001000,0.001000,0.001000,0.001000
1004.557692,-0.020102,0.001000,0.001000,0.001000,0.001000,0.001000
1004.576923,-0.018962,0.001000,0.001000,0.001000,0.001000,0.001000
1004.596154,-0.017811,0.001000,0.001000,0.001000,0.001000,0.001000
1004.615385,-0.016648,0.001000,0.001000,0.001000,0.001000,0.001000
1004.634615,-0.015476,0.001000,0.001000,0.001000,0.001000,0.001000
1004.653846,-0.014294,0.001000,0.001000,0.001000,0.001000,0.001000
1004.673077,-0.013103,0.001000,0.001000,0.001000,0.001000,0.001000
1004.692308,-0.011904,0.001000,0.001000,0.001000,0.001000,0.001000
1004.711538,-0.010698,0.001000,0.001000,0.001000,0.001000,0.001000
1004.730769,-0.009485,0.001000,0.001000,0.001000,0.001000,0.001000
1004.750000,-0.008266,0.001000,0.001000,0.001000,0.001000,0.001000
1004.769231,-0.007043,0.001000,0.001000,0.001000,0.001000,0.001000
1004.788462,-0.005815,0.001000,0.001000,0.001000,0.001000,0.001000
1004.807692,-0.004583,0.001000,0.001000,0.001000,0.001000,0.001000
1004.826923,-0.003349,0.001000,0.001000,0.001000,0.001000,0.001000
1004.846154,-0.002113,0.001000,0.001000,0.001000,0.001000,0.001000
1004.865385,-0.000875,0.001000,0.001000,0.001000,0.001000,0.001000
1004.884615,0.000363,0.001000,0.001000,0.001000,0.001000,0.001000
1004.903846,0.001601,0.001000,0.001000,0.001000,0.001000,0.001000
1004.923077,0.002838,0.001000,0.001000,0.001000,0.001000,0.001000
1004.942308,0.004074,0.001000,0.001000,0.001000,0.001000,0.001000
1004.961538,0.005306,0.001000,0.001000,0.001000,0.001000,0.001000
1004.980769,0.006536,0.001000,0.001000,0.001000,0.001000,0.001000
1005.000000,0.007762,0.001000,0.001000,0.001000,0.001000,0.001000
1005.019231,0.008982,0.001000,0.001000,0.001000,0.001000,0.001000
1005.038462,0.010198,0.001000,0.001000,0.001000,0.001000,0.001000
1005.057692,0.011407,0.001000,0.001000,0.001000,0.001000,0.001000
1005.076923,0.012609,0.001000,0.001000,0.001000,0.001000,0.001000
1005.096154,0.013803,0.001000,0.001000,0.001000,0.001000,0.001000
1005.115385,0.014989,0.001000,0.001000,0.001000,0.001000,0.001000
1005.134615,0.016165,0.001000,0.001000,0.001000,0.001000,0.001000
1005.153846,0.017332,0.001000,0.001000,0.001000,0.001000,0.001000
1005.173077,0.018488,0.001000,0.001000,0.001000,0.001000,0.001000
1005.192308,0.019633,0.001000,0.001000,0.001000,0.001000,0.001000
1005.211538,0.020765,0.001000,0.001000,0.001000,0.001000,0.001000
1005.230769,0.021885,0.001000,0.001000,0.001000,0.001000,0.001000
1005.250000,0.022992,0.001000,0.001000,0.001000,0.001000,0.001000
1005.269231,0.024084,0.001000,0.001000,0.001000,0.001000,0.001000
1005.288462,0.025162,0.001000,0.001000,0.001000,0.001000,0.001000
1005.307692,0.026224,0.001000,0.001000,0.001000,0.001000,0.001000
1005.326923,0.027270,0.001000,0.001000,0.001000,0.001000,0.001000
1005.346154,0.028300,0.001000,0.001000,0.001000,0.001000,0.001000
1005.365385,0.029312,0.001000,0.001000,0.001000,0.001000,0.001000
1005.384615,0.030306,0.001000,0.001000,0.001000,0.001000,0.001000
1005.403846,0.031281,0.001000,0.001000,0.001000,0.001000,0.001000
1005.423077,0.032238,0.001000,0.001000,0.001000,0.001000,0.001000
1005.442308,0.033174,0.001000,0.001000,0.001000,0.001000,0.001000
1005.461538,0.034090,0.001000,0.001000,0.001000,0.001000,0.001000
1005.480769,0.034986,0.001000,0.001000,0.001000,0.001000,0.001000
1005.500000,0.035860,0.001000,0.001000,0.001000,0.001000,0.001000
1005.519231,0.036711,0.001000,0.001000,0.001000,0.001000,0.001000
1005.538462,0.037541,0.001000,0.001000,0.001000,0.001000,0.001000
1005.557692,0.038347,0.001000,0.001000,0.001000,0.001000,0.001000
1005.576923,0.039130,0.001000,0.001000,0.001000,0.001000,0.001000
1005.596154,0.039889,0.001000,0.001000,0.001000,0.001000,0.001000
1005.615385,0.040623,0.001000,0.001000,0.001000,0.001000,0.001000
1005.634615,0.041332,0.001000,0.001000,0.001000,0.001000,0.001000
1005.653846,0.042016,0.001000,0.001000,0.001000,0.001000,0.001000
1005.673077,0.042675,0.001000,0.001000,0.001000,0.001000,0.001000
1005.692308,0.043307,0.001000,0.001000,0.001000,0.001000,0.001000
1005.711538,0.043912,0.001000,0.001000,0.001000,0.001000,0.001000
1005.730769,0.044491,0.001000,0.001000,0.001000,0.001000,0.001000
1005.750000,0.045042,0.001000,0.001000,0.001000,0.001000,0.001000
1005.769231,0.045566,0.001000,0.001000,0.001000,0.001000,0.001000
1005.788462,0.046062,0.001000,0.001000,0.001000,0.001000,0.001000
1005.807692,0.046529,0.001000,0.001000,0.001000,0.001000,0.001000
1005.826923,0.046968,0.001000,0.001000,0.001000,0.001000,0.001000
1005.846154,0.047379,0.001000,0.001000,0.001000,0.001000,0.001000
1005.865385,0.047760,0.001000,0.001000,0.001000,0.001000,0.001000
1005.884615,0.048111,0.001000,0.001000,0.001000,0.001000,0.001000
1005.903846,0.048434,0.001000,0.001000,0.001000,0.001000,0.001000
1005.923077,0.048726,0.001000,0.001000,0.001000,0.001000,0.001000
1005.942308,0.048989,0.001000,0.001000,0.001000,0.001000,0.001000
1005.961538,0.049222,0.001000,0.001000,0.001000,0.001000,0.001000
1005.980769,0.049424,0.001000,0.001000,0.001000,0.001000,0.001000
1006.000000,0.049597,0.001000,0.001000,0.001000,0.001000,0.001000
1006.019231,0.049738,0.001000,0.001000,0.001000,0.001000,0.001000
1006.038462,0.049850,0.001000,0.001000,0.001000,0.001000,0.001000
1006.057692,0.049930,0.001000,0.001000,0.001000,0.001000,0.001000
1006.076923,0.049980,0.001000,0.001000,0.001000,0.001000,0.001000
1006.096154,0.050000,0.001000,0.001000,0.001000,0.001000,0.001000
1006.115385,0.049988,0.001000,0.001000,0.001000,0.001000,0.001000
1006.134615,0.049947,0.001000,0.001000,0.001000,0.001000,0.001000
1006.153846,0.049874,0.001000,0.001000,0.001000,0.001000,0.001000
1006.173077,0.049771,0.001000,0.001000,0.001000,0.001000,0.001000
1006.192308,0.049637,0.001000,0.001000,0.001000,0.001000,0.001000
1006.211538,0.049473,0.001000,0.001000,0.001000,0.001000,0.001000
1006.230769,0.049279,0.001000,0.001000,0.001000,0.001000,0.001000
1006.250000,0.049054,0.001000,0.001000,0.001000,0.001000,0.001000
1006.269231,0.048799,0.001000,0.001000,0.001000,0.001000,0.001000
1006.288462,0.048515,0.001000,0.001000,0.001000,0.001000,0.001000
1006.307692,0.048200,0.001000,0.001000,0.001000,0.001000,0.001000
1006.326923,0.047856,0.001000,0.001000,0.001000,0.001000,0.001000
1006.346154,0.047483,0.001000,0.001000,0.001000,0.001000,0.001000
1006.365385,0.047080,0.001000,0.001000,0.001000,0.001000,0.001000
1006.384615,0.046649,0.001000,0.001000,0.001000,0.001000,0.001000
1006.403846,0.046189,0.001000,0.001000,0.001000,0.001000,0.001000
1006.423077,0.045701,0.001000,0.001000,0.001000,0.001000,0.001000
1006.442308,0.045185,0.001000,0.001000,0.001000,0.001000,0.001000
1006.461538,0.044641,0.001000,0.001000,0.001000,0.001000,0.001000
1006.480769,0.044069,0.001000,0.001000,0.001000,0.001000,0.001000
1006.500000,0.043471,0.001000,0.001000,0.001000,0.001000,0.001000
1006.519231,0.042846,0.001000,0.001000,0.001000,0.001000,0.001000
1006.538462,0.042194,0.001000,0.001000,0.001000,0.001000,0.001000
1006.557692,0.041517,0.001000,0.001000,0.001000,0.001000,0.001000
1006.576923,0.040814,0.001000,0.001000,0.001000,0.001000,0.001000
1006.596154,0.040087,0.001000,0.001000,0.001000,0.001000,0.001000
1006.615385,0.039334,0.001000,0.001000,0.001000,0.001000,0.001000
1006.634615,0.038558,0.001000,0.001000,0.001000,0.001000,0.001000
1006.653846,0.037758,0.001000,0.001000,0.001000,0.001000,0.001000
1006.673077,0.036935,0.001000,0.001000,0.001000,0.001000,0.001000
1006.692308,0.036089,0.001000,0.001000,0.001000,0.001000,0.001000
1006.711538,0.035221,0.001000,0.001000,0.001000,0.001000,0.001000
1006.730769,0.034331,0.001000,0.001000,0.001000,0.001000,0.001000
1006.750000,0.033420,0.001000,0.001000,0.001000,0.001000,0.001000
1006.769231,0.032489,0.001000,0.001000,0.001000,0.001000,0.001000
1006.788462,0.031538,0.001000,0.001000,0.001000,0.001000,0.001000
1006.807692,0.030568,0.001000,0.001000,0.001000,0.001000,0.001000
1006.826923,0.029578,0.001000,0.001000,0.001000,0.001000,0.001000
1006.846154,0.028571,0.001000,0.001000,0.001000,0.001000,0.001000
1006.865385,0.027546,0.001000,0.001000,0.001000,0.001000,0.001000
1006.884615,0.026505,0.001000,0.001000,0.001000,0.001000,0.001000
1006.903846,0.025447,0.001000,0.001000,0.001000,0.001000,0.001000
1006.923077,0.024373,0.001000,0.001000,0.001000,0.001000,0.001000
1006.942308,0.023284,0.001000,0.001000,0.001000,0.001000,0.001000
1006.961538,0.022181,0.001000,0.001000,0.001000,0.001000,0.001000
1006.980769,0.021065,0.001000,0.001000,0.001000,0.001000,0.001000
1007.000000,0.019936,0.001000,0.001000,0.001000,0.001000,0.001000
1007.019231,0.018794,0.001000,0.001000,0.001000,0.001000,0.001000
1007.038462,0.017641,0.001000,0.001000,0.001000,0.001000,0.001000
1007.057692,0.016477,0.001000,0.001000,0.001000,0.001000,0.001000
1007.076923,0.015303,0.001000,0.001000,0.001000,0.001000,0.001000
1007.096154,0.014120,0.001000,0.001000,0.001000,0.001000,0.001000
1007.115385,0.012927,0.001000,0.001000,0.001000,0.001000,0.001000
1007.134615,0.011727,0.001000,0.001000,0.001000,0.001000,0.001000
1007.153846,0.010520,0.001000,0.001000,0.001000,0.001000,0.001000
1007.173077,0.009307,0.001000,0.001000,0.001000,0.001000,0.001000
1007.192308,0.008087,0.001000,0.001000,0.001000,0.001000,0.001000
1007.211538,0.006863,0.001000,0.001000,0.001000,0.001000,0.001000
1007.230769,0.005634,0.001000,0.001000,0.001000,0.001000,0.001000
1007.250000,0.004402,0.001000,0.001000,0.001000,0.001000,0.001000
1007.269231,0.003168,0.001000,0.001000,0.001000,0.001000,0.001000
1007.288462,0.001931,0.001000,0.001000,0.001000,0.001000,0.001000
1007.307692,0.000693,0.001000,0.001000,0.001000,0.001000,0.001000
1007.326923,-0.000545,0.001000,0.001000,0.001000,0.001000,0.001000
1007.346154,-0.001783,0.001000,0.001000,0.001000,0.001000,0.001000
1007.365385,-0.003020,0.001000,0.001000,0.001000,0.001000,0.001000
1007.384615,-0.004255,0.001000,0.001000,0.001000,0.001000,0.001000
1007.403846,-0.005487,0.001000,0.001000,0.001000,0.001000,0.001000
1007.423077,-0.006716,0.001000,0.001000,0.001000,0.001000,0.001000
1007.442308,-0.007941,0.001000,0.001000,0.001000,0.001000,0.001000
1007.461538,-0.009161,0.001000,0.001000,0.001000,0.001000,0.001000
1007.480769,-0.010375,0.001000,0.001000,0.001000,0.001000,0.001000
1007.500000,-0.011583,0.001000,0.001000,0.001000,0.001000,0.001000
1007.519231,-0.012784,0.001000,0.001000,0.001000,0.001000,0.001000
1007.538462,-0.013977,0.001000,0.001000,0.001000,0.001000,0.001000
1007.557692,-0.015162,0.001000,0.001000,0.001000,0.001000,0.001000
1007.576923,-0.016337,0.001000,0.001000,0.001000,0.001000,0.001000
1007.596154,-0.017502,0.001000,0.001000,0.001000,0.001000,0.001000
1007.615385,-0.018657,0.001000,0.001000,0.001000,0.001000,0.001000
1007.634615,-0.019800,0.001000,0.001000,0.001000,0.001000,0.001000
1007.653846,-0.020931,0.001000,0.001000,0.001000,0.001000,0.001000
1007.673077,-0.022049,0.001000,0.001000,0.001000,0.001000,0.001000
1007.692308,-0.023153,0.001000,0.001000,0.001000,0.001000,0.001000
1007.711538,-0.024243,0.001000,0.001000,0.001000,0.001000,0.001000
1007.730769,-0.025319,0.001000,0.001000,0.001000,0.001000,0.001000
1007.750000,-0.026379,0.001000,0.001000,0.001000,0.001000,0.001000
1007.769231,-0.027422,0.001000,0.001000,0.001000,0.001000,0.001000
1007.788462,-0.028449,0.001000,0.001000,0.001000,0.001000,0.001000
1007.807692,-0.029459,0.001000,0.001000,0.001000,0.001000,0.001000
1007.826923,-0.030450,0.001000,0.001000,0.001000,0.001000,0.001000
1007.846154,-0.031423,0.001000,0.001000,0.001000,0.001000,0.001000
1007.865385,-0.032376,0.001000,0.001000,0.001000,0.001000,0.001000
1007.884615,-0.033310,0.001000,0.001000,0.001000,0.001000,0.001000
1007.903846,-0.034223,0.001000,0.001000,0.001000,0.001000,0.001000
1007.923077,-0.035115,0.001000,0.001000,0.001000,0.001000,0.001000
1007.942308,-0.035986,0.001000,0.001000,0.001000,0.001000,0.001000
1007.961538,-0.036835,0.001000,0.001000,0.001000,0.001000,0.001000
1007.980769,-0.037661,0.001000,0.001000,0.001000,0.001000,0.001000
1008.000000,-0.038463,0.001000,0.001000,0.001000,0.001000,0.001000
1008.019231,-0.039243,0.001000,0.001000,0.001000,0.001000,0.001000
1008.038462,-0.039998,0.001000,0.001000,0.001000,0.001000,0.001000
1008.057692,-0.040729,0.001000,0.001000,0.001000,0.001000,0.001000
1008.076923,-0.041434,0.001000,0.001000,0.001000,0.001000,0.001000
1008.096154,-0.042115,0.001000,0.001000,0.001000,0.001000,0.001000
1008.115385,-0.042769,0.001000,0.001000,0.001000,0.001000,0.001000
1008.134615,-0.043397,0.001000,0.001000,0.001000,0.001000,0.001000
1008.153846,-0.043999,0.001000,0.001000,0.001000,0.001000,0.001000
1008.173077,-0.044574,0.001000,0.001000,0.001000,0.001000,0.001000
1008.192308,-0.045121,0.001000,0.001000,0.001000,0.001000,0.001000
1008.211538,-0.045641,0.001000,0.001000,0.001000,0.001000,0.001000
1008.230769,-0.046132,0.001000,0.001000,0.001000,0.001000,0.001000
1008.250000,-0.046596,0.001000,0.001000,0.001000,0.001000,0.001000
1008.269231,-0.047030,0.001000,0.001000,0.001000,0.001000,0.001000
1008.288462,-0.047436,0.001000,0.001000,0.001000,0.001000,0.001000
1008.307692,-0.047813,0.001000,0.001000,0.001000,0.001000,0.001000
1008.326923,-0.048161,0.001000,0.001000,0.001000,0.001000,0.001000
1008.346154,-0.048479,0.001000,0.001000,0.001000,0.001000,0.001000
1008.365385,-0.048767,0.001000,0.001000,0.001000,0.001000,0.001000
1008.384615,-0.049025,0.001000,0.001000,0.001000,0.001000,0.001000
1008.403846,-0.049253,0.001000,0.001000,0.001000,0.001000,0.001000
1008.423077,-0.049451,0.001000,0.001000,0.001000,0.001000,0.001000
1008.442308,-0.049619,0.001000,0.001000,0.001000,0.001000,0.001000
1008.461538,-0.049757,0.001000,0.001000,0.001000,0.001000,0.001000
1008.480769,-0.049863,0.001000,0.001000,0.001000,0.001000,0.001000
1008.500000,-0.049940,0.001000,0.001000,0.001000,0.001000,0.001000
1008.519231,-0.049985,0.001000,0.001000,0.001000,0.001000,0.001000
1008.538462,-0.050000,0.001000,0.001000,0.001000,0.001000,0.001000
1008.557692,-0.049984,0.001000,0.001000,0.001000,0.001000,0.001000
1008.576923,-0.049938,0.001000,0.001000,0.001000,0.001000,0.001000
1008.596154,-0.049861,0.001000,0.001000,0.001000,0.001000,0.001000
1008.615385,-0.049753,0.001000,0.001000,0.001000,0.001000,0.001000
1008.634615,-0.049615,0.001000,0.001000,0.001000,0.001000,0.001000
1008.653846,-0.049447,0.001000,0.001000,0.001000,0.001000,0.001000
1008.673077,-0.049248,0.001000,0.001000,0.001000,0.001000,0.001000
1008.692308,-0.049019,0.001000,0.001000,0.001000,0.001000,0.001000
1008.711538,-0.048759,0.001000,0.001000,0.001000,0.001000,0.001000
1008.730769,-0.048470,0.001000,0.001000,0.001000,0.001000,0.001000
1008.750000,-0.048152,0.001000,0.001000,0.001000,0.001000,0.001000
1008.769231,-0.047803,0.001000,0.001000,0.001000,0.001000,0.001000
1008.788462,-0.047426,0.001000,0.001000,0.001000,0.001000,0.001000
1008.807692,-0.047019,0.001000,0.001000,0.001000,0.001000,0.001000
1008.826923,-0.046583,0.001000,0.001000,0.001000,0.001000,0.001000
1008.846154,-0.046119,0.001000,0.001000,0.001000,0.001000,0.001000
1008.865385,-0.045627,0.001000,0.001000,0.001000,0.001000,0.001000
1008.884615,-0.045107,0.001000,0.001000,0.001000,0.001000,0.001000
1008.903846,-0.044558,0.001000,0.001000,0.001000,0.001000,0.001000
1008.923077,-0.043983,0.001000,0.001000,0.001000,0.001000,0.001000
1008.942308,-0.043381,0.001000,0.001000,0.001000,0.001000,0.001000
1008.961538,-0.042752,0.001000,0.001000,0.001000,0.001000,0.001000
1008.980769,-0.042097,0.001000,0.001000,0.001000,0.001000,0.001000
1009.000000,-0.041416,0.001000,0.001000,0.001000,0.001000,0.001000
1009.019231,-0.040709,0.001000,0.001000,0.001000,0.001000,0.001000
1009.038462,-0.039978,0.001000,0.001000,0.001000,0.001000,0.001000
1009.057692,-0.039222,0.001000,0.001000,0.001000,0.001000,0.001000
1009.076923,-0.038442,0.001000,0.001000,0.001000,0.001000,0.001000
1009.096154,-0.037639,0.001000,0.001000,0.001000,0.001000,0.001000
1009.115385,-0.036812,0.001000,0.001000,0.001000,0.001000,0.001000
1009.134615,-0.035963,0.001000,0.001000,0.001000,0.001000,0.001000
1009.153846,-0.035092,0.001000,0.001000,0.001000,0.001000,0.001000
1009.173077,-0.034199,0.001000,0.001000,0.001000,0.001000,0.001000
1009.192308,-0.033285,0.001000,0.001000,0.001000,0.001000,0.001000
1009.211538,-0.032351,0.001000,0.001000,0.001000,0.001000,0.001000
1009.230769,-0.031397,0.001000,0.001000,0.001000,0.001000,0.001000
1009.250000,-0.030424,0.001000,0.001000,0.001000,0.001000,0.001000
1009.269231,-0.029432,0.001000,0.001000,0.001000,0.001000,0.001000
1009.288462,-0.028422,0.001000,0.001000,0.001000,0.001000,0.001000
1009.307692,-0.027394,0.001000,0.001000,0.001000,0.001000,0.001000
1009.326923,-0.026350,0.001000,0.001000,0.001000,0.001000,0.001000
1009.346154,-0.025290,0.001000,0.001000,0.001000,0.001000,0.001000
1009.365385,-0.024214,0.001000,0.001000,0.001000,0.001000,0.001000
1009.384615,-0.023123,0.001000,0.001000,0.001000,0.001000,0.001000
1009.403846,-0.022019,0.001000,0.001000,0.001000,0.001000,0.001000
1009.423077,-0.020900,0.001000,0.001000,0.001000,0.001000,0.001000
1009.442308,-0.019769,0.001000,0.001000,0.001000,0.001000,0.001000
1009.461538,-0.018626,0.001000,0.001000,0.001000,0.001000,0.001000
1009.480769,-0.017471,0.001000,0.001000,0.001000,0.001000,0.001000
1009.500000,-0.016305,0.001000,0.001000,0.001000,0.001000,0.001000
1009.519231,-0.015130,0.001000,0.001000,0.001000,0.001000,0.001000
1009.538462,-0.013945,0.001000,0.001000,0.001000,0.001000,0.001000
1009.557692,-0.012752,0.001000,0.001000,0.001000,0.001000,0.001000
1009.576923,-0.011551,0.001000,0.001000,0.001000,0.001000,0.001000
1009.596154,-0.010343,0.001000,0.001000,0.001000,0.001000,0.001000
1009.615385,-0.009128,0.001000,0.001000,0.001000,0.001000,0.001000
1009.634615,-0.007908,0.001000,0.001000,0.001000,0.001000,0.001000
1009.653846,-0.006683,0.001000,0.001000,0.001000,0.001000,0.001000
1009.673077,-0.005454,0.001000,0.001000,0.001000,0.001000,0.001000
1009.692308,-0.004221,0.001000,0.001000,0.001000,0.001000,0.001000
1009.711538,-0.002986,0.001000,0.001000,0.001000,0.001000,0.001000
1009.730769,-0.001749,0.001000,0.001000,0.001000,0.001000,0.001000
1009.750000,-0.000512,0.001000,0.001000,0.001000,0.001000,0.001000
1009.769231,0.000727,0.001000,0.001000,0.001000,0.001000,0.001000
1009.788462,0.001964,0.001000,0.001000,0.001000,0.001000,0.001000
1009.807692,0.003201,0.001000,0.001000,0.001000,0.001000,0.001000
1009.826923,0.004436,0.001000,0.001000,0.001000,0.001000,0.001000
1009.846154,0.005668,0.001000,0.001000,0.001000,0.001000,0.001000
1009.865385,0.006896,0.001000,0.001000,0.001000,0.001000,0.001000
1009.884615,0.008120,0.001000,0.001000,0.001000,0.001000,0.001000
1009.903846,0.009339,0.001000,0.001000,0.001000,0.001000,0.001000
1009.923077,0.010553,0.001000,0.001000,0.001000,0.001000,0.001000
1009.942308,0.011760,0.001000,0.001000,0.001000,0.001000,0.001000
1009.961538,0.012960,0.001000,0.001000,0.001000,0.001000,0.001000
1009.980769,0.014152,0.001000,0.001000,0.001000,0.001000,0.001000
1010.000000,0.015335,0.001000,0.001000,0.001000,0.001000,0.001000
1010.019231,0.016509,0.001000,0.001000,0.001000,0.001000,0.001000
1010.038462,0.017672,0.001000,0.001000,0.001000,0.001000,0.001000
1010.057692,0.018825,0.001000,0.001000,0.001000,0.001000,0.001000
1010.076923,0.019966,0.001000,0.001000,0.001000,0.001000,0.001000
1010.096154,0.021095,0.001000,0.001000,0.001000,0.001000,0.001000
1010.115385,0.022211,0.001000,0.001000,0.001000,0.001000,0.001000
1010.134615,0.023314,0.001000,0.001000,0.001000,0.001000,0.001000
1010.153846,0.024402,0.001000,0.001000,0.001000,0.001000,0.001000
1010.173077,0.025475,0.001000,0.001000,0.001000,0.001000,0.001000
1010.192308,0.026533,0.001000,0.001000,0.001000,0.001000,0.001000
1010.211538,0.027574,0.001000,0.001000,0.001000,0.001000,0.001000
1010.230769,0.028599,0.001000,0.001000,0.001000,0.001000,0.001000
1010.250000,0.029605,0.001000,0.001000,0.001000,0.001000,0.001000
1010.269231,0.030594,0.001000,0.001000,0.001000,0.001000,0.001000
1010.288462,0.031564,0.001000,0.001000,0.001000,0.001000,0.001000
1010.307692,0.032515,0.001000,0.001000,0.001000,0.001000,0.001000
1010.326923,0.033445,0.001000,0.001000,0.001000,0.001000,0.001000
1010.346154,0.034355,0.001000,0.001000,0.001000,0.001000,0.001000
1010.365385,0.035244,0.001000,0.001000,0.001000,0.001000,0.001000
1010.384615,0.036112,0.001000,0.001000,0.001000,0.001000,0.001000
1010.403846,0.036957,0.001000,0.001000,0.001000,0.001000,0.001000
1010.423077,0.037780,0.001000,0.001000,0.001000,0.001000,0.001000
1010.442308,0.038579,0.001000,0.001000,0.001000,0.001000,0.001000
1010.461538,0.039355,0.001000,0.001000,0.001000,0.001000,0.001000
1010.480769,0.040107,0.001000,0.001000,0.001000,0.001000,0.001000
1010.500000,0.040834,0.001000,0.001000,0.001000,0.001000,0.001000
1010.519231,0.041536,0.001000,0.001000,0.001000,0.001000,0.001000
1010.538462,0.042212,0.001000,0.001000,0.001000,0.001000,0.001000
1010.557692,0.042863,0.001000,0.001000,0.001000,0.001000,0.001000
1010.576923,0.043487,0.001000,0.001000,0.001000,0.001000,0.001000
1010.596154,0.044085,0.001000,0.001000,0.001000,0.001000,0.001000
1010.615385,0.044656,0.001000,0.001000,0.001000,0.001000,0.001000
1010.634615,0.045199,0.001000,0.001000,0.001000,0.001000,0.001000
1010.653846,0.045714,0.001000,0.001000,0.001000,0.001000,0.001000
1010.673077,0.046202,0.001000,0.001000,0.001000,0.001000,0.001000
1010.692308,0.046661,0.001000,0.001000,0.001000,0.001000,0.001000
1010.711538,0.047092,0.001000,0.001000,0.001000,0.001000,0.001000
1010.730769,0.047493,0.001000,0.001000,0.001000,0.001000,0.001000
1010.750000,0.047866,0.001000,0.001000,0.001000,0.001000,0.001000
1010.769231,0.048209,0.001000,0.001000,0.001000,0.001000,0.001000
1010.788462,0.048523,0.001000,0.001000,0.001000,0.001000,0.001000
1010.807692,0.048807,0.001000,0.001000,0.001000,0.001000,0.001000
1010.826923,0.049061,0.001000,0.001000,0.001000,0.001000,0.001000
1010.846154,0.049284,0.001000,0.001000,0.001000,0.001000,0.001000
1010.865385,0.049478,0.001000,0.001000,0.001000,0.001000,0.001000
1010.884615,0.049641,0.001000,0.001000,0.001000,0.001000,0.001000
1010.903846,0.049774,0.001000,0.001000,0.001000,0.001000,0.001000
1010.923077,0.049876,0.001000,0.001000,0.001000,0.001000,0.001000
1010.942308,0.049948,0.001000,0.001000,0.001000,0.001000,0.001000
1010.961538,0.049989,0.001000,0.001000,0.001000,0.001000,0.001000
1010.980769,0.050000,0.001000,0.001000,0.001000,0.001000,0.001000
1011.000000,0.049979,0.001000,0.001000,0.001000,0.001000,0.001000
1011.019231,0.049928,0.001000,0.001000,0.001000,0.001000,0.001000
1011.038462,0.049847,0.001000,0.001000,0.001000,0.001000,0.001000
1011.057692,0.049735,0.001000,0.001000,0.001000,0.001000,0.001000
1011.076923,0.049592,0.001000,0.001000,0.001000,0.001000,0.001000
1011.096154,0.049419,0.001000,0.001000,0.001000,0.001000,0.001000
1011.115385,0.049216,0.001000,0.001000,0.001000,0.001000,0.001000
1011.134615,0.048982,0.001000,0.001000,0.001000,0.001000,0.001000
1011.153846,0.048719,0.001000,0.001000,0.001000,0.001000,0.001000
1011.173077,0.048425,0.001000,0.001000,0.001000,0.001000,0.001000
1011.192308,0.048102,0.001000,0.001000,0.001000,0.001000,0.001000
1011.211538,0.047750,0.001000,0.001000,0.001000,0.001000,0.001000
1011.230769,0.047368,0.001000,0.001000,0.001000,0.001000,0.001000
1011.250000,0.046957,0.001000,0.001000,0.001000,0.001000,0.001000
1011.269231,0.046517,0.001000,0.001000,0.001000,0.001000,0.001000
1011.288462,0.046049,0.001000,0.001000,0.001000,0.001000,0.001000
1011.307692,0.045552,0.001000,0.001000,0.001000,0.001000,0.001000
1011.326923,0.045028,0.001000,0.001000,0.001000,0.001000,0.001000
1011.346154,0.044476,0.001000,0.001000,0.001000,0.001000,0.001000
1011.365385,0.043896,0.001000,0.001000,0.001000,0.001000,0.001000
1011.384615,0.043290,0.001000,0.001000,0.001000,0.001000,0.001000
1011.403846,0.042657,0.001000,0.001000,0.001000,0.001000,0.001000
1011.423077,0.041998,0.001000,0.001000,0.001000,0.001000,0.001000
1011.442308,0.041314,0.001000,0.001000,0.001000,0.001000,0.001000
1011.461538,0.040603,0.001000,0.001000,0.001000,0.001000,0.001000
1011.480769,0.039868,0.001000,0.001000,0.001000,0.001000,0.001000
1011.500000,0.039109,0.001000,0.001000,0.001000,0.001000,0.001000
1011.519231,0.038326,0.001000,0.001000,0.001000,0.001000,0.001000
1011.538462,0.037519,0.001000,0.001000,0.001000,0.001000,0.001000
1011.557692,0.036689,0.001000,0.001000,0.001000,0.001000,0.001000
1011.576923,0.035836,0.001000,0.001000,0.001000,0.001000,0.001000
1011.596154,0.034962,0.001000,0.001000,0.001000,0.001000,0.001000
1011.615385,0.034066,0.001000,0.001000,0.001000,0.001000,0.001000
1011.634615,0.033149,0.001000,0.001000,0.001000,0.001000,0.001000
1011.653846,0.032212,0.001000,0.001000,0.001000,0.001000,0.001000
1011.673077,0.031255,0.001000,0.001000,0.001000,0.001000,0.001000
1011.692308,0.030279,0.001000,0.001000,0.001000,0.001000,0.001000
1011.711538,0.029285,0.001000,0.001000,0.001000,0.001000,0.001000
1011.730769,0.028272,0.001000,0.001000,0.001000,0.001000,0.001000
1011.750000,0.027242,0.001000,0.001000,0.001000,0.001000,0.001000
1011.769231,0.026196,0.001000,0.001000,0.001000,0.001000,0.001000
1011.788462,0.025133,0.001000,0.001000,0.001000,0.001000,0.001000
1011.807692,0.024055,0.001000,0.001000,0.001000,0.001000,0.001000
1011.826923,0.022962,0.001000,0.001000,0.001000,0.001000,0.001000
1011.846154,0.021855,0.001000,0.001000,0.001000,0.001000,0.001000
1011.865385,0.020735,0.001000,0.001000,0.001000,0.001000,0.001000
1011.884615,0.019602,0.001000,0.001000,0.001000,0.001000,0.001000
1011.903846,0.018457,0.001000,0.001000,0.001000,0.001000,0.001000
1011.923077,0.017301,0.001000,0.001000,0.001000,0.001000,0.001000
1011.942308,0.016134,0.001000,0.001000,0.001000,0.001000,0.001000
1011.961538,0.014957,0.001000,0.001000,0.001000,0.001000,0.001000
1011.980769,0.013771,0.001000,0.001000,0.001000,0.001000,0.001000
1012.000000,0.012576,0.001000,0.001000,0.001000,0.001000,0.001000
1012.019231,0.011374,0.001000,0.001000,0.001000,0.001000,0.001000
1012.038462,0.010165,0.001000,0.001000,0.001000,0.001000,0.001000
1012.057692,0.008949,0.001000,0.001000,0.001000,0.001000,0.001000
1012.076923,0.007728,0.001000,0.001000,0.001000,0.001000,0.001000
1012.096154,0.006503,0.001000,0.001000,0.001000,0.001000,0.001000
1012.115385,0.005273,0.001000,0.001000,0.001000,0.001000,0.001000
1012.134615,0.004040,0.001000,0.001000,0.001000,0.001000,0.001000
1012.153846,0.002805,0.001000,0.001000,0.001000,0.001000,0.001000
1012.173077,0.001568,0.001000,0.001000,0.001000,0.001000,0.001000
1012.192308,0.000330,0.001000,0.001000,0.001000,0.001000,0.001000
1012.211538,-0.000908,0.001000,0.001000,0.001000,0.001000,0.001000
1012.230769,-0.002146,0.001000,0.001000,0.001000,0.001000,0.001000
1012.250000,-0.003382,0.001000,0.001000,0.001000,0.001000,0.001000
1012.269231,-0.004617,0.001000,0.001000,0.001000,0.001000,0.001000
1012.288462,-0.005848,0.001000,0.001000,0.001000,0.001000,0.001000
1012.307692,-0.007076,0.001000,0.001000,0.001000,0.001000,0.001000
1012.326923,-0.008299,0.001000,0.001000,0.001000,0.001000,0.001000
1012.346154,-0.009518,0.001000,0.001000,0.001000,0.001000,0.001000
1012.365385,-0.010730,0.001000,0.001000,0.001000,0.001000,0.001000
1012.384615,-0.011936,0.001000,0.001000,0.001000,0.001000,0.001000
1012.403846,-0.013135,0.001000,0.001000,0.001000,0.001000,0.001000
1012.423077,-0.014326,0.001000,0.001000,0.001000,0.001000,0.001000
1012.442308,-0.015508,0.001000,0.001000,0.001000,0.001000,0.001000
1012.461538,-0.016680,0.001000,0.001000,0.001000,0.001000,0.001000
1012.480769,-0.017842,0.001000,0.001000,0.001000,0.001000,0.001000
1012.500000,-0.018993,0.001000,0.001000,0.001000,0.001000,0.001000
1012.519231,-0.020133,0.001000,0.001000,0.001000,0.001000,0.001000
1012.538462,-0.021260,0.001000,0.001000,0.001000,0.001000,0.001000
1012.557692,-0.022374,0.001000,0.001000,0.001000,0.001000,0.001000
1012.576923,-0.023475,0.001000,0.001000,0.001000,0.001000,0.001000
1012.596154,-0.024561,0.001000,0.001000,0.001000,0.001000,0.001000
1012.615385,-0.025631,0.001000,0.001000,0.001000,0.001000,0.001000
1012.634615,-0.026687,0.001000,0.001000,0.001000,0.001000,0.001000
1012.653846,-0.027726,0.001000,0.001000,0.001000,0.001000,0.001000
1012.673077,-0.028747,0.001000,0.001000,0.001000,0.001000,0.001000
1012.692308,-0.029752,0.001000,0.001000,0.001000,0.001000,0.001000
1012.711538,-0.030738,0.001000,0.001000,0.001000,0.001000,0.001000
1012.730769,-0.031705,0.001000,0.001000,0.001000,0.001000,0.001000
1012.750000,-0.032652,0.001000,0.001000,0.001000,0.001000,0.001000
1012.769231,-0.033580,0.001000,0.001000,0.001000,0.001000,0.001000
1012.788462,-0.034487,0.001000,0.001000,0.001000,0.001000,0.001000
1012.807692,-0.035373,0.001000,0.001000,0.001000,0.001000,0.001000
1012.826923,-0.036237,0.001000,0.001000,0.001000,0.001000,0.001000
1012.846154,-0.037079,0.001000,0.001000,0.001000,0.001000,0.001000
1012.865385,-0.037899,0.001000,0.001000,0.001000,0.001000,0.001000
1012.884615,-0.038695,0.001000,0.001000,0.001000,0.001000,0.001000
1012.903846,-0.039467,0.001000,0.001000,0.001000,0.001000,0.001000
1012.923077,-0.040215,0.001000,0.001000,0.001000,0.001000,0.001000
1012.942308,-0.040938,0.001000,0.001000,0.001000,0.001000,0.001000
1012.961538,-0.041637,0.001000,0.001000,0.001000,0.001000,0.001000
1012.980769,-0.042309,0.001000,0.001000,0.001000,0.001000,0.001000
1013.000000,-0.042956,0.001000,0.001000,0.001000,0.001000,0.001000
1013.019231,-0.043577,0.001000,0.001000,0.001000,0.001000,0.001000
1013.038462,-0.044170,0.001000,0.001000,0.001000,0.001000,0.001000
1013.057692,-0.044737,0.001000,0.001000,0.001000,0.001000,0.001000
1013.076923,-0.045276,0.001000,0.001000,0.001000,0.001000,0.001000
1013.096154,-0.045788,0.001000,0.001000,0.001000,0.001000,0.001000
1013.115385,-0.046271,0.001000,0.001000,0.001000,0.001000,0.001000
1013.134615,-0.046726,0.001000,0.001000,0.001000,0.001000,0.001000
1013.153846,-0.047152,0.001000,0.001000,0.001000,0.001000,0.001000
1013.173077,-0.047550,0.001000,0.001000,0.001000,0.001000,0.001000
1013.192308,-0.047918,0.001000,0.001000,0.001000,0.001000,0.001000
1013.211538,-0.048257,0.001000,0.001000,0.001000,0.001000,0.001000
1013.230769,-0.048566,0.001000,0.001000,0.001000,0.001000,0.001000
1013.250000,-0.048846,0.001000,0.001000,0.001000,0.001000,0.001000
1013.269231,-0.049095,0.001000,0.001000,0.001000,0.001000,0.001000
1013.288462,-0.049315,0.001000,0.001000,0.001000,0.001000,0.001000
1013.307692,-0.049504,0.001000,0.001000,0.001000,0.001000,0.001000
1013.326923,-0.049663,0.001000,0.001000,0.001000,0.001000,0.001000
1013.346154,-0.049791,0.001000,0.001000,0.001000,0.001000,0.001000
1013.365385,-0.049889,0.001000,0.001000,0.001000,0.001000,0.001000
1013.384615,-0.049956,0.001000,0.001000,0.001000,0.001000,0.001000
1013.403846,-0.049993,0.001000,0.001000,0.001000,0.001000,0.001000
1013.423077,-0.049999,0.001000,0.001000,0.001000,0.001000,0.001000
1013.442308,-0.049974,0.001000,0.001000,0.001000,0.001000,0.001000
1013.461538,-0.049918,0.001000,0.001000,0.001000,0.001000,0.001000
1013.480769,-0.049832,0.001000,0.001000,0.001000,0.001000,0.001000
1013.500000,-0.049716,0.001000,0.001000,0.001000,0.001000,0.001000
1013.519231,-0.049569,0.001000,0.001000,0.001000,0.001000,0.001000
1013.538462,-0.049391,0.001000,0.001000,0.001000,0.001000,0.001000
1013.557692,-0.049184,0.001000,0.001000,0.001000,0.001000,0.001000
1013.576923,-0.048946,0.001000,0.001000,0.001000,0.001000,0.001000
1013.596154,-0.048678,0.001000,0.001000,0.001000,0.001000,0.001000
1013.615385,-0.048380,0.001000,0.001000,0.001000,0.001000,0.001000
1013.634615,-0.048052,0.001000,0.001000,0.001000,0.001000,0.001000
1013.653846,-0.047696,0.001000,0.001000,0.001000,0.001000,0.001000
1013.673077,-0.047309,0.001000,0.001000,0.001000,0.001000,0.001000
1013.692308,-0.046894,0.001000,0.001000,0.001000,0.001000,0.001000
1013.711538,-0.046450,0.001000,0.001000,0.001000,0.001000,0.001000
1013.730769,-0.045978,0.001000,0.001000,0.001000,0.001000,0.001000
1013.750000,-0.045477,0.001000,0.001000,0.001000,0.001000,0.001000
1013.769231,-0.044949,0.001000,0.001000,0.001000,0.001000,0.001000
1013.788462,-0.044392,0.001000,0.001000,0.001000,0.001000,0.001000
1013.807692,-0.043809,0.001000,0.001000,0.001000,0.001000,0.001000
1013.826923,-0.043199,0.001000,0.001000,0.001000,0.001000,0.001000
1013.846154,-0.042562,0.001000,0.001000,0.001000,0.001000,0.001000
1013.865385,-0.041899,0.001000,0.001000,0.001000,0.001000,0.001000
1013.884615,-0.041211,0.001000,0.001000,0.001000,0.001000,0.001000
1013.903846,-0.040497,0.001000,0.001000,0.001000,0.001000,0.001000
1013.923077,-0.039759,0.001000,0.001000,0.001000,0.001000,0.001000
1013.942308,-0.038996,0.001000,0.001000,0.001000,0.001000,0.001000
1013.961538,-0.038209,0.001000,0.001000,0.001000,0.001000,0.001000
1013.980769,-0.037398,0.001000,0.001000,0.001000,0.001000,0.001000
1014.000000,-0.036565,0.001000,0.001000,0.001000,0.001000,0.001000
1014.019231,-0.035709,0.001000,0.001000,0.001000,0.001000,0.001000
1014.038462,-0.034832,0.001000,0.001000,0.001000,0.001000,0.001000
1014.057692,-0.033933,0.001000,0.001000,0.001000,0.001000,0.001000
1014.076923,-0.033013,0.001000,0.001000,0.001000,0.001000,0.001000
1014.096154,-0.032073,0.001000,0.001000,0.001000,0.001000,0.001000
1014.115385,-0.031113,0.001000,0.001000,0.001000,0.001000,0.001000
1014.134615,-0.030135,0.001000,0.001000,0.001000,0.001000,0.001000
1014.153846,-0.029137,0.001000,0.001000,0.001000,0.001000,0.001000
1014.173077,-0.028122,0.001000,0.001000,0.001000,0.001000,0.001000
1014.192308,-0.027090,0.001000,0.001000,0.001000,0.001000,0.001000
1014.211538,-0.026041,0.001000,0.001000,0.001000,0.001000,0.001000
1014.230769,-0.024976,0.001000,0.001000,0.001000,0.001000,0.001000
1014.250000,-0.023896,0.001000,0.001000,0.001000,0.001000,0.001000
1014.269231,-0.022801,0.001000,0.001000,0.001000,0.001000,0.001000
1014.288462,-0.021692,0.001000,0.001000,0.001000,0.001000,0.001000
1014.307692,-0.020570,0.001000,0.001000,0.001000,0.001000,0.001000
1014.326923,-0.019435,0.001000,0.001000,0.001000,0.001000,0.001000
1014.346154,-0.018288,0.001000,0.001000,0.001000,0.001000,0.001000
1014.365385,-0.017130,0.001000,0.001000,0.001000,0.001000,0.001000
1014.384615,-0.015961,0.001000,0.001000,0.001000,0.001000,0.001000
1014.403846,-0.014783,0.001000,0.001000,0.001000,0.001000,0.001000
1014.423077,-0.013596,0.001000,0.001000,0.001000,0.001000,0.001000
1014.442308,-0.012400,0.001000,0.001000,0.001000,0.001000,0.001000
1014.461538,-0.011197,0.001000,0.001000,0.001000,0.001000,0.001000
1014.480769,-0.009987,0.001000,0.001000,0.001000,0.001000,0.001000
1014.500000,-0.008771,0.001000,0.001000,0.001000,0.001000,0.001000
1014.519231,-0.007549,0.001000,0.001000,0.001000,0.001000,0.001000
1014.538462,-0.006323,0.001000,0.001000,0.001000,0.001000,0.001000
1014.557692,-0.005092,0.001000,0.001000,0.001000,0.001000,0.001000
1014.576923,-0.003859,0.001000,0.001000,0.001000,0.001000,0.001000
1014.596154,-0.002624,0.001000,0.001000,0.001000,0.001000,0.001000
1014.615385,-0.001386,0.001000,0.001000,0.001000,0.001000,0.001000
1014.634615,-0.000148,0.001000,0.001000,0.001000,0.001000,0.001000
1014.653846,0.001090,0.001000,0.001000,0.001000,0.001000,0.001000
1014.673077,0.002327,0.001000,0.001000,0.001000,0.001000,0.001000
1014.692308,0.003564,0.001000,0.001000,0.001000,0.001000,0.001000
1014.711538,0.004798,0.001000,0.001000,0.001000,0.001000,0.001000
1014.730769,0.006028,0.001000,0.001000,0.001000,0.001000,0.001000
1014.750000,0.007256,0.001000,0.001000,0.001000,0.001000,0.001000
1014.769231,0.008479,0.001000,0.001000,0.001000,0.001000,0.001000
1014.788462,0.009696,0.001000,0.001000,0.001000,0.001000,0.001000
1014.807692,0.010908,0.001000,0.001000,0.001000,0.001000,0.001000
1014.826923,0.012113,0.001000,0.001000,0.001000,0.001000,0.001000
1014.846154,0.013310,0.001000,0.001000,0.001000,0.001000,0.001000
1014.865385,0.014500,0.001000,0.001000,0.001000,0.001000,0.001000
1014.884615,0.015680,0.001000,0.001000,0.001000,0.001000,0.001000
1014.903846,0.016851,0.001000,0.001000,0.001000,0.001000,0.001000
1014.923077,0.018012,0.001000,0.001000,0.001000,0.001000,0.001000
1014.942308,0.019161,0.001000,0.001000,0.001000,0.001000,0.001000
1014.961538,0.020299,0.001000,0.001000,0.001000,0.001000,0.001000
1014.980769,0.021424,0.001000,0.001000,0.001000,0.001000,0.001000
1015.000000,0.022536,0.001000,0.001000,0.001000,0.001000,0.001000
1015.019231,0.023635,0.001000,0.001000,0.001000,0.001000,0.001000
1015.038462,0.024719,0.001000,0.001000,0.001000,0.001000,0.001000
1015.057692,0.025787,0.001000,0.001000,0.001000,0.001000,0.001000
1015.076923,0.026840,0.001000,0.001000,0.001000,0.001000,0.001000
1015.096154,0.027877,0.001000,0.001000,0.001000,0.001000,0.001000
1015.115385,0.028896,0.001000,0.001000,0.001000,0.001000,0.001000
1015.134615,0.029897,0.001000,0.001000,0.001000,0.001000,0.001000
1015.153846,0.030881,0.001000,0.001000,0.001000,0.001000,0.001000
1015.173077,0.031845,0.001000,0.001000,0.001000,0.001000,0.001000
1015.192308,0.032790,0.001000,0.001000,0.001000,0.001000,0.001000
1015.211538,0.033714,0.001000,0.001000,0.001000,0.001000,0.001000
1015.230769,0.034618,0.001000,0.001000,0.001000,0.001000,0.001000
1015.250000,0.035501,0.001000,0.001000,0.001000,0.001000,0.001000
1015.269231,0.036362,0.001000,0.001000,0.001000,0.001000,0.001000
1015.288462,0.037201,0.001000,0.001000,0.001000,0.001000,0.001000
1015.307692,0.038017,0.001000,0.001000,0.001000,0.001000,0.001000
1015.326923,0.038809,0.001000,0.001000,0.001000,0.001000,0.001000
1015.346154,0.039578,0.001000,0.001000,0.001000,0.001000,0.001000
1015.365385,0.040323,0.001000,0.001000,0.001000,0.001000,0.001000
1015.384615,0.041042,0.001000,0.001000,0.001000,0.001000,0.001000
1015.403846,0.041737,0.001000,0.001000,0.001000,0.001000,0.001000
1015.423077,0.042406,0.001000,0.001000,0.001000,0.001000,0.001000
1015.442308,0.043049,0.001000,0.001000,0.001000,0.001000,0.001000
1015.461538,0.043665,0.001000,0.001000,0.001000,0.001000,0.001000
1015.480769,0.044255,0.001000,0.001000,0.001000,0.001000,0.001000
1015.500000,0.044818,0.001000,0.001000,0.001000,0.001000,0.001000
1015.519231,0.045353,0.001000,0.001000,0.001000,0.001000,0.001000
1015.538462,0.045860,0.001000,0.001000,0.001000,0.001000,0.001000
1015.557692,0.046340,0.001000,0.001000,0.001000,0.001000,0.001000
1015.576923,0.046790,0.001000,0.001000,0.001000,0.001000,0.001000
1015.596154,0.047213,0.001000,0.001000,0.001000,0.001000,0.001000
1015.615385,0.047606,0.001000,0.001000,0.001000,0.001000,0.001000
1015.634615,0.047970,0.001000,0.001000,0.001000,0.001000,0.001000
1015.653846,0.048304,0.001000,0.001000,0.001000,0.001000,0.001000
1015.673077,0.048609,0.001000,0.001000,0.001000,0.001000,0.001000
1015.692308,0.048884,0.001000,0.001000,0.001000,0.001000,0.001000
1015.711538,0.049129,0.001000,0.001000,0.001000,0.001000,0.001000
1015.730769,0.049344,0.001000,0.001000,0.001000,0.001000,0.001000
1015.750000,0.049529,0.001000,0.001000,0.001000,0.001000,0.001000
1015.769231,0.049683,0.001000,0.001000,0.001000,0.001000,0.001000
1015.788462,0.049807,0.001000,0.001000,0.001000,0.001000,0.001000
1015.807692,0.049901,0.001000,0.001000,0.001000,0.001000,0.001000
1015.826923,0.049963,0.001000,0.001000,0.001000,0.001000,0.001000
1015.846154,0.049995,0.001000,0.001000,0.001000,0.001000,0.001000
1015.865385,0.049997,0.001000,0.001000,0.001000,0.001000,0.001000
1015.884615,0.049968,0.001000,0.001000,0.001000,0.001000,0.001000
1015.903846,0.049908,0.001000,0.001000,0.001000,0.001000,0.001000
1015.923077,0.049817,0.001000,0.001000,0.001000,0.001000,0.001000
1015.942308,0.049696,0.001000,0.001000,0.001000,0.001000,0.001000
1015.961538,0.049545,0.001000,0.001000,0.001000,0.001000,0.001000
1015.980769,0.049363,0.001000,0.001000,0.001000,0.001000,0.001000
1016.000000,0.049151,0.001000,0.001000,0.001000,0.001000,0.001000
1016.019231,0.048908,0.001000,0.001000,0.001000,0.001000,0.001000
1016.038462,0.048636,0.001000,0.001000,0.001000,0.001000,0.001000
1016.057692,0.048334,0.001000,0.001000,0.001000,0.001000,0.001000
1016.076923,0.048002,0.001000,0.001000,0.001000,0.001000,0.001000
1016.096154,0.047641,0.001000,0.001000,0.001000,0.001000,0.001000
1016.115385,0.047250,0.001000,0.001000,0.001000,0.001000,0.001000
1016.134615,0.046831,0.001000,0.001000,0.001000,0.001000,0.001000
1016.153846,0.046383,0.001000,0.001000,0.001000,0.001000,0.001000
1016.173077,0.045906,0.001000,0.001000,0.001000,0.001000,0.001000
1016.192308,0.045401,0.001000,0.001000,0.001000,0.001000,0.001000
1016.211538,0.044869,0.001000,0.001000,0.001000,0.001000,0.001000
1016.230769,0.044309,0.001000,0.001000,0.001000,0.001000,0.001000
1016.250000,0.043721,0.001000,0.001000,0.001000,0.001000,0.001000
1016.269231,0.043107,0.001000,0.001000,0.001000,0.001000,0.001000
1016.288462,0.042467,0.001000,0.001000,0.001000,0.001000,0.001000
1016.307692,0.041800,0.001000,0.001000,0.001000,0.001000,0.001000
1016.326923,0.041108,0.001000,0.001000,0.001000,0.001000,0.001000
1016.346154,0.040390,0.001000,0.001000,0.001000,0.001000,0.001000
1016.365385,0.039648,0.001000,0.001000,0.001000,0.001000,0.001000
1016.384615,0.038882,0.001000,0.001000,0.001000,0.001000,0.001000
1016.403846,0.038091,0.001000,0.001000,0.001000,0.001000,0.001000
1016.423077,0.037278,0.001000,0.001000,0.001000,0.001000,0.001000
1016.442308,0.036441,0.001000,0.001000,0.001000,0.001000,0.001000
1016.461538,0.035582,0.001000,0.001000,0.001000,0.001000,0.001000
1016.480769,0.034701,0.001000,0.001000,0.001000,0.001000,0.001000
1016.500000,0.033799,0.001000,0.001000,0.001000,0.001000,0.001000
1016.519231,0.032876,0.001000,0.001000,0.001000,0.001000,0.001000
1016.538462,0.031933,0.001000,0.001000,0.001000,0.001000,0.001000
1016.557692,0.030971,0.001000,0.001000,0.001000,0.001000,0.001000
1016.576923,0.029989,0.001000,0.001000,0.001000,0.001000,0.001000
1016.596154,0.028989,0.001000,0.001000,0.001000,0.001000,0.001000
1016.615385,0.027972,0.001000,0.001000,0.001000,0.001000,0.001000
1016.634615,0.026937,0.001000,0.001000,0.001000,0.001000,0.001000
1016.653846,0.025886,0.001000,0.001000,0.001000,0.001000,0.001000
1016.673077,0.024818,0.001000,0.001000,0.001000,0.001000,0.001000
1016.692308,0.023736,0.001000,0.001000,0.001000,0.001000,0.001000
1016.711538,0.022639,0.001000,0.001000,0.001000,0.001000,0.001000
1016.730769,0.021528,0.001000,0.001000,0.001000,0.001000,0.001000
1016.750000,0.020404,0.001000,0.001000,0.001000,0.001000,0.001000
1016.769231,0.019267,0.001000,0.001000,0.001000,0.001000,0.001000
1016.788462,0.018119,0.001000,0.001000,0.001000,0.001000,0.001000
1016.807692,0.016959,0.001000,0.001000,0.001000,0.001000,0.001000
1016.826923,0.015789,0.001000,0.001000,0.001000,0.001000,0.001000
1016.846154,0.014610,0.001000,0.001000,0.001000,0.001000,0.001000
1016.865385,0.013421,0.001000,0.001000,0.001000,0.001000,0.001000
1016.884615,0.012224,0.001000,0.001000,0.001000,0.001000,0.001000
1016.903846,0.011020,0.001000,0.001000,0.001000,0.001000,0.001000
1016.923077,0.009809,0.001000,0.001000,0.001000,0.001000,0.001000
1016.942308,0.008592,0.001000,0.001000,0.001000,0.001000,0.001000
1016.961538,0.007369,0.001000,0.001000,0.001000,0.001000,0.001000
1016.980769,0.006142,0.001000,0.001000,0.001000,0.001000,0.001000
1017.000000,0.004912,0.001000,0.001000,0.001000,0.001000,0.001000
1017.019231,0.003678,0.001000,0.001000,0.001000,0.001000,0.001000
1017.038462,0.002442,0.001000,0.001000,0.001000,0.001000,0.001000
1017.057692,0.001205,0.001000,0.001000,0.001000,0.001000,0.001000
1017.076923,-0.000033,0.001000,0.001000,0.001000,0.001000,0.001000
1017.096154,-0.001272,0.001000,0.001000,0.001000,0.001000,0.001000
1017.115385,-0.002509,0.001000,0.001000,0.001000,0.001000,0.001000
1017.134615,-0.003745,0.001000,0.001000,0.001000,0.001000,0.001000
1017.153846,-0.004978,0.001000,0.001000,0.001000,0.001000,0.001000
1017.173077,-0.006209,0.001000,0.001000,0.001000,0.001000,0.001000
1017.192308,-0.007435,0.001000,0.001000,0.001000,0.001000,0.001000
1017.211538,-0.008658,0.001000,0.001000,0.001000,0.001000,0.001000
1017.230769,-0.009874,0.001000,0.001000,0.001000,0.001000,0.001000
1017.250000,-0.011085,0.001000,0.001000,0.001000,0.001000,0.001000
1017.269231,-0.012289,0.001000,0.001000,0.001000,0.001000,0.001000
1017.288462,-0.013485,0.001000,0.001000,0.001000,0.001000,0.001000
1017.307692,-0.014674,0.001000,0.001000,0.001000,0.001000,0.001000
1017.326923,-0.015853,0.001000,0.001000,0.001000,0.001000,0.001000
1017.346154,-0.017022,0.001000,0.001000,0.001000,0.001000,0.001000
1017.365385,-0.018181,0.001000,0.001000,0.001000,0.001000,0.001000
1017.384615,-0.019329,0.001000,0.001000,0.001000,0.001000,0.001000
1017.403846,-0.020465,0.001000,0.001000,0.001000,0.001000,0.001000
1017.423077,-0.021588,0.001000,0.001000,0.001000,0.001000,0.001000
1017.442308,-0.022698,0.001000,0.001000,0.001000,0.001000,0.001000
1017.461538,-0.023795,0.001000,0.001000,0.001000,0.001000,0.001000
1017.480769,-0.024876,0.001000,0.001000,0.001000,0.001000,0.001000
1017.500000,-0.025943,0.001000,0.001000,0.001000,0.001000,0.001000
1017.519231,-0.026993,0.001000,0.001000,0.001000,0.001000,0.001000
1017.538462,-0.028027,0.001000,0.001000,0.001000,0.001000,0.001000
1017.557692,-0.029044,0.001000,0.001000,0.001000,0.001000,0.001000
1017.576923,-0.030043,0.001000,0.001000,0.001000,0.001000,0.001000
1017.596154,-0.031023,0.001000,0.001000,0.001000,0.001000,0.001000
1017.615385,-0.031985,0.001000,0.001000,0.001000,0.001000,0.001000
1017.634615,-0.032927,0.001000,0.001000,0.001000,0.001000,0.001000
1017.653846,-0.033848,0.001000,0.001000,0.001000,0.001000,0.001000
1017.673077,-0.034749,0.001000,0.001000,0.001000,0.001000,0.001000
1017.692308,-0.035629,0.001000,0.001000,0.001000,0.001000,0.001000
1017.711538,-0.036487,0.001000,0.001000,0.001000,0.001000,0.001000
1017.730769,-0.037322,0.001000,0.001000,0.001000,0.001000,0.001000
1017.750000,-0.038135,0.001000,0.001000,0.001000,0.001000,0.001000
1017.769231,-0.038924,0.001000,0.001000,0.001000,0.001000,0.001000
1017.788462,-0.039689,0.001000,0.001000,0.001000,0.001000,0.001000
1017.807692,-0.040430,0.001000,0.001000,0.001000,0.001000,0.001000
1017.826923,-0.041146,0.001000,0.001000,0.001000,0.001000,0.001000
1017.846154,-0.041837,0.001000,0.001000,0.001000,0.001000,0.001000
1017.865385,-0.042502,0.001000,0.001000,0.001000,0.001000,0.001000
1017.884615,-0.043141,0.001000,0.001000,0.001000,0.001000,0.001000
1017.903846,-0.043754,0.001000,0.001000,0.001000,0.001000,0.001000
1017.923077,-0.044340,0.001000,0.001000,0.001000,0.001000,0.001000
1017.942308,-0.044898,0.001000,0.001000,0.001000,0.001000,0.001000
1017.961538,-0.045429,0.001000,0.001000,0.001000,0.001000,0.001000
1017.980769,-0.045933,0.001000,0.001000,0.001000,0.001000,0.001000
1018.000000,-0.046408,0.001000,0.001000,0.001000,0.001000,0.001000
1018.019231,-0.046854,0.001000,0.001000,0.001000,0.001000,0.001000
1018.038462,-0.047272,0.001000,0.001000,0.001000,0.001000,0.001000
1018.057692,-0.047661,0.001000,0.001000,0.001000,0.001000,0.001000
1018.076923,-0.048021,0.001000,0.001000,0.001000,0.001000,0.001000
1018.096154,-0.048351,0.001000,0.001000,0.001000,0.001000,0.001000
1018.115385,-0.048651,0.001000,0.001000,0.001000,0.001000,0.001000
1018.134615,-0.048922,0.001000,0.001000,0.001000,0.001000,0.001000
1018.153846,-0.049163,0.001000,0.001000,0.001000,0.001000,0.001000
1018.173077,-0.049373,0.001000,0.001000,0.001000,0.001000,0.001000
1018.192308,-0.049554,0.001000,0.001000,0.001000,0.001000,0.001000
1018.211538,-0.049703,0.001000,0.001000,0.001000,0.001000,0.001000
1018.230769,-0.049823,0.001000,0.001000,0.001000,0.001000,0.001000
1018.250000,-0.049912,0.001000,0.001000,0.001000,0.001000,0.001000
1018.269231,-0.049970,0.001000,0.001000,0.001000,0.001000,0.001000
1018.288462,-0.049998,0.001000,0.001000,0.001000,0.001000,0.001000
1018.307692,-0.049994,0.001000,0.001000,0.001000,0.001000,0.001000
1018.326923,-0.049961,0.001000,0.001000,0.001000,0.001000,0.001000
1018.346154,-0.049896,0.001000,0.001000,0.001000,0.001000,0.001000
1018.365385,-0.049801,0.001000,0.001000,0.001000,0.001000,0.001000
1018.384615,-0.049676,0.001000,0.001000,0.001000,0.001000,0.001000
1018.403846,-0.049520,0.001000,0.001000,0.001000,0.001000,0.001000
1018.423077,-0.049333,0.001000,0.001000,0.001000,0.001000,0.001000
1018.442308,-0.049117,0.001000,0.001000,0.001000,0.001000,0.001000
1018.461538,-0.048870,0.001000,0.001000,0.001000,0.001000,0.001000
1018.480769,-0.048593,0.001000,0.001000,0.001000,0.001000,0.001000
1018.500000,-0.048287,0.001000,0.001000,0.001000,0.001000,0.001000
1018.519231,-0.047951,0.001000,0.001000,0.001000,0.001000,0.001000
1018.538462,-0.047585,0.001000,0.001000,0.001000,0.001000,0.001000
1018.557692,-0.047191,0.001000,0.001000,0.001000,0.001000,0.001000
1018.576923,-0.046767,0.001000,0.001000,0.001000,0.001000,0.001000
1018.596154,-0.046314,0.001000,0.001000,0.001000,0.001000,0.001000
1018.615385,-0.045834,0.001000,0.001000,0.001000,0.001000,0.001000
1018.634615,-0.045325,0.001000,0.001000,0.001000,0.001000,0.001000
1018.653846,-0.044788,0.001000,0.001000,0.001000,0.001000,0.001000
1018.673077,-0.044224,0.001000,0.001000,0.001000,0.001000,0.001000
1018.692308,-0.043633,0.001000,0.001000,0.001000,0.001000,0.001000
1018.711538,-0.043015,0.001000,0.001000,0.001000,0.001000,0.001000
1018.730769,-0.042370,0.001000,0.001000,0.001000,0.001000,0.001000
1018.750000,-0.041700,0.001000,0.001000,0.001000,0.001000,0.001000
1018.769231,-0.041004,0.001000,0.001000,0.001000,0.001000,0.001000
1018.788462,-0.040283,0.001000,0.001000,0.001000,0.001000,0.001000
1018.807692,-0.039537,0.001000,0.001000,0.001000,0.001000,0.001000
1018.826923,-0.038767,0.001000,0.001000,0.001000,0.001000,0.001000
1018.846154,-0.037973,0.001000,0.001000,0.001000,0.001000,0.001000
1018.865385,-0.037156,0.001000,0.001000,0.001000,0.001000,0.001000
1018.884615,-0.036316,0.001000,0.001000,0.001000,0.001000,0.001000
1018.903846,-0.035454,0.001000,0.001000,0.001000,0.001000,0.001000
1018.923077,-0.034570,0.001000,0.001000,0.001000,0.001000,0.001000
1018.942308,-0.033665,0.001000,0.001000,0.001000,0.001000,0.001000
1018.961538,-0.032739,0.001000,0.001000,0.001000,0.001000,0.001000
1018.980769,-0.031793,0.001000,0.001000,0.001000,0.001000,0.001000
1019.000000,-0.030828,0.001000,0.001000,0.001000,0.001000,0.001000
1019.019231,-0.029844,0.001000,0.001000,0.001000,0.001000,0.001000
1019.038462,-0.028841,0.001000,0.001000,0.001000,0.001000,0.001000
1019.057692,-0.027821,0.001000,0.001000,0.001000,0.001000,0.001000
1019.076923,-0.026784,0.001000,0.001000,0.001000,0.001000,0.001000
1019.096154,-0.025730,0.001000,0.001000,0.001000,0.001000,0.001000
1019.115385,-0.024660,0.001000,0.001000,0.001000,0.001000,0.001000
1019.134615,-0.023576,0.001000,0.001000,0.001000,0.001000,0.001000
1019.153846,-0.022477,0.001000,0.001000,0.001000,0.001000,0.001000
1019.173077,-0.021364,0.001000,0.001000,0.001000,0.001000,0.001000
1019.192308,-0.020238,0.001000,0.001000,0.001000,0.001000,0.001000
1019.211538,-0.019099,0.001000,0.001000,0.001000,0.001000,0.001000
1019.230769,-0.017949,0.001000,0.001000,0.001000,0.001000,0.001000
1019.250000,-0.016788,0.001000,0.001000,0.001000,0.001000,0.001000
1019.269231,-0.015617,0.001000,0.001000,0.001000,0.001000,0.001000
1019.288462,-0.014436,0.001000,0.001000,0.001000,0.001000,0.001000
1019.307692,-0.013246,0.001000,0.001000,0.001000,0.001000,0.001000
1019.326923,-0.012048,0.001000,0.001000,0.001000,0.001000,0.001000
1019.346154,-0.010843,0.001000,0.001000,0.001000,0.001000,0.001000
1019.365385,-0.009631,0.001000,0.001000,0.001000,0.001000,0.001000
1019.384615,-0.008413,0.001000,0.001000,0.001000,0.001000,0.001000
1019.403846,-0.007190,0.001000,0.001000,0.001000,0.001000,0.001000
1019.423077,-0.005962,0.001000,0.001000,0.001000,0.001000,0.001000
1019.442308,-0.004731,0.001000,0.001000,0.001000,0.001000,0.001000
1019.461538,-0.003497,0.001000,0.001000,0.001000,0.001000,0.001000
1019.480769,-0.002261,0.001000,0.001000,0.001000,0.001000,0.001000
1019.500000,-0.001023,0.001000,0.001000,0.001000,0.001000,0.001000
1019.519231,0.000215,0.001000,0.001000,0.001000,0.001000,0.001000
1019.538462,0.001453,0.001000,0.001000,0.001000,0.001000,0.001000
1019.557692,0.002690,0.001000,0.001000,0.001000,0.001000,0.001000
1019.576923,0.003926,0.001000,0.001000,0.001000,0.001000,0.001000
1019.596154,0.005159,0.001000,0.001000,0.001000,0.001000,0.001000
1019.615385,0.006389,0.001000,0.001000,0.001000,0.001000,0.001000
1019.634615,0.007615,0.001000,0.001000,0.001000,0.001000,0.001000
1019.653846,0.008836,0.001000,0.001000,0.001000,0.001000,0.001000
1019.673077,0.010052,0.001000,0.001000,0.001000,0.001000,0.001000
1019.692308,0.011262,0.001000,0.001000,0.001000,0.001000,0.001000
1019.711538,0.012465,0.001000,0.001000,0.001000,0.001000,0.001000
1019.730769,0.013660,0.001000,0.001000,0.001000,0.001000,0.001000
1019.750000,0.014847,0.001000,0.001000,0.001000,0.001000,0.001000
1019.769231,0.016025,0.001000,0.001000,0.001000,0.001000,0.001000
1019.788462,0.017193,0.001000,0.001000,0.001000,0.001000,0.001000
1019.807692,0.018350,0.001000,0.001000,0.001000,0.001000,0.001000
1019.826923,0.019496,0.001000,0.001000,0.001000,0.001000,0.001000
1019.846154,0.020630,0.001000,0.001000,0.001000,0.001000,0.001000
1019.865385,0.021752,0.001000,0.001000,0.001000,0.001000,0.001000
1019.884615,0.022860,0.001000,0.001000,0.001000,0.001000,0.001000
1019.903846,0.023954,0.001000,0.001000,0.001000,0.001000,0.001000
1019.923077,0.025034,0.001000,0.001000,0.001000,0.001000,0.001000
1019.942308,0.026098,0.001000,0.001000,0.001000,0.001000,0.001000
1019.961538,0.027146,0.001000,0.001000,0.001000,0.001000,0.001000
1019.980769,0.028177,0.001000,0.001000,0.001000,0.001000,0.001000
1020.000000,0.029192,0.001000,0.001000,0.001000,0.001000,0.001000
1020.019231,0.030188,0.001000,0.001000,0.001000,0.001000,0.001000
1020.038462,0.031166,0.001000,0.001000,0.001000,0.001000,0.001000
1020.057692,0.032124,0.001000,0.001000,0.001000,0.001000,0.001000
1020.076923,0.033063,0.001000,0.001000,0.001000,0.001000,0.001000
1020.096154,0.033982,0.001000,0.001000,0.001000,0.001000,0.001000
1020.115385,0.034880,0.001000,0.001000,0.001000,0.001000,0.001000
1020.134615,0.035756,0.001000,0.001000,0.001000,0.001000,0.001000
1020.153846,0.036611,0.001000,0.001000,0.001000,0.001000,0.001000
1020.173077,0.037443,0.001000,0.001000,0.001000,0.001000,0.001000
1020.192308,0.038252,0.001000,0.001000,0.001000,0.001000,0.001000
1020.211538,0.039037,0.001000,0.001000,0.001000,0.001000,0.001000
1020.230769,0.039799,0.001000,0.001000,0.001000,0.001000,0.001000
1020.250000,0.040536,0.001000,0.001000,0.001000,0.001000,0.001000
1020.269231,0.041249,0.001000,0.001000,0.001000,0.001000,0.001000
1020.288462,0.041936,0.001000,0.001000,0.001000,0.001000,0.001000
1020.307692,0.042597,0.001000,0.001000,0.001000,0.001000,0.001000
1020.326923,0.043233,0.001000,0.001000,0.001000,0.001000,0.001000
1020.346154,0.043841,0.001000,0.001000,0.001000,0.001000,0.001000
1020.365385,0.044423,0.001000,0.001000,0.001000,0.001000,0.001000
1020.384615,0.044978,0.001000,0.001000,0.001000,0.001000,0.001000
1020.403846,0.045505,0.001000,0.001000,0.001000,0.001000,0.001000
1020.423077,0.046004,0.001000,0.001000,0.001000,0.001000,0.001000
1020.442308,0.046475,0.001000,0.001000,0.001000,0.001000,0.001000
1020.461538,0.046917,0.001000,0.001000,0.001000,0.001000,0.001000
1020.480769,0.047331,0.001000,0.001000,0.001000,0.001000,0.001000
1020.500000,0.047716,0.001000,0.001000,0.001000,0.001000,0.001000
1020.519231,0.048071,0.001000,0.001000,0.001000,0.001000,0.001000
1020.538462,0.048397,0.001000,0.001000,0.001000,0.001000,0.001000
1020.557692,0.048693,0.001000,0.001000,0.001000,0.001000,0.001000
1020.576923,0.048959,0.001000,0.001000,0.001000,0.001000,0.001000
1020.596154,0.049196,0.001000,0.001000,0.001000,0.001000,0.001000
1020.615385,0.049402,0.001000,0.001000,0.001000,0.001000,0.001000
1020.634615,0.049578,0.001000,0.001000,0.001000,0.001000,0.001000
1020.653846,0.049723,0.001000,0.001000,0.001000,0.001000,0.001000
1020.673077,0.049838,0.001000,0.001000,0.001000,0.001000,0.001000
1020.692308,0.049922,0.001000,0.001000,0.001000,0.001000,0.001000
1020.711538,0.049976,0.001000,0.001000,0.001000,0.001000,0.001000
1020.730769,0.049999,0.001000,0.001000,0.001000,0.001000,0.001000
1020.750000,0.049991,0.001000,0.001000,0.001000,0.001000,0.001000
1020.769231,0.049953,0.001000,0.001000,0.001000,0.001000,0.001000
1020.788462,0.049884,0.001000,0.001000,0.001000,0.001000,0.001000
1020.807692,0.049785,0.001000,0.001000,0.001000,0.001000,0.001000
1020.826923,0.049655,0.001000,0.001000,0.001000,0.001000,0.001000
1020.846154,0.049494,0.001000,0.001000,0.001000,0.001000,0.001000
1020.865385,0.049304,0.001000,0.001000,0.001000,0.001000,0.001000
1020.884615,0.049083,0.001000,0.001000,0.001000,0.001000,0.001000
1020.903846,0.048831,0.001000,0.001000,0.001000,0.001000,0.001000
1020.923077,0.048550,0.001000,0.001000,0.001000,0.001000,0.001000
1020.942308,0.048239,0.001000,0.001000,0.001000,0.001000,0.001000
1020.961538,0.047899,0.001000,0.001000,0.001000,0.001000,0.001000
1020.980769,0.047529,0.001000,0.001000,0.001000,0.001000,0.001000
1021.000000,0.047130,0.001000,0.001000,0.001000,0.001000,0.001000
1021.019231,0.046702,0.001000,0.001000,0.001000,0.001000,0.001000
1021.038462,0.046246,0.001000,0.001000,0.001000,0.001000,0.001000
1021.057692,0.045761,0.001000,0.001000,0.001000,0.001000,0.001000
1021.076923,0.045248,0.001000,0.001000,0.001000,0.001000,0.001000
1021.096154,0.044707,0.001000,0.001000,0.001000,0.001000,0.001000
1021.115385,0.044139,0.001000,0.001000,0.001000,0.001000,0.001000
1021.134615,0.043544,0.001000,0.001000,0.001000,0.001000,0.001000
1021.153846,0.042922,0.001000,0.001000,0.001000,0.001000,0.001000
1021.173077,0.042274,0.001000,0.001000,0.001000,0.001000,0.001000
1021.192308,0.041600,0.001000,0.001000,0.001000,0.001000,0.001000
1021.211538,0.040900,0.001000,0.001000,0.001000,0.001000,0.001000
1021.230769,0.040175,0.001000,0.001000,0.001000,0.001000,0.001000
1021.250000,0.039426,0.001000,0.001000,0.001000,0.001000,0.001000
1021.269231,0.038652,0.001000,0.001000,0.001000,0.001000,0.001000
1021.288462,0.037855,0.001000,0.001000,0.001000,0.001000,0.001000
1021.307692,0.037034,0.001000,0.001000,0.001000,0.001000,0.001000
1021.326923,0.036191,0.001000,0.001000,0.001000,0.001000,0.001000
1021.346154,0.035326,0.001000,0.001000,0.001000,0.001000,0.001000
1021.365385,0.034439,0.001000,0.001000,0.001000,0.001000,0.001000
1021.384615,0.033530,0.001000,0.001000,0.001000,0.001000,0.001000
1021.403846,0.032602,0.001000,0.001000,0.001000,0.001000,0.001000
1021.423077,0.031653,0.001000,0.001000,0.001000,0.001000,0.001000
1021.442308,0.030685,0.001000,0.001000,0.001000,0.001000,0.001000
1021.461538,0.029698,0.001000,0.001000,0.001000,0.001000,0.001000
1021.480769,0.028693,0.001000,0.001000,0.001000,0.001000,0.001000
1021.500000,0.027670,0.001000,0.001000,0.001000,0.001000,0.001000
1021.519231,0.026630,0.001000,0.001000,0.001000,0.001000,0.001000
1021.538462,0.025574,0.001000,0.001000,0.001000,0.001000,0.001000
1021.557692,0.024502,0.001000,0.001000,0.001000,0.001000,0.001000
1021.576923,0.023415,0.001000,0.001000,0.001000,0.001000,0.001000
1021.596154,0.022314,0.001000,0.001000,0.001000,0.001000,0.001000
1021.615385,0.021199,0.001000,0.001000,0.001000,0.001000,0.001000
1021.634615,0.020072,0.001000,0.001000,0.001000,0.001000,0.001000
1021.653846,0.018931,0.001000,0.001000,0.001000,0.001000,0.001000
1021.673077,0.017780,0.001000,0.001000,0.001000,0.001000,0.001000
1021.692308,0.016617,0.001000,0.001000,0.001000,0.001000,0.001000
1021.711538,0.015444,0.001000,0.001000,0.001000,0.001000,0.001000
1021.730769,0.014262,0.001000,0.001000,0.001000,0.001000,0.001000
1021.750000,0.013071,0.001000,0.001000,0.001000,0.001000,0.001000
1021.769231,0.011871,0.001000,0.001000,0.001000,0.001000,0.001000
1021.788462,0.010665,0.001000,0.001000,0.001000,0.001000,0.001000
1021.807692,0.009452,0.001000,0.001000,0.001000,0.001000,0.001000
1021.826923,0.008233,0.001000,0.001000,0.001000,0.001000,0.001000
1021.846154,0.007010,0.001000,0.001000,0.001000,0.001000,0.001000
1021.865385,0.005782,0.001000,0.001000,0.001000,0.001000,0.001000
1021.884615,0.004550,0.001000,0.001000,0.001000,0.001000,0.001000
1021.903846,0.003316,0.001000,0.001000,0.001000,0.001000,0.001000
1021.923077,0.002079,0.001000,0.001000,0.001000,0.001000,0.001000
1021.942308,0.000841,0.001000,0.001000,0.001000,0.001000,0.001000
1021.961538,-0.000397,0.001000,0.001000,0.001000,0.001000,0.001000
1021.980769,-0.001635,0.001000,0.001000,0.001000,0.001000,0.001000
1022.000000,-0.002872,0.001000,0.001000,0.001000,0.001000,0.001000
1022.019231,-0.004107,0.001000,0.001000,0.001000,0.001000,0.001000
1022.038462,-0.005340,0.001000,0.001000,0.001000,0.001000,0.001000
1022.057692,-0.006569,0.001000,0.001000,0.001000,0.001000,0.001000
1022.076923,-0.007795,0.001000,0.001000,0.001000,0.001000,0.001000
1022.096154,-0.009015,0.001000,0.001000,0.001000,0.001000,0.001000
1022.115385,-0.010230,0.001000,0.001000,0.001000,0.001000,0.001000
1022.134615,-0.011439,0.001000,0.001000,0.001000,0.001000,0.001000
1022.153846,-0.012641,0.001000,0.001000,0.001000,0.001000,0.001000
1022.173077,-0.013835,0.001000,0.001000,0.001000,0.001000,0.001000
1022.192308,-0.015021,0.001000,0.001000,0.001000,0.001000,0.001000
1022.211538,-0.016197,0.001000,0.001000,0.001000,0.001000,0.001000
1022.230769,-0.017363,0.001000,0.001000,0.001000,0.001000,0.001000
1022.250000,-0.018519,0.001000,0.001000,0.001000,0.001000,0.001000
1022.269231,-0.019663,0.001000,0.001000,0.001000,0.001000,0.001000
1022.288462,-0.020796,0.001000,0.001000,0.001000,0.001000,0.001000
1022.307692,-0.021915,0.001000,0.001000,0.001000,0.001000,0.001000
1022.326923,-0.023022,0.001000,0.001000,0.001000,0.001000,0.001000
1022.346154,-0.024114,0.001000,0.001000,0.001000,0.001000,0.001000
1022.365385,-0.025191,0.001000,0.001000,0.001000,0.001000,0.001000
1022.384615,-0.026253,0.001000,0.001000,0.001000,0.001000,0.001000
1022.403846,-0.027298,0.001000,0.001000,0.001000,0.001000,0.001000
1022.423077,-0.028327,0.001000,0.001000,0.001000,0.001000,0.001000
1022.442308,-0.029339,0.001000,0.001000,0.001000,0.001000,0.001000
1022.461538,-0.030333,0.001000,0.001000,0.001000,0.001000,0.001000
1022.480769,-0.031308,0.001000,0.001000,0.001000,0.001000,0.001000
1022.500000,-0.032263,0.001000,0.001000,0.001000,0.001000,0.001000
1022.519231,-0.033199,0.001000,0.001000,0.001000,0.001000,0.001000
1022.538462,-0.034115,0.001000,0.001000,0.001000,0.001000,0.001000
1022.557692,-0.035010,0.001000,0.001000,0.001000,0.001000,0.001000
1022.576923,-0.035883,0.001000,0.001000,0.001000,0.001000,0.001000
1022.596154,-0.036734,0.001000,0.001000,0.001000,0.001000,0.001000
1022.615385,-0.037563,0.001000,0.001000,0.001000,0.001000,0.001000
1022.634615,-0.038369,0.001000,0.001000,0.001000,0.001000,0.001000
1022.653846,-0.039151,0.001000,0.001000,0.001000,0.001000,0.001000
1022.673077,-0.039909,0.001000,0.001000,0.001000,0.001000,0.001000
1022.692308,-0.040642,0.001000,0.001000,0.001000,0.001000,0.001000
1022.711538,-0.041351,0.001000,0.001000,0.001000,0.001000,0.001000
1022.730769,-0.042035,0.001000,0.001000,0.001000,0.001000,0.001000
1022.750000,-0.042692,0.001000,0.001000,0.001000,0.001000,0.001000
1022.769231,-0.043324,0.001000,0.001000,0.001000,0.001000,0.001000
1022.788462,-0.043928,0.001000,0.001000,0.001000,0.001000,0.001000
1022.807692,-0.044506,0.001000,0.001000,0.001000,0.001000,0.001000
1022.826923,-0.045057,0.001000,0.001000,0.001000,0.001000,0.001000
1022.846154,-0.045580,0.001000,0.001000,0.001000,0.001000,0.001000
1022.865385,-0.046075,0.001000,0.001000,0.001000,0.001000,0.001000
1022.884615,-0.046542,0.001000,0.001000,0.001000,0.001000,0.001000
1022.903846,-0.046980,0.001000,0.001000,0.001000,0.001000,0.001000
1022.923077,-0.047389,0.001000,0.001000,0.001000,0.001000,0.001000
1022.942308,-0.047770,0.001000,0.001000,0.001000,0.001000,0.001000
1022.961538,-0.048121,0.001000,0.001000,0.001000,0.001000,0.001000
1022.980769,-0.048442,0.001000,0.001000,0.001000,0.001000,0.001000
1023.000000,-0.048734,0.001000,0.001000,0.001000,0.001000,0.001000
1023.019231,-0.048996,0.001000,0.001000,0.001000,0.001000,0.001000
1023.038462,-0.049228,0.001000,0.001000,0.001000,0.001000,0.001000
1023.057692,-0.049429,0.001000,0.001000,0.001000,0.001000,0.001000
1023.076923,-0.049601,0.001000,0.001000,0.001000,0.001000,0.001000
1023.096154,-0.049742,0.001000,0.001000,0.001000,0.001000,0.001000
1023.115385,-0.049852,0.001000,0.001000,0.001000,0.001000,0.001000
1023.134615,-0.049932,0.001000,0.001000,0.001000,0.001000,0.001000
1023.153846,-0.049981,0.001000,0.001000,0.001000,0.001000,0.001000
1023.173077,-0.050000,0.001000,0.001000,0.001000,0.001000,0.001000
1023.192308,-0.049988,0.001000,0.001000,0.001000,0.001000,0.001000
1023.211538,-0.049945,0.001000,0.001000,0.001000,0.001000,0.001000
1023.230769,-0.049872,0.001000,0.001000,0.001000,0.001000,0.001000
1023.250000,-0.049768,0.001000,0.001000,0.001000,0.001000,0.001000
1023.269231,-0.049633,0.001000,0.001000,0.001000,0.001000,0.001000
1023.288462,-0.049468,0.001000,0.001000,0.001000,0.001000,0.001000
1023.307692,-0.049273,0.001000,0.001000,0.001000,0.001000,0.001000
1023.326923,-0.049048,0.001000,0.001000,0.001000,0.001000,0.001000
1023.346154,-0.048792,0.001000,0.001000,0.001000,0.001000,0.001000
1023.365385,-0.048507,0.001000,0.001000,0.001000,0.001000,0.001000
1023.384615,-0.048191,0.001000,0.001000,0.001000,0.001000,0.001000
1023.403846,-0.047847,0.001000,0.001000,0.001000,0.001000,0.001000
1023.423077,-0.047472,0.001000,0.001000,0.001000,0.001000,0.001000
1023.442308,-0.047069,0.001000,0.001000,0.001000,0.001000,0.001000
1023.461538,-0.046637,0.001000,0.001000,0.001000,0.001000,0.001000
1023.480769,-0.046176,0.001000,0.001000,0.001000,0.001000,0.001000
1023.500000,-0.045687,0.001000,0.001000,0.001000,0.001000,0.001000
1023.519231,-0.045170,0.001000,0.001000,0.001000,0.001000,0.001000
1023.538462,-0.044626,0.001000,0.001000,0.001000,0.001000,0.001000
1023.557692,-0.044053,0.001000,0.001000,0.001000,0.001000,0.001000
1023.576923,-0.043454,0.001000,0.001000,0.001000,0.001000,0.001000
1023.596154,-0.042828,0.001000,0.001000,0.001000,0.001000,0.001000
1023.615385,-0.042176,0.001000,0.001000,0.001000,0.001000,0.001000
1023.634615,-0.041498,0.001000,0.001000,0.001000,0.001000,0.001000
1023.653846,-0.040795,0.001000,0.001000,0.001000,0.001000,0.001000
1023.673077,-0.040067,0.001000,0.001000,0.001000,0.001000,0.001000
1023.692308,-0.039314,0.001000,0.001000,0.001000,0.001000,0.001000
1023.711538,-0.038537,0.001000,0.001000,0.001000,0.001000,0.001000
1023.730769,-0.037736,0.001000,0.001000,0.001000,0.001000,0.001000
1023.750000,-0.036912,0.001000,0.001000,0.001000,0.001000,0.001000
1023.769231,-0.036066,0.001000,0.001000,0.001000,0.001000,0.001000
1023.788462,-0.035197,0.001000,0.001000,0.001000,0.001000,0.001000
1023.807692,-0.034307,0.001000,0.001000,0.001000,0.001000,0.001000
1023.826923,-0.033395,0.001000,0.001000,0.001000,0.001000,0.001000
1023.846154,-0.032464,0.001000,0.001000,0.001000,0.001000,0.001000
1023.865385,-0.031512,0.001000,0.001000,0.001000,0.001000,0.001000
1023.884615,-0.030541,0.001000,0.001000,0.001000,0.001000,0.001000
1023.903846,-0.029551,0.001000,0.001000,0.001000,0.001000,0.001000
1023.923077,-0.028544,0.001000,0.001000,0.001000,0.001000,0.001000
1023.942308,-0.027518,0.001000,0.001000,0.001000,0.001000,0.001000
1023.961538,-0.026476,0.001000,0.001000,0.001000,0.001000,0.001000
1023.980769,-0.025418,0.001000,0.001000,0.001000,0.001000,0.001000
1024.000000,-0.024344,0.001000,0.001000,0.001000,0.001000,0.001000
1024.019231,-0.023255,0.001000,0.001000,0.001000,0.001000,0.001000
1024.038462,-0.022152,0.001000,0.001000,0.001000,0.001000,0.001000
1024.057692,-0.021035,0.001000,0.001000,0.001000,0.001000,0.001000
1024.076923,-0.019905,0.001000,0.001000,0.001000,0.001000,0.001000
1024.096154,-0.018763,0.001000,0.001000,0.001000,0.001000,0.001000
1024.115385,-0.017610,0.001000,0.001000,0.001000,0.001000,0.001000
1024.134615,-0.016445,0.001000,0.001000,0.001000,0.001000,0.001000
1024.153846,-0.015271,0.001000,0.001000,0.001000,0.001000,0.001000
1024.173077,-0.014087,0.001000,0.001000,0.001000,0.001000,0.001000
1024.192308,-0.012895,0.001000,0.001000,0.001000,0.001000,0.001000
1024.211538,-0.011695,0.001000,0.001000,0.001000,0.001000,0.001000
1024.230769,-0.010488,0.001000,0.001000,0.001000,0.001000,0.001000
1024.250000,-0.009274,0.001000,0.001000,0.001000,0.001000,0.001000
1024.269231,-0.008054,0.001000,0.001000,0.001000,0.001000,0.001000
1024.288462,-0.006830,0.001000,0.001000,0.001000,0.001000,0.001000
1024.307692,-0.005601,0.001000,0.001000,0.001000,0.001000,0.001000
1024.326923,-0.004369,0.001000,0.001000,0.001000,0.001000,0.001000
1024.346154,-0.003134,0.001000,0.001000,0.001000,0.001000,0.001000
1024.365385,-0.001898,0.001000,0.001000,0.001000,0.001000,0.001000
1024.384615,-0.000660,0.001000,0.001000,0.001000,0.001000,0.001000
1024.403846,0.000578,0.001000,0.001000,0.001000,0.001000,0.001000
1024.423077,0.001816,0.001000,0.001000,0.001000,0.001000,0.001000
1024.442308,0.003053,0.001000,0.001000,0.001000,0.001000,0.001000
1024.461538,0.004288,0.001000,0.001000,0.001000,0.001000,0.001000
1024.480769,0.005520,0.001000,0.001000,0.001000,0.001000,0.001000
1024.500000,0.006749,0.001000,0.001000,0.001000,0.001000,0.001000
1024.519231,0.007974,0.001000,0.001000,0.001000,0.001000,0.001000
1024.538462,0.009194,0.001000,0.001000,0.001000,0.001000,0.001000
1024.557692,0.010408,0.001000,0.001000,0.001000,0.001000,0.001000
1024.576923,0.011616,0.001000,0.001000,0.001000,0.001000,0.001000
1024.596154,0.012817,0.001000,0.001000,0.001000,0.001000,0.001000
1024.615385,0.014009,0.001000,0.001000,0.001000,0.001000,0.001000
1024.634615,0.015194,0.001000,0.001000,0.001000,0.001000,0.001000
1024.653846,0.016369,0.001000,0.001000,0.001000,0.001000,0.001000
1024.673077,0.017534,0.001000,0.001000,0.001000,0.001000,0.001000
1024.692308,0.018688,0.001000,0.001000,0.001000,0.001000,0.001000
1024.711538,0.019830,0.001000,0.001000,0.001000,0.001000,0.001000
1024.730769,0.020961,0.001000,0.001000,0.001000,0.001000,0.001000
1024.750000,0.022079,0.001000,0.001000,0.001000,0.001000,0.001000
1024.769231,0.023183,0.001000,0.001000,0.001000,0.001000,0.001000
1024.788462,0.024273,0.001000,0.001000,0.001000,0.001000,0.001000
1024.807692,0.025348,0.001000,0.001000,0.001000,0.001000,0.001000
1024.826923,0.026407,0.001000,0.001000,0.001000,0.001000,0.001000
1024.846154,0.027450,0.001000,0.001000,0.001000,0.001000,0.001000
1024.865385,0.028477,0.001000,0.001000,0.001000,0.001000,0.001000
1024.884615,0.029486,0.001000,0.001000,0.001000,0.001000,0.001000
1024.903846,0.030477,0.001000,0.001000,0.001000,0.001000,0.001000
1024.923077,0.031449,0.001000,0.001000,0.001000,0.001000,0.001000
1024.942308,0.032402,0.001000,0.001000,0.001000,0.001000,0.001000
1024.961538,0.033335,0.001000,0.001000,0.001000,0.001000,0.001000
1024.980769,0.034248,0.001000,0.001000,0.001000,0.001000,0.001000
1025.000000,0.035139,0.001000,0.001000,0.001000,0.001000,0.001000
1025.019231,0.036009,0.001000,0.001000,0.001000,0.001000,0.001000
1025.038462,0.036857,0.001000,0.001000,0.001000,0.001000,0.001000
1025.057692,0.037683,0.001000,0.001000,0.001000,0.001000,0.001000
1025.076923,0.038485,0.001000,0.001000,0.001000,0.001000,0.001000
1025.096154,0.039263,0.001000,0.001000,0.001000,0.001000,0.001000
1025.115385,0.040018,0.001000,0.001000,0.001000,0.001000,0.001000
1025.134615,0.040748,0.001000,0.001000,0.001000,0.001000,0.001000
1025.153846,0.041453,0.001000,0.001000,0.001000,0.001000,0.001000
1025.173077,0.042133,0.001000,0.001000,0.001000,0.001000,0.001000
1025.192308,0.042786,0.001000,0.001000,0.001000,0.001000,0.001000
1025.211538,0.043414,0.001000,0.001000,0.001000,0.001000,0.001000
1025.230769,0.044015,0.001000,0.001000,0.001000,0.001000,0.001000
1025.250000,0.044589,0.001000,0.001000,0.001000,0.001000,0.001000
1025.269231,0.045135,0.001000,0.001000,0.001000,0.001000,0.001000
1025.288462,0.045654,0.001000,0.001000,0.001000,0.001000,0.001000
1025.307692,0.046145,0.001000,0.001000,0.001000,0.001000,0.001000
1025.326923,0.046608,0.001000,0.001000,0.001000,0.001000,0.001000
1025.346154,0.047042,0.001000,0.001000,0.001000,0.001000,0.001000
1025.365385,0.047447,0.001000,0.001000,0.001000,0.001000,0.001000
1025.384615,0.047823,0.001000,0.001000,0.001000,0.001000,0.001000
1025.403846,0.048170,0.001000,0.001000,0.001000,0.001000,0.001000
1025.423077,0.048487,0.001000,0.001000,0.001000,0.001000,0.001000
1025.442308,0.048774,0.001000,0.001000,0.001000,0.001000,0.001000
1025.461538,0.049032,0.001000,0.001000,0.001000,0.001000,0.001000
1025.480769,0.049259,0.001000,0.001000,0.001000,0.001000,0.001000
1025.500000,0.049456,0.001000,0.001000,0.001000,0.001000,0.001000
1025.519231,0.049623,0.001000,0.001000,0.001000,0.001000,0.001000
1025.538462,0.049760,0.001000,0.001000,0.001000,0.001000,0.001000
1025.557692,0.049866,0.001000,0.001000,0.001000,0.001000,0.001000
1025.576923,0.049941,0.001000,0.001000,0.001000,0.001000,0.001000
1025.596154,0.049986,0.001000,0.001000,0.001000,0.001000,0.001000
1025.615385,0.050000,0.001000,0.001000,0.001000,0.001000,0.001000
1025.634615,0.049983,0.001000,0.001000,0.001000,0.001000,0.001000
1025.653846,0.049936,0.001000,0.001000,0.001000,0.001000,0.001000
1025.673077,0.049858,0.001000,0.001000,0.001000,0.001000,0.001000
1025.692308,0.049750,0.001000,0.001000,0.001000,0.001000,0.001000
1025.711538,0.049611,0.001000,0.001000,0.001000,0.001000,0.001000
1025.730769,0.049442,0.001000,0.001000,0.001000,0.001000,0.001000
1025.750000,0.049242,0.001000,0.001000,0.001000,0.001000,0.001000
1025.769231,0.049012,0.001000,0.001000,0.001000,0.001000,0.001000
1025.788462,0.048752,0.001000,0.001000,0.001000,0.001000,0.001000
1025.807692,0.048462,0.001000,0.001000,0.001000,0.001000,0.001000
1025.826923,0.048143,0.001000,0.001000,0.001000,0.001000,0.001000
1025.846154,0.047793,0.001000,0.001000,0.001000,0.001000,0.001000
1025.865385,0.047415,0.001000,0.001000,0.001000,0.001000,0.001000
1025.884615,0.047008,0.001000,0.001000,0.001000,0.001000,0.001000
1025.903846,0.046571,0.001000,0.001000,0.001000,0.001000,0.001000
1025.923077,0.046106,0.001000,0.001000,0.001000,0.001000,0.001000
1025.942308,0.045613,0.001000,0.001000,0.001000,0.001000,0.001000
1025.961538,0.045092,0.001000,0.001000,0.001000,0.001000,0.001000
1025.980769,0.044543,0.001000,0.001000,0.001000,0.001000,0.001000
1026.000000,0.043967,0.001000,0.001000,0.001000,0.001000,0.001000
1026.019231,0.043364,0.001000,0.001000,0.001000,0.001000,0.001000
1026.038462,0.042734,0.001000,0.001000,0.001000,0.001000,0.001000
1026.057692,0.042079,0.001000,0.001000,0.001000,0.001000,0.001000
1026.076923,0.041397,0.001000,0.001000,0.001000,0.001000,0.001000
1026.096154,0.040690,0.001000,0.001000,0.001000,0.001000,0.001000
1026.115385,0.039958,0.001000,0.001000,0.001000,0.001000,0.001000
1026.134615,0.039201,0.001000,0.001000,0.001000,0.001000,0.001000
1026.153846,0.038421,0.001000,0.001000,0.001000,0.001000,0.001000
1026.173077,0.037616,0.001000,0.001000,0.001000,0.001000,0.001000
1026.192308,0.036789,0.001000,0.001000,0.001000,0.001000,0.001000
1026.211538,0.035939,0.001000,0.001000,0.001000,0.001000,0.001000
1026.230769,0.035068,0.001000,0.001000,0.001000,0.001000,0.001000
1026.250000,0.034174,0.001000,0.001000,0.001000,0.001000,0.001000
1026.269231,0.033260,0.001000,0.001000,0.001000,0.001000,0.001000
1026.288462,0.032325,0.001000,0.001000,0.001000,0.001000,0.001000
1026.307692,0.031371,0.001000,0.001000,0.001000,0.001000,0.001000
1026.326923,0.030397,0.001000,0.001000,0.001000,0.001000,0.001000
1026.346154,0.029405,0.001000,0.001000,0.001000,0.001000,0.001000
1026.365385,0.028394,0.001000,0.001000,0.001000,0.001000,0.001000
1026.384615,0.027366,0.001000,0.001000,0.001000,0.001000,0.001000
1026.403846,0.026322,0.001000,0.001000,0.001000,0.001000,0.001000
1026.423077,0.025261,0.001000,0.001000,0.001000,0.001000,0.001000
1026.442308,0.024185,0.001000,0.001000,0.001000,0.001000,0.001000
1026.461538,0.023094,0.001000,0.001000,0.001000,0.001000,0.001000
1026.480769,0.021988,0.001000,0.001000,0.001000,0.001000,0.001000
1026.500000,0.020870,0.001000,0.001000,0.001000,0.001000,0.001000
1026.519231,0.019738,0.001000,0.001000,0.001000,0.001000,0.001000
1026.538462,0.018595,0.001000,0.001000,0.001000,0.001000,0.001000
1026.557692,0.017440,0.001000,0.001000,0.001000,0.001000,0.001000
1026.576923,0.016274,0.001000,0.001000,0.001000,0.001000,0.001000
1026.596154,0.015098,0.001000,0.001000,0.001000,0.001000,0.001000
1026.615385,0.013913,0.001000,0.001000,0.001000,0.001000,0.001000
1026.634615,0.012720,0.001000,0.001000,0.001000,0.001000,0.001000
1026.653846,0.011518,0.001000,0.001000,0.001000,0.001000,0.001000
1026.673077,0.010310,0.001000,0.001000,0.001000,0.001000,0.001000
1026.692308,0.009095,0.001000,0.001000,0.001000,0.001000,0.001000
1026.711538,0.007875,0.001000,0.001000,0.001000,0.001000,0.001000
1026.730769,0.006650,0.001000,0.001000,0.001000,0.001000,0.001000
1026.750000,0.005421,0.001000,0.001000,0.001000,0.001000,0.001000
1026.769231,0.004188,0.001000,0.001000,0.001000,0.001000,0.001000
1026.788462,0.002953,0.001000,0.001000,0.001000,0.001000,0.001000
1026.807692,0.001716,0.001000,0.001000,0.001000,0.001000,0.001000
1026.826923,0.000478,0.001000,0.001000,0.001000,0.001000,0.001000
1026.846154,-0.000760,0.001000,0.001000,0.001000,0.001000,0.001000
1026.865385,-0.001998,0.001000,0.001000,0.001000,0.001000,0.001000
1026.884615,-0.003234,0.001000,0.001000,0.001000,0.001000,0.001000
1026.903846,-0.004469,0.001000,0.001000,0.001000,0.001000,0.001000
1026.923077,-0.005701,0.001000,0.001000,0.001000,0.001000,0.001000
1026.942308,-0.006929,0.001000,0.001000,0.001000,0.001000,0.001000
1026.961538,-0.008153,0.001000,0.001000,0.001000,0.001000,0.001000
1026.980769,-0.009372,0.001000,0.001000,0.001000,0.001000,0.001000
1027.000000,-0.010586,0.001000,0.001000,0.001000,0.001000,0.001000
1027.019231,-0.011793,0.001000,0.001000,0.001000,0.001000,0.001000
1027.038462,-0.012992,0.001000,0.001000,0.001000,0.001000,0.001000
1027.057692,-0.014184,0.001000,0.001000,0.001000,0.001000,0.001000
1027.076923,-0.015367,0.001000,0.001000,0.001000,0.001000,0.001000
1027.096154,-0.016540,0.001000,0.001000,0.001000,0.001000,0.001000
1027.115385,-0.017704,0.001000,0.001000,0.001000,0.001000,0.001000
1027.134615,-0.018856,0.001000,0.001000,0.001000,0.001000,0.001000
1027.153846,-0.019997,0.001000,0.001000,0.001000,0.001000,0.001000
1027.173077,-0.021126,0.001000,0.001000,0.001000,0.001000,0.001000
1027.192308,-0.022241,0.001000,0.001000,0.001000,0.001000,0.001000
1027.211538,-0.023344,0.001000,0.001000,0.001000,0.001000,0.001000
1027.230769,-0.024431,0.001000,0.001000,0.001000,0.001000,0.001000
1027.250000,-0.025504,0.001000,0.001000,0.001000,0.001000,0.001000
1027.269231,-0.026561,0.001000,0.001000,0.001000,0.001000,0.001000
1027.288462,-0.027602,0.001000,0.001000,0.001000,0.001000,0.001000
1027.307692,-0.028626,0.001000,0.001000,0.001000,0.001000,0.001000
1027.326923,-0.029632,0.001000,0.001000,0.001000,0.001000,0.001000
1027.346154,-0.030621,0.001000,0.001000,0.001000,0.001000,0.001000
1027.365385,-0.031590,0.001000,0.001000,0.001000,0.001000,0.001000
1027.384615,-0.032540,0.001000,0.001000,0.001000,0.001000,0.001000
1027.403846,-0.033470,0.001000,0.001000,0.001000,0.001000,0.001000
1027.423077,-0.034380,0.001000,0.001000,0.001000,0.001000,0.001000
1027.442308,-0.035268,0.001000,0.001000,0.001000,0.001000,0.001000
1027.461538,-0.036135,0.001000,0.001000,0.001000,0.001000,0.001000
1027.480769,-0.036980,0.001000,0.001000,0.001000,0.001000,0.001000
1027.500000,-0.037802,0.001000,0.001000,0.001000,0.001000,0.001000
1027.519231,-0.038601,0.001000,0.001000,0.001000,0.001000,0.001000
1027.538462,-0.039376,0.001000,0.001000,0.001000,0.001000,0.001000
1027.557692,-0.040127,0.001000,0.001000,0.001000,0.001000,0.001000
1027.576923,-0.040853,0.001000,0.001000,0.001000,0.001000,0.001000
1027.596154,-0.041554,0.001000,0.001000,0.001000,0.001000,0.001000
1027.615385,-0.042230,0.001000,0.001000,0.001000,0.001000,0.001000
1027.634615,-0.042880,0.001000,0.001000,0.001000,0.001000,0.001000
1027.653846,-0.043504,0.001000,0.001000,0.001000,0.001000,0.001000
1027.673077,-0.044101,0.001000,0.001000,0.001000,0.001000,0.001000
1027.692308,-0.044671,0.001000,0.001000,0.001000,0.001000,0.001000
1027.711538,-0.045213,0.001000,0.001000,0.001000,0.001000,0.001000
1027.730769,-0.045728,0.001000,0.001000,0.001000,0.001000,0.001000
1027.750000,-0.046215,0.001000,0.001000,0.001000,0.001000,0.001000
1027.769231,-0.046673,0.001000,0.001000,0.001000,0.001000,0.001000
1027.788462,-0.047103,0.001000,0.001000,0.001000,0.001000,0.001000
1027.807692,-0.047504,0.001000,0.001000,0.001000,0.001000,0.001000
1027.826923,-0.047876,0.001000,0.001000,0.001000,0.001000,0.001000
1027.846154,-0.048218,0.001000,0.001000,0.001000,0.001000,0.001000
1027.865385,-0.048531,0.001000,0.001000,0.001000,0.001000,0.001000
1027.884615,-0.048814,0.001000,0.001000,0.001000,0.001000,0.001000
1027.903846,-0.049067,0.001000,0.001000,0.001000,0.001000,0.001000
1027.923077,-0.049290,0.001000,0.001000,0.001000,0.001000,0.001000
1027.942308,-0.049483,0.001000,0.001000,0.001000,0.001000,0.001000
1027.961538,-0.049645,0.001000,0.001000,0.001000,0.001000,0.001000
1027.980769,-0.049777,0.001000,0.001000,0.001000,0.001000,0.001000
1028.000000,-0.049879,0.001000,0.001000,0.001000,0.001000,0.001000
1028.019231,-0.049950,0.001000,0.001000,0.001000,0.001000,0.001000
1028.038462,-0.049990,0.001000,0.001000,0.001000,0.001000,0.001000
1028.057692,-0.049999,0.001000,0.001000,0.001000,0.001000,0.001000
1028.076923,-0.049978,0.001000,0.001000,0.001000,0.001000,0.001000
1028.096154,-0.049927,0.001000,0.001000,0.001000,0.001000,0.001000
1028.115385,-0.049844,0.001000,0.001000,0.001000,0.001000,0.001000
1028.134615,-0.049731,0.001000,0.001000,0.001000,0.001000,0.001000
1028.153846,-0.049588,0.001000,0.001000,0.001000,0.001000,0.001000
1028.173077,-0.049414,0.001000,0.001000,0.001000,0.001000,0.001000
1028.192308,-0.049210,0.001000,0.001000,0.001000,0.001000,0.001000
1028.211538,-0.048976,0.001000,0.001000,0.001000,0.001000,0.001000
1028.230769,-0.048711,0.001000,0.001000,0.001000,0.001000,0.001000
1028.250000,-0.048417,0.001000,0.001000,0.001000,0.001000,0.001000
1028.269231,-0.048093,0.001000,0.001000,0.001000,0.001000,0.001000
1028.288462,-0.047740,0.001000,0.001000,0.001000,0.001000,0.001000
1028.307692,-0.047357,0.001000,0.001000,0.001000,0.001000,0.001000
1028.326923,-0.046945,0.001000,0.001000,0.001000,0.001000,0.001000
1028.346154,-0.046505,0.001000,0.001000,0.001000,0.001000,0.001000
1028.365385,-0.046036,0.001000,0.001000,0.001000,0.001000,0.001000
1028.384615,-0.045538,0.001000,0.001000,0.001000,0.001000,0.001000
1028.403846,-0.045013,0.001000,0.001000,0.001000,0.001000,0.001000
1028.423077,-0.044460,0.001000,0.001000,0.001000,0.001000,0.001000
1028.442308,-0.043880,0.001000,0.001000,0.001000,0.001000,0.001000
1028.461538,-0.043273,0.001000,0.001000,0.001000,0.001000,0.001000
1028.480769,-0.042640,0.001000,0.001000,0.001000,0.001000,0.001000
1028.500000,-0.041980,0.001000,0.001000,0.001000,0.001000,0.001000
1028.519231,-0.041295,0.001000,0.001000,0.001000,0.001000,0.001000
1028.538462,-0.040584,0.001000,0.001000,0.001000,0.001000,0.001000
1028.557692,-0.039848,0.001000,0.001000,0.001000,0.001000,0.001000
1028.576923,-0.039088,0.001000,0.001000,0.001000,0.001000,0.001000
1028.596154,-0.038304,0.001000,0.001000,0.001000,0.001000,0.001000
1028.615385,-0.037497,0.001000,0.001000,0.001000,0.001000,0.001000
1028.634615,-0.036666,0.001000,0.001000,0.001000,0.001000,0.001000
1028.653846,-0.035813,0.001000,0.001000,0.001000,0.001000,0.001000
1028.673077,-0.034938,0.001000,0.001000,0.001000,0.001000,0.001000
1028.692308,-0.034042,0.001000,0.001000,0.001000,0.001000,0.001000
1028.711538,-0.033124,0.001000,0.001000,0.001000,0.001000,0.001000
1028.730769,-0.032187,0.001000,0.001000,0.001000,0.001000,0.001000
1028.750000,-0.031229,0.001000,0.001000,0.001000,0.001000,0.001000
1028.769231,-0.030253,0.001000,0.001000,0.001000,0.001000,0.001000
1028.788462,-0.029258,0.001000,0.001000,0.001000,0.001000,0.001000
1028.807692,-0.028245,0.001000,0.001000,0.001000,0.001000,0.001000
1028.826923,-0.027214,0.001000,0.001000,0.001000,0.001000,0.001000
1028.846154,-0.026167,0.001000,0.001000,0.001000,0.001000,0.001000
1028.865385,-0.025104,0.001000,0.001000,0.001000,0.001000,0.001000
1028.884615,-0.024026,0.001000,0.001000,0.001000,0.001000,0.001000
1028.903846,-0.022932,0.001000,0.001000,0.001000,0.001000,0.001000
1028.923077,-0.021825,0.001000,0.001000,0.001000,0.001000,0.001000
1028.942308,-0.020705,0.001000,0.001000,0.001000,0.001000,0.001000
1028.961538,-0.019571,0.001000,0.001000,0.001000,0.001000,0.001000
1028.980769,-0.018426,0.001000,0.001000,0.001000,0.001000,0.001000
1029.000000,-0.017269,0.001000,0.001000,0.001000,0.001000,0.001000
1029.019231,-0.016102,0.001000,0.001000,0.001000,0.001000,0.001000
1029.038462,-0.014925,0.001000,0.001000,0.001000,0.001000,0.001000
1029.057692,-0.013738,0.001000,0.001000,0.001000,0.001000,0.001000
1029.076923,-0.012544,0.001000,0.001000,0.001000,0.001000,0.001000
1029.096154,-0.011341,0.001000,0.001000,0.001000,0.001000,0.001000
1029.115385,-0.010132,0.001000,0.001000,0.001000,0.001000,0.001000
1029.134615,-0.008916,0.001000,0.001000,0.001000,0.001000,0.001000
1029.153846,-0.007695,0.001000,0.001000,0.001000,0.001000,0.001000
1029.173077,-0.006470,0.001000,0.001000,0.001000,0.001000,0.001000
1029.192308,-0.005240,0.001000,0.001000,0.001000,0.001000,0.001000
1029.211538,-0.004007,0.001000,0.001000,0.001000,0.001000,0.001000
1029.230769,-0.002772,0.001000,0.001000,0.001000,0.001000,0.001000
1029.250000,-0.001534,0.001000,0.001000,0.001000,0.001000,0.001000
1029.269231,-0.000296,0.001000,0.001000,0.001000,0.001000,0.001000
1029.288462,0.000942,0.001000,0.001000,0.001000,0.001000,0.001000
1029.307692,0.002179,0.001000,0.001000,0.001000,0.001000,0.001000
1029.326923,0.003416,0.001000,0.001000,0.001000,0.001000,0.001000
1029.346154,0.004650,0.001000,0.001000,0.001000,0.001000,0.001000
1029.365385,0.005881,0.001000,0.001000,0.001000,0.001000,0.001000
1029.384615,0.007109,0.001000,0.001000,0.001000,0.001000,0.001000
1029.403846,0.008332,0.001000,0.001000,0.001000,0.001000,0.001000
1029.423077,0.009551,0.001000,0.001000,0.001000,0.001000,0.001000
1029.442308,0.010763,0.001000,0.001000,0.001000,0.001000,0.001000
1029.461538,0.011969,0.001000,0.001000,0.001000,0.001000,0.001000
1029.480769,0.013167,0.001000,0.001000,0.001000,0.001000,0.001000
1029.500000,0.014358,0.001000,0.001000,0.001000,0.001000,0.001000
1029.519231,0.015539,0.001000,0.001000,0.001000,0.001000,0.001000
1029.538462,0.016712,0.001000,0.001000,0.001000,0.001000,0.001000
1029.557692,0.017873,0.001000,0.001000,0.001000,0.001000,0.001000
1029.576923,0.019024,0.001000,0.001000,0.001000,0.001000,0.001000
1029.596154,0.020163,0.001000,0.001000,0.001000,0.001000,0.001000
1029.615385,0.021290,0.001000,0.001000,0.001000,0.001000,0.001000
1029.634615,0.022404,0.001000,0.001000,0.001000,0.001000,0.001000
1029.653846,0.023504,0.001000,0.001000,0.001000,0.001000,0.001000
1029.673077,0.024590,0.001000,0.001000,0.001000,0.001000,0.001000
1029.692308,0.025660,0.001000,0.001000,0.001000,0.001000,0.001000
1029.711538,0.026715,0.001000,0.001000,0.001000,0.001000,0.001000
1029.730769,0.027753,0.001000,0.001000,0.001000,0.001000,0.001000
1029.750000,0.028775,0.001000,0.001000,0.001000,0.001000,0.001000
1029.769231,0.029779,0.001000,0.001000,0.001000,0.001000,0.001000
1029.788462,0.030764,0.001000,0.001000,0.001000,0.001000,0.001000
1029.807692,0.031731,0.001000,0.001000,0.001000,0.001000,0.001000
1029.826923,0.032678,0.001000,0.001000,0.001000,0.001000,0.001000
1029.846154,0.033605,0.001000,0.001000,0.001000,0.001000,0.001000
1029.865385,0.034511,0.001000,0.001000,0.001000,0.001000,0.001000
1029.884615,0.035397,0.001000,0.001000,0.001000,0.001000,0.001000
1029.903846,0.036260,0.001000,0.001000,0.001000,0.001000,0.001000
1029.923077,0.037102,0.001000,0.001000,0.001000,0.001000,0.001000
1029.942308,0.037920,0.001000,0.001000,0.001000,0.001000,0.001000
1029.961538,0.038716,0.001000,0.001000,0.001000,0.001000,0.001000
1029.980769,0.039487,0.001000,0.001000,0.001000,0.001000,0.001000
1030.000000,0.000000,0.001000,0.001000,0.001000,0.001000,0.001000
1030.019231,0.001190,0.001000,0.001000,0.001000,0.001000,0.001000
1030.038462,0.002380,0.001000,0.001000,0.001000,0.001000,0.001000
1030.057692,0.003569,0.001000,0.001000,0.001000,0.001000,0.001000
1030.076923,0.004755,0.001000,0.001000,0.001000,0.001000,0.001000
1030.096154,0.005939,0.001000,0.001000,0.001000,0.001000,0.001000
1030.115385,0.007119,0.001000,0.001000,0.001000,0.001000,0.001000
1030.134615,0.008295,0.001000,0.001000,0.001000,0.001000,0.001000
1030.153846,0.009467,0.001000,0.001000,0.001000,0.001000,0.001000
1030.173077,0.010633,0.001000,0.001000,0.001000,0.001000,0.001000
1030.192308,0.011793,0.001000,0.001000,0.001000,0.001000,0.001000
1030.211538,0.012947,0.001000,0.001000,0.001000,0.001000,0.001000
1030.230769,0.014093,0.001000,0.001000,0.001000,0.001000,0.001000
1030.250000,0.015231,0.001000,0.001000,0.001000,0.001000,0.001000
1030.269231,0.016361,0.001000,0.001000,0.001000,0.001000,0.001000
1030.288462,0.017481,0.001000,0.001000,0.001000,0.001000,0.001000
1030.307692,0.018591,0.001000,0.001000,0.001000,0.001000,0.001000
1030.326923,0.019691,0.001000,0.001000,0.001000,0.001000,0.001000
1030.346154,0.020780,0.001000,0.001000,0.001000,0.001000,0.001000
1030.365385,0.021857,0.001000,0.001000,0.001000,0.001000,0.001000
1030.384615,0.022921,0.001000,0.001000,0.001000,0.001000,0.001000
1030.403846,0.023973,0.001000,0.001000,0.001000,0.001000,0.001000
1030.423077,0.025011,0.001000,0.001000,0.001000,0.001000,0.001000
1030.442308,0.026034,0.001000,0.001000,0.001000,0.001000,0.001000
1030.461538,0.027043,0.001000,0.001000,0.001000,0.001000,0.001000
1030.480769,0.028037,0.001000,0.001000,0.001000,0.001000,0.001000
1030.500000,0.029015,0.001000,0.001000,0.001000,0.001000,0.001000
1030.519231,0.029976,0.001000,0.001000,0.001000,0.001000,0.001000
1030.538462,0.030920,0.001000,0.001000,0.001000,0.001000,0.001000
1030.557692,0.031847,0.001000,0.001000,0.001000,0.001000,0.001000
1030.576923,0.032756,0.001000,0.001000,0.001000,0.001000,0.001000
1030.596154,0.033646,0.001000,0.001000,0.001000,0.001000,0.001000
1030.615385,0.034517,0.001000,0.001000,0.001000,0.001000,0.001000
1030.634615,0.035368,0.001000,0.001000,0.001000,0.001000,0.001000
1030.653846,0.036200,0.001000,0.001000,0.001000,0.001000,0.001000
1030.673077,0.037011,0.001000,0.001000,0.001000,0.001000,0.001000
1030.692308,0.037801,0.001000,0.001000,0.001000,0.001000,0.001000
1030.711538,0.038569,0.001000,0.001000,0.001000,0.001000,0.001000
1030.730769,0.039316,0.001000,0.001000,0.001000,0.001000,0.001000
1030.750000,0.040040,0.001000,0.001000,0.001000,0.001000,0.001000
1030.769231,0.040742,0.001000,0.001000,0.001000,0.001000,0.001000
1030.788462,0.041420,0.001000,0.001000,0.001000,0.001000,0.001000
1030.807692,0.042075,0.001000,0.001000,0.001000,0.001000,0.001000
1030.826923,0.042706,0.001000,0.001000,0.001000,0.001000,0.001000
1030.846154,0.043313,0.001000,0.001000,0.001000,0.001000,0.001000
1030.865385,0.043896,0.001000,0.001000,0.001000,0.001000,0.001000
1030.884615,0.044453,0.001000,0.001000,0.001000,0.001000,0.001000
1030.903846,0.044986,0.001000,0.001000,0.001000,0.001000,0.001000
1030.923077,0.045493,0.001000,0.001000,0.001000,0.001000,0.001000
1030.942308,0.045974,0.001000,0.001000,0.001000,0.001000,0.001000
1030.961538,0.046429,0.001000,0.001000,0.001000,0.001000,0.001000
1030.980769,0.046857,0.001000,0.001000,0.001000,0.001000,0.001000
1031.000000,0.047259,0.001000,0.001000,0.001000,0.001000,0.001000
1031.019231,0.047635,0.001000,0.001000,0.001000,0.001000,0.001000
1031.038462,0.047983,0.001000,0.001000,0.001000,0.001000,0.001000
1031.057692,0.048304,0.001000,0.001000,0.001000,0.001000,0.001000
1031.076923,0.048598,0.001000,0.001000,0.001000,0.001000,0.001000
1031.096154,0.048864,0.001000,0.001000,0.001000,0.001000,0.001000
1031.115385,0.049102,0.001000,0.001000,0.001000,0.001000,0.001000
1031.134615,0.049313,0.001000,0.001000,0.001000,0.001000,0.001000
1031.153846,0.049496,0.001000,0.001000,0.001000,0.001000,0.001000
1031.173077,0.049650,0.001000,0.001000,0.001000,0.001000,0.001000
1031.192308,0.049777,0.001000,0.001000,0.001000,0.001000,0.001000
1031.211538,0.049875,0.001000,0.001000,0.001000,0.001000,0.001000
1031.230769,0.049945,0.001000,0.001000,0.001000,0.001000,0.001000
1031.250000,0.049987,0.001000,0.001000,0.001000,0.001000,0.001000
1031.269231,0.050000,0.001000,0.001000,0.001000,0.001000,0.001000
1031.288462,0.049985,0.001000,0.001000,0.001000,0.001000,0.001000
1031.307692,0.049942,0.001000,0.001000,0.001000,0.001000,0.001000
1031.326923,0.049870,0.001000,0.001000,0.001000,0.001000,0.001000
1031.346154,0.049770,0.001000,0.001000,0.001000,0.001000,0.001000
1031.365385,0.049642,0.001000,0.001000,0.001000,0.001000,0.001000
1031.384615,0.049485,0.001000,0.001000,0.001000,0.001000,0.001000
1031.403846,0.049301,0.001000,0.001000,0.001000,0.001000,0.001000
1031.423077,0.049089,0.001000,0.001000,0.001000,0.001000,0.001000
1031.442308,0.048849,0.001000,0.001000,0.001000,0.001000,0.001000
1031.461538,0.048581,0.001000,0.001000,0.001000,0.001000,0.001000
1031.480769,0.048285,0.001000,0.001000,0.001000,0.001000,0.001000
1031.500000,0.047962,0.001000,0.001000,0.001000,0.001000,0.001000
1031.519231,0.047613,0.001000,0.001000,0.001000,0.001000,0.001000
1031.538462,0.047236,0.001000,0.001000,0.001000,0.001000,0.001000
1031.557692,0.046832,0.001000,0.001000,0.001000,0.001000,0.001000
1031.576923,0.046402,0.001000,0.001000,0.001000,0.001000,0.001000
1031.596154,0.045945,0.001000,0.001000,0.001000,0.001000,0.001000
1031.615385,0.045462,0.001000,0.001000,0.001000,0.001000,0.001000
1031.634615,0.044954,0.001000,0.001000,0.001000,0.001000,0.001000
1031.653846,0.044420,0.001000,0.001000,0.001000,0.001000,0.001000
1031.673077,0.043861,0.001000,0.001000,0.001000,0.001000,0.001000
1031.692308,0.043277,0.001000,0.001000,0.001000,0.001000,0.001000
1031.711538,0.042668,0.001000,0.001000,0.001000,0.001000,0.001000
1031.730769,0.042036,0.001000,0.001000,0.001000,0.001000,0.001000
1031.750000,0.041379,0.001000,0.001000,0.001000,0.001000,0.001000
1031.769231,0.040699,0.001000,0.001000,0.001000,0.001000,0.001000
1031.788462,0.039996,0.001000,0.001000,0.001000,0.001000,0.001000
1031.807692,0.039271,0.001000,0.001000,0.001000,0.001000,0.001000
1031.826923,0.038523,0.001000,0.001000,0.001000,0.001000,0.001000
1031.846154,0.037753,0.001000,0.001000,0.001000,0.001000,0.001000
1031.865385,0.036961,0.001000,0.001000,0.001000,0.001000,0.001000
1031.884615,0.036149,0.001000,0.001000,0.001000,0.001000,0.001000
1031.903846,0.035317,0.001000,0.001000,0.001000,0.001000,0.001000
1031.923077,0.034464,0.001000,0.001000,0.001000,0.001000,0.001000
1031.942308,0.033592,0.001000,0.001000,0.001000,0.001000,0.001000
1031.961538,0.032700,0.001000,0.001000,0.001000,0.001000,0.001000
1031.980769,0.031791,0.001000,0.001000,0.001000,0.001000,0.001000
1032.000000,0.030863,0.001000,0.001000,0.001000,0.001000,0.001000
1032.019231,0.029917,0.001000,0.001000,0.001000,0.001000,0.001000
1032.038462,0.028955,0.001000,0.001000,0.001000,0.001000,0.001000
1032.057692,0.027976,0.001000,0.001000,0.001000,0.001000,0.001000
1032.076923,0.026982,0.001000,0.001000,0.001000,0.001000,0.001000
1032.096154,0.025972,0.001000,0.001000,0.001000,0.001000,0.001000
1032.115385,0.024947,0.001000,0.001000,0.001000,0.001000,0.001000
1032.134615,0.023909,0.001000,0.001000,0.001000,0.001000,0.001000
1032.153846,0.022856,0.001000,0.001000,0.001000,0.001000,0.001000
1032.173077,0.021791,0.001000,0.001000,0.001000,0.001000,0.001000
1032.192308,0.020713,0.001000,0.001000,0.001000,0.001000,0.001000
1032.211538,0.019624,0.001000,0.001000,0.001000,0.001000,0.001000
1032.230769,0.018524,0.001000,0.001000,0.001000,0.001000,0.001000
1032.250000,0.017413,0.001000,0.001000,0.001000,0.001000,0.001000
1032.269231,0.016292,0.001000,0.001000,0.001000,0.001000,0.001000
1032.288462,0.015162,0.001000,0.001000,0.001000,0.001000,0.001000
1032.307692,0.014023,0.001000,0.001000,0.001000,0.001000,0.001000
1032.326923,0.012876,0.001000,0.001000,0.001000,0.001000,0.001000
1032.346154,0.011722,0.001000,0.001000,0.001000,0.001000,0.001000
1032.365385,0.010562,0.001000,0.001000,0.001000,0.001000,0.001000
1032.384615,0.009395,0.001000,0.001000,0.001000,0.001000,0.001000
1032.403846,0.008223,0.001000,0.001000,0.001000,0.001000,0.001000
1032.423077,0.007047,0.001000,0.001000,0.001000,0.001000,0.001000
1032.442308,0.005866,0.001000,0.001000,0.001000,0.001000,0.001000
1032.461538,0.004682,0.001000,0.001000,0.001000,0.001000,0.001000
1032.480769,0.003496,0.001000,0.001000,0.001000,0.001000,0.001000
1032.500000,0.002307,0.001000,0.001000,0.001000,0.001000,0.001000
1032.519231,0.001117,0.001000,0.001000,0.001000,0.001000,0.001000
1032.538462,-0.000073,0.001000,0.001000,0.001000,0.001000,0.001000
1032.557692,-0.001263,0.001000,0.001000,0.001000,0.001000,0.001000
1032.576923,-0.002453,0.001000,0.001000,0.001000,0.001000,0.001000
1032.596154,-0.003641,0.001000,0.001000,0.001000,0.001000,0.001000
1032.615385,-0.004828,0.001000,0.001000,0.001000,0.001000,0.001000
1032.634615,-0.006011,0.001000,0.001000,0.001000,0.001000,0.001000
1032.653846,-0.007191,0.001000,0.001000,0.001000,0.001000,0.001000
1032.673077,-0.008367,0.001000,0.001000,0.001000,0.001000,0.001000
1032.692308,-0.009539,0.001000,0.001000,0.001000,0.001000,0.001000
1032.711538,-0.010704,0.001000,0.001000,0.001000,0.001000,0.001000
1032.730769,-0.011864,0.001000,0.001000,0.001000,0.001000,0.001000
1032.750000,-0.013017,0.001000,0.001000,0.001000,0.001000,0.001000
1032.769231,-0.014163,0.001000,0.001000,0.001000,0.001000,0.001000
1032.788462,-0.015301,0.001000,0.001000,0.001000,0.001000,0.001000
1032.807692,-0.016430,0.001000,0.001000,0.001000,0.001000,0.001000
1032.826923,-0.017549,0.001000,0.001000,0.001000,0.001000,0.001000
1032.846154,-0.018659,0.001000,0.001000,0.001000,0.001000,0.001000
1032.865385,-0.019758,0.001000,0.001000,0.001000,0.001000,0.001000
1032.884615,-0.020846,0.001000,0.001000,0.001000,0.001000,0.001000
1032.903846,-0.021922,0.001000,0.001000,0.001000,0.001000,0.001000
1032.923077,-0.022986,0.001000,0.001000,0.001000,0.001000,0.001000
1032.942308,-0.024037,0.001000,0.001000,0.001000,0.001000,0.001000
1032.961538,-0.025074,0.001000,0.001000,0.001000,0.001000,0.001000
1032.980769,-0.026097,0.001000,0.001000,0.001000,0.001000,0.001000
1033.000000,-0.027105,0.001000,0.001000,0.001000,0.001000,0.001000
1033.019231,-0.028097,0.001000,0.001000,0.001000,0.001000,0.001000
1033.038462,-0.029074,0.001000,0.001000,0.001000,0.001000,0.001000
1033.057692,-0.030034,0.001000,0.001000,0.001000,0.001000,0.001000
1033.076923,-0.030977,0.001000,0.001000,0.001000,0.001000,0.001000
1033.096154,-0.031903,0.001000,0.001000,0.001000,0.001000,0.001000
1033.115385,-0.032811,0.001000,0.001000,0.001000,0.001000,0.001000
1033.134615,-0.033700,0.001000,0.001000,0.001000,0.001000,0.001000
1033.153846,-0.034570,0.001000,0.001000,0.001000,0.001000,0.001000
1033.173077,-0.035420,0.001000,0.001000,0.001000,0.001000,0.001000
1033.192308,-0.036250,0.001000,0.001000,0.001000,0.001000,0.001000
1033.211538,-0.037060,0.001000,0.001000,0.001000,0.001000,0.001000
1033.230769,-0.037848,0.001000,0.001000,0.001000,0.001000,0.001000
1033.250000,-0.038615,0.001000,0.001000,0.001000,0.001000,0.001000
1033.269231,-0.039361,0.001000,0.001000,0.001000,0.001000,0.001000
1033.288462,-0.040084,0.001000,0.001000,0.001000,0.001000,0.001000
1033.307692,-0.040784,0.001000,0.001000,0.001000,0.001000,0.001000
1033.326923,-0.041461,0.001000,0.001000,0.001000,0.001000,0.001000
1033.346154,-0.042115,0.001000,0.001000,0.001000,0.001000,0.001000
1033.365385,-0.042744,0.001000,0.001000,0.001000,0.001000,0.001000
1033.384615,-0.043350,0.001000,0.001000,0.001000,0.001000,0.001000
1033.403846,-0.043931,0.001000,0.001000,0.001000,0.001000,0.001000
1033.423077,-0.044487,0.001000,0.001000,0.001000,0.001000,0.001000
1033.442308,-0.045018,0.001000,0.001000,0.001000,0.001000,0.001000
1033.461538,-0.045523,0.001000,0.001000,0.001000,0.001000,0.001000
1033.480769,-0.046002,0.001000,0.001000,0.001000,0.001000,0.001000
1033.500000,-0.046456,0.001000,0.001000,0.001000,0.001000,0.001000
1033.519231,-0.046883,0.001000,0.001000,0.001000,0.001000,0.001000
1033.538462,-0.047283,0.001000,0.001000,0.001000,0.001000,0.001000
1033.557692,-0.047657,0.001000,0.001000,0.001000,0.001000,0.001000
1033.576923,-0.048004,0.001000,0.001000,0.001000,0.001000,0.001000
1033.596154,-0.048323,0.001000,0.001000,0.001000,0.001000,0.001000
1033.615385,-0.048615,0.001000,0.001000,0.001000,0.001000,0.001000
1033.634615,-0.048879,0.001000,0.001000,0.001000,0.001000,0.001000
1033.653846,-0.049116,0.001000,0.001000,0.001000,0.001000,0.001000
1033.673077,-0.049325,0.001000,0.001000,0.001000,0.001000,0.001000
1033.692308,-0.049506,0.001000,0.001000,0.001000,0.001000,0.001000
1033.711538,-0.049659,0.001000,0.001000,0.001000,0.001000,0.001000
1033.730769,-0.049784,0.001000,0.001000,0.001000,0.001000,0.001000
1033.750000,-0.049880,0.001000,0.001000,0.001000,0.001000,0.001000
1033.769231,-0.049948,0.001000,0.001000,0.001000,0.001000,0.001000
1033.788462,-0.049988,0.001000,0.001000,0.001000,0.001000,0.001000
1033.807692,-0.050000,0.001000,0.001000,0.001000,0.001000,0.001000
1033.826923,-0.049983,0.001000,0.001000,0.001000,0.001000,0.001000
1033.846154,-0.049938,0.001000,0.001000,0.001000,0.001000,0.001000
1033.865385,-0.049865,0.001000,0.001000,0.001000,0.001000,0.001000
1033.884615,-0.049763,0.001000,0.001000,0.001000,0.001000,0.001000
1033.903846,-0.049633,0.001000,0.001000,0.001000,0.001000,0.001000
1033.923077,-0.049475,0.001000,0.001000,0.001000,0.001000,0.001000
1033.942308,-0.049289,0.001000,0.001000,0.001000,0.001000,0.001000
1033.961538,-0.049075,0.001000,0.001000,0.001000,0.001000,0.001000
1033.980769,-0.048833,0.001000,0.001000,0.001000,0.001000,0.001000
1034.000000,-0.048563,0.001000,0.001000,0.001000,0.001000,0.001000
1034.019231,-0.048266,0.001000,0.001000,0.001000,0.001000,0.001000
1034.038462,-0.047942,0.001000,0.001000,0.001000,0.001000,0.001000
1034.057692,-0.047590,0.001000,0.001000,0.001000,0.001000,0.001000
1034.076923,-0.047212,0.001000,0.001000,0.001000,0.001000,0.001000
1034.096154,-0.046806,0.001000,0.001000,0.001000,0.001000,0.001000
1034.115385,-0.046374,0.001000,0.001000,0.001000,0.001000,0.001000
1034.134615,-0.045916,0.001000,0.001000,0.001000,0.001000,0.001000
1034.153846,-0.045432,0.001000,0.001000,0.001000,0.001000,0.001000
1034.173077,-0.044922,0.001000,0.001000,0.001000,0.001000,0.001000
1034.192308,-0.044386,0.001000,0.001000,0.001000,0.001000,0.001000
1034.211538,-0.043826,0.001000,0.001000,0.001000,0.001000,0.001000
1034.230769,-0.043240,0.001000,0.001000,0.001000,0.001000,0.001000
1034.250000,-0.042630,0.001000,0.001000,0.001000,0.001000,0.001000
1034.269231,-0.041996,0.001000,0.001000,0.001000,0.001000,0.001000
1034.288462,-0.041338,0.001000,0.001000,0.001000,0.001000,0.001000
1034.307692,-0.040657,0.001000,0.001000,0.001000,0.001000,0.001000
1034.326923,-0.039952,0.001000,0.001000,0.001000,0.001000,0.001000
1034.346154,-0.039225,0.001000,0.001000,0.001000,0.001000,0.001000
1034.365385,-0.038476,0.001000,0.001000,0.001000,0.001000,0.001000
1034.384615,-0.037705,0.001000,0.001000,0.001000,0.001000,0.001000
1034.403846,-0.036912,0.001000,0.001000,0.001000,0.001000,0.001000
1034.423077,-0.036099,0.001000,0.001000,0.001000,0.001000,0.001000
1034.442308,-0.035265,0.001000,0.001000,0.001000,0.001000,0.001000
1034.461538,-0.034411,0.001000,0.001000,0.001000,0.001000,0.001000
1034.480769,-0.033538,0.001000,0.001000,0.001000,0.001000,0.001000
1034.500000,-0.032645,0.001000,0.001000,0.001000,0.001000,0.001000
1034.519231,-0.031734,0.001000,0.001000,0.001000,0.001000,0.001000
1034.538462,-0.030805,0.001000,0.001000,0.001000,0.001000,0.001000
1034.557692,-0.029859,0.001000,0.001000,0.001000,0.001000,0.001000
1034.576923,-0.028896,0.001000,0.001000,0.001000,0.001000,0.001000
1034.596154,-0.027916,0.001000,0.001000,0.001000,0.001000,0.001000
1034.615385,-0.026920,0.001000,0.001000,0.001000,0.001000,0.001000
1034.634615,-0.025910,0.001000,0.001000,0.001000,0.001000,0.001000
1034.653846,-0.024884,0.001000,0.001000,0.001000,0.001000,0.001000
1034.673077,-0.023844,0.001000,0.001000,0.001000,0.001000,0.001000
