timestamp,ax,ay,az,gx,gy,gz
1000.000000,0.000000,0.001000,0.001000,0.001000,0.001000,0.001000
1000.019231,0.001420,0.001000,0.001000,0.001000,0.001000,0.001000
1000.038462,0.002839,0.001000,0.001000,0.001000,0.001000,0.001000
1000.057692,0.004255,0.001000,0.001000,0.001000,0.001000,0.001000
1000.076923,0.005668,0.001000,0.001000,0.001000,0.001000,0.001000
1000.096154,0.007077,0.001000,0.001000,0.001000,0.001000,0.001000
1000.115385,0.008479,0.001000,0.001000,0.001000,0.001000,0.001000
1000.134615,0.009875,0.001000,0.001000,0.001000,0.001000,0.001000
1000.153846,0.011263,0.001000,0.001000,0.001000,0.001000,0.001000
1000.173077,0.012642,0.001000,0.001000,0.001000,0.001000,0.001000
1000.192308,0.014011,0.001000,0.001000,0.001000,0.001000,0.001000
1000.211538,0.015368,0.001000,0.001000,0.001000,0.001000,0.001000
1000.230769,0.016713,0.001000,0.001000,0.001000,0.001000,0.001000
1000.250000,0.018044,0.001000,0.001000,0.001000,0.001000,0.001000
1000.269231,0.019361,0.001000,0.001000,0.001000,0.001000,0.001000
1000.288462,0.020663,0.001000,0.001000,0.001000,0.001000,0.001000
1000.307692,0.021947,0.001000,0.001000,0.001000,0.001000,0.001000
1000.326923,0.023214,0.001000,0.001000,0.001000,0.001000,0.001000
1000.346154,0.024463,0.001000,0.001000,0.001000,0.001000,0.001000
1000.365385,0.025691,0.001000,0.001000,0.001000,0.001000,0.001000
1000.384615,0.026899,0.001000,0.001000,0.001000,0.001000,0.001000
1000.403846,0.028085,0.001000,0.001000,0.001000,0.001000,0.001000
1000.423077,0.029248,0.001000,0.001000,0.001000,0.001000,0.001000
1000.442308,0.030388,0.001000,0.001000,0.001000,0.001000,0.001000
1000.461538,0.031503,0.001000,0.001000,0.001000,0.001000,0.001000
1000.480769,0.032593,0.001000,0.001000,0.001000,0.001000,0.001000
1000.500000,0.033657,0.001000,0.001000,0.001000,0.001000,0.001000
1000.519231,0.034693,0.001000,0.001000,0.001000,0.001000,0.001000
1000.538462,0.035702,0.001000,0.001000,0.001000,0.001000,0.001000
1000.557692,0.036681,0.001000,0.001000,0.001000,0.001000,0.001000
1000.576923,0.037632,0.001000,0.001000,0.001000,0.001000,0.001000
1000.596154,0.038551,0.001000,0.001000,0.001000,0.001000,0.001000
1000.615385,0.039440,0.001000,0.001000,0.001000,0.001000,0.001000
1000.634615,0.040297,0.001000,0.001000,0.001000,0.001000,0.001000
1000.653846,0.041121,0.001000,0.001000,0.001000,0.001000,0.001000
1000.673077,0.041912,0.001000,0.001000,0.001000,0.001000,0.001000
1000.692308,0.042670,0.001000,0.001000,0.001000,0.001000,0.001000
1000.711538,0.043393,0.001000,0.001000,0.001000,0.001000,0.001000
1000.730769,0.044081,0.001000,0.001000,0.001000,0.001000,0.001000
1000.750000,0.044733,0.001000,0.001000,0.001000,0.001000,0.001000
1000.769231,0.045349,0.001000,0.001000,0.001000,0.001000,0.001000
1000.788462,0.045929,0.001000,0.001000,0.001000,0.001000,0.001000
1000.807692,0.046472,0.001000,0.001000,0.001000,0.001000,0.001000
1000.826923,0.046977,0.001000,0.001000,0.001000,0.001000,0.001000
1000.846154,0.047444,0.001000,0.001000,0.001000,0.001000,0.001000
1000.865385,0.047873,0.001000,0.001000,0.001000,0.001000,0.001000
1000.884615,0.048264,0.001000,0.001000,0.001000,0.001000,0.001000
1000.903846,0.048615,0.001000,0.001000,0.001000,0.001000,0.001000
1000.923077,0.048927,0.001000,0.001000,0.001000,0.001000,0.001000
1000.942308,0.049200,0.001000,0.001000,0.001000,0.001000,0.001000
1000.961538,0.049433,0.001000,0.001000,0.001000,0.001000,0.001000
1000.980769,0.049626,0.001000,0.001000,0.001000,0.001000,0.001000
1001.000000,0.049780,0.001000,0.001000,0.001000,0.001000,0.001000
1001.019231,0.049893,0.001000,0.001000,0.001000,0.001000,0.001000
1001.038462,0.049966,0.001000,0.001000,0.001000,0.001000,0.001000
1001.057692,0.049998,0.001000,0.001000,0.001000,0.001000,0.001000
1001.076923,0.049990,0.001000,0.001000,0.001000,0.001000,0.001000
1001.096154,0.049942,0.001000,0.001000,0.001000,0.001000,0.001000
1001.115385,0.049854,0.001000,0.001000,0.001000,0.001000,0.001000
1001.134615,0.049725,0.001000,0.001000,0.001000,0.001000,0.001000
1001.153846,0.049556,0.001000,0.001000,0.001000,0.001000,0.001000
1001.173077,0.049348,0.001000,0.001000,0.001000,0.001000,0.001000
1001.192308,0.049099,0.001000,0.001000,0.001000,0.001000,0.001000
1001.211538,0.048811,0.001000,0.001000,0.001000,0.001000,0.001000
1001.230769,0.048484,0.001000,0.001000,0.001000,0.001000,0.001000
1001.250000,0.048117,0.001000,0.001000,0.001000,0.001000,0.001000
1001.269231,0.047712,0.001000,0.001000,0.001000,0.001000,0.001000
1001.288462,0.047268,0.001000,0.001000,0.001000,0.001000,0.001000
1001.307692,0.046786,0.001000,0.001000,0.001000,0.001000,0.001000
1001.326923,0.046266,0.001000,0.001000,0.001000,0.001000,0.001000
1001.346154,0.045709,0.001000,0.001000,0.001000,0.001000,0.001000
1001.365385,0.045115,0.001000,0.001000,0.001000,0.001000,0.001000
1001.384615,0.044485,0.001000,0.001000,0.001000,0.001000,0.001000
1001.403846,0.043818,0.001000,0.001000,0.001000,0.001000,0.001000
1001.423077,0.043117,0.001000,0.001000,0.001000,0.001000,0.001000
1001.442308,0.042381,0.001000,0.001000,0.001000,0.001000,0.001000
1001.461538,0.041610,0.001000,0.001000,0.001000,0.001000,0.001000
1001.480769,0.040806,0.001000,0.001000,0.001000,0.001000,0.001000
1001.500000,0.039969,0.001000,0.001000,0.001000,0.001000,0.001000
1001.519231,0.039100,0.001000,0.001000,0.001000,0.001000,0.001000
1001.538462,0.038199,0.001000,0.001000,0.001000,0.001000,0.001000
1001.557692,0.037267,0.001000,0.001000,0.001000,0.001000,0.001000
1001.576923,0.036306,0.001000,0.001000,0.001000,0.001000,0.001000
1001.596154,0.035315,0.001000,0.001000,0.001000,0.001000,0.001000
1001.615385,0.034295,0.001000,0.001000,0.001000,0.001000,0.001000
1001.634615,0.033248,0.001000,0.001000,0.001000,0.001000,0.001000
1001.653846,0.032175,0.001000,0.001000,0.001000,0.001000,0.001000
1001.673077,0.031075,0.001000,0.001000,0.001000,0.001000,0.001000
1001.692308,0.029950,0.001000,0.001000,0.001000,0.001000,0.001000
1001.711538,0.028801,0.001000,0.001000,0.001000,0.001000,0.001000
1001.730769,0.027628,0.001000,0.001000,0.001000,0.001000,0.001000
1001.750000,0.026434,0.001000,0.001000,0.001000,0.001000,0.001000
1001.769231,0.025218,0.001000,0.001000,0.001000,0.001000,0.001000
1001.788462,0.023982,0.001000,0.001000,0.001000,0.001000,0.001000
1001.807692,0.022726,0.001000,0.001000,0.001000,0.001000,0.001000
1001.826923,0.021452,0.001000,0.001000,0.001000,0.001000,0.001000
1001.846154,0.020161,0.001000,0.001000,0.001000,0.001000,0.001000
1001.865385,0.018853,0.001000,0.001000,0.001000,0.001000,0.001000
1001.884615,0.017531,0.001000,0.001000,0.001000,0.001000,0.001000
1001.903846,0.016194,0.001000,0.001000,0.001000,0.001000,0.001000
1001.923077,0.014844,0.001000,0.001000,0.001000,0.001000,0.001000
1001.942308,0.013482,0.001000,0.001000,0.001000,0.001000,0.001000
1001.961538,0.012109,0.001000,0.001000,0.001000,0.001000,0.001000
1001.980769,0.010727,0.001000,0.001000,0.001000,0.001000,0.001000
1002.000000,0.009336,0.001000,0.001000,0.001000,0.001000,0.001000
1002.019231,0.007937,0.001000,0.001000,0.001000,0.001000,0.001000
1002.038462,0.006532,0.001000,0.001000,0.001000,0.001000,0.001000
1002.057692,0.005122,0.001000,0.001000,0.001000,0.001000,0.001000
1002.076923,0.003707,0.001000,0.001000,0.001000,0.001000,0.001000
1002.096154,0.002290,0.001000,0.001000,0.001000,0.001000,0.001000
1002.115385,0.000870,0.001000,0.001000,0.001000,0.001000,0.001000
1002.134615,-0.000550,0.001000,0.001000,0.001000,0.001000,0.001000
1002.153846,-0.001969,0.001000,0.001000,0.001000,0.001000,0.001000
1002.173077,-0.003387,0.001000,0.001000,0.001000,0.001000,0.001000
1002.192308,-0.004802,0.001000,0.001000,0.001000,0.001000,0.001000
1002.211538,-0.006214,0.001000,0.001000,0.001000,0.001000,0.001000
1002.230769,-0.007620,0.001000,0.001000,0.001000,0.001000,0.001000
1002.250000,-0.009020,0.001000,0.001000,0.001000,0.001000,0.001000
1002.269231,-0.010413,0.001000,0.001000,0.001000,0.001000,0.001000
1002.288462,-0.011798,0.001000,0.001000,0.001000,0.001000,0.001000
1002.307692,-0.013173,0.001000,0.001000,0.001000,0.001000,0.001000
1002.326923,-0.014537,0.001000,0.001000,0.001000,0.001000,0.001000
1002.346154,-0.015890,0.001000,0.001000,0.001000,0.001000,0.001000
1002.365385,-0.017230,0.001000,0.001000,0.001000,0.001000,0.001000
1002.384615,-0.018556,0.001000,0.001000,0.001000,0.001000,0.001000
1002.403846,-0.019867,0.001000,0.001000,0.001000,0.001000,0.001000
1002.423077,-0.021162,0.001000,0.001000,0.001000,0.001000,0.001000
1002.442308,-0.022440,0.001000,0.001000,0.001000,0.001000,0.001000
1002.461538,-0.023700,0.001000,0.001000,0.001000,0.001000,0.001000
1002.480769,-0.024940,0.001000,0.001000,0.001000,0.001000,0.001000
1002.500000,-0.026161,0.001000,0.001000,0.001000,0.001000,0.001000
1002.519231,-0.027360,0.001000,0.001000,0.001000,0.001000,0.001000
1002.538462,-0.028538,0.001000,0.001000,0.001000,0.001000,0.001000
1002.557692,-0.029692,0.001000,0.001000,0.001000,0.001000,0.001000
1002.576923,-0.030823,0.001000,0.001000,0.001000,0.001000,0.001000
1002.596154,-0.031928,0.001000,0.001000,0.001000,0.001000,0.001000
1002.615385,-0.033008,0.001000,0.001000,0.001000,0.001000,0.001000
1002.634615,-0.034061,0.001000,0.001000,0.001000,0.001000,0.001000
1002.653846,-0.035087,0.001000,0.001000,0.001000,0.001000,0.001000
1002.673077,-0.036084,0.001000,0.001000,0.001000,0.001000,0.001000
1002.692308,-0.037053,0.001000,0.001000,0.001000,0.001000,0.001000
1002.711538,-0.037991,0.001000,0.001000,0.001000,0.001000,0.001000
1002.730769,-0.038899,0.001000,0.001000,0.001000,0.001000,0.001000
1002.750000,-0.039775,0.001000,0.001000,0.001000,0.001000,0.001000
1002.769231,-0.040620,0.001000,0.001000,0.001000,0.001000,0.001000
1002.788462,-0.041431,0.001000,0.001000,0.001000,0.001000,0.001000
1002.807692,-0.042209,0.001000,0.001000,0.001000,0.001000,0.001000
1002.826923,-0.042954,0.001000,0.001000,0.001000,0.001000,0.001000
1002.846154,-0.043663,0.001000,0.001000,0.001000,0.001000,0.001000
1002.865385,-0.044337,0.001000,0.001000,0.001000,0.001000,0.001000
1002.884615,-0.044976,0.001000,0.001000,0.001000,0.001000,0.001000
1002.903846,-0.045578,0.001000,0.001000,0.001000,0.001000,0.001000
1002.923077,-0.046143,0.001000,0.001000,0.001000,0.001000,0.001000
1002.942308,-0.046672,0.001000,0.001000,0.001000,0.001000,0.001000
1002.961538,-0.047162,0.001000,0.001000,0.001000,0.001000,0.001000
1002.980769,-0.047615,0.001000,0.001000,0.001000,0.001000,0.001000
1003.000000,-0.048029,0.001000,0.001000,0.001000,0.001000,0.001000
1003.019231,-0.048404,0.001000,0.001000,0.001000,0.001000,0.001000
1003.038462,-0.048741,0.001000,0.001000,0.001000,0.001000,0.001000
1003.057692,-0.049038,0.001000,0.001000,0.001000,0.001000,0.001000
1003.076923,-0.049295,0.001000,0.001000,0.001000,0.001000,0.001000
1003.096154,-0.049513,0.001000,0.001000,0.001000,0.001000,0.001000
1003.115385,-0.049691,0.001000,0.001000,0.001000,0.001000,0.001000
1003.134615,-0.049828,0.001000,0.001000,0.001000,0.001000,0.001000
1003.153846,-0.049926,0.001000,0.001000,0.001000,0.001000,0.001000
1003.173077,-0.049983,0.001000,0.001000,0.001000,0.001000,0.001000
1003.192308,-0.050000,0.001000,0.001000,0.001000,0.001000,0.001000
1003.211538,-0.049976,0.001000,0.001000,0.001000,0.001000,0.001000
1003.230769,-0.049913,0.001000,0.001000,0.001000,0.001000,0.001000
1003.250000,-0.049809,0.001000,0.001000,0.001000,0.001000,0.001000
1003.269231,-0.049665,0.001000,0.001000,0.001000,0.001000,0.001000
1003.288462,-0.049480,0.001000,0.001000,0.001000,0.001000,0.001000
1003.307692,-0.049256,0.001000,0.001000,0.001000,0.001000,0.001000
1003.326923,-0.048992,0.001000,0.001000,0.001000,0.001000,0.001000
1003.346154,-0.048689,0.001000,0.001000,0.001000,0.001000,0.001000
1003.365385,-0.048346,0.001000,0.001000,0.001000,0.001000,0.001000
1003.384615,-0.047965,0.001000,0.001000,0.001000,0.001000,0.001000
1003.403846,-0.047544,0.001000,0.001000,0.001000,0.001000,0.001000
1003.423077,-0.047086,0.001000,0.001000,0.001000,0.001000,0.001000
1003.442308,-0.046589,0.001000,0.001000,0.001000,0.001000,0.001000
1003.461538,-0.046055,0.001000,0.001000,0.001000,0.001000,0.001000
1003.480769,-0.045483,0.001000,0.001000,0.001000,0.001000,0.001000
1003.500000,-0.044875,0.001000,0.001000,0.001000,0.001000,0.001000
1003.519231,-0.044231,0.001000,0.001000,0.001000,0.001000,0.001000
1003.538462,-0.043551,0.001000,0.001000,0.001000,0.001000,0.001000
1003.557692,-0.042836,0.001000,0.001000,0.001000,0.001000,0.001000
1003.576923,-0.042086,0.001000,0.001000,0.001000,0.001000,0.001000
1003.596154,-0.041303,0.001000,0.001000,0.001000,0.001000,0.001000
1003.615385,-0.040486,0.001000,0.001000,0.001000,0.001000,0.001000
1003.634615,-0.039636,0.001000,0.001000,0.001000,0.001000,0.001000
1003.653846,-0.038755,0.001000,0.001000,0.001000,0.001000,0.001000
1003.673077,-0.037842,0.001000,0.001000,0.001000,0.001000,0.001000
1003.692308,-0.036899,0.001000,0.001000,0.001000,0.001000,0.001000
1003.711538,-0.035926,0.001000,0.001000,0.001000,0.001000,0.001000
1003.730769,-0.034924,0.001000,0.001000,0.001000,0.001000,0.001000
1003.750000,-0.033893,0.001000,0.001000,0.001000,0.001000,0.001000
1003.769231,-0.032836,0.001000,0.001000,0.001000,0.001000,0.001000
1003.788462,-0.031752,0.001000,0.001000,0.001000,0.001000,0.001000
1003.807692,-0.030642,0.001000,0.001000,0.001000,0.001000,0.001000
1003.826923,-0.029508,0.001000,0.001000,0.001000,0.001000,0.001000
1003.846154,-0.028350,0.001000,0.001000,0.001000,0.001000,0.001000
1003.865385,-0.027169,0.001000,0.001000,0.001000,0.001000,0.001000
1003.884615,-0.025966,0.001000,0.001000,0.001000,0.001000,0.001000
1003.903846,-0.024742,0.001000,0.001000,0.001000,0.001000,0.001000
1003.923077,-0.023498,0.001000,0.001000,0.001000,0.001000,0.001000
1003.942308,-0.022235,0.001000,0.001000,0.001000,0.001000,0.001000
1003.961538,-0.020954,0.001000,0.001000,0.001000,0.001000,0.001000
1003.980769,-0.019657,0.001000,0.001000,0.001000,0.001000,0.001000
1004.000000,-0.018343,0.001000,0.001000,0.001000,0.001000,0.001000
1004.019231,-0.017015,0.001000,0.001000,0.001000,0.001000,0.001000
1004.038462,-0.015673,0.001000,0.001000,0.001000,0.001000,0.001000
1004.057692,-0.014318,0.001000,0.001000,0.001000,0.001000,0.001000
1004.076923,-0.012952,0.001000,0.001000,0.001000,0.001000,0.001000
1004.096154,-0.011576,0.001000,0.001000,0.001000,0.001000,0.001000
1004.115385,-0.010190,0.001000,0.001000,0.001000,0.001000,0.001000
1004.134615,-0.008795,0.001000,0.001000,0.001000,0.001000,0.001000
1004.153846,-0.007394,0.001000,0.001000,0.001000,0.001000,0.001000
1004.173077,-0.005987,0.001000,0.001000,0.001000,0.001000,0.001000
1004.192308,-0.004575,0.001000,0.001000,0.001000,0.001000,0.001000
1004.211538,-0.003159,0.001000,0.001000,0.001000,0.001000,0.001000
1004.230769,-0.001741,0.001000,0.001000,0.001000,0.001000,0.001000
1004.250000,-0.000321,0.001000,0.001000,0.001000,0.001000,0.001000
1004.269231,0.001099,0.001000,0.001000,0.001000,0.001000,0.001000
1004.288462,0.002518,0.001000,0.001000,0.001000,0.001000,0.001000
1004.307692,0.003935,0.001000,0.001000,0.001000,0.001000,0.001000
1004.326923,0.005349,0.001000,0.001000,0.001000,0.001000,0.001000
1004.346154,0.006759,0.001000,0.001000,0.001000,0.001000,0.001000
1004.365385,0.008163,0.001000,0.001000,0.001000,0.001000,0.001000
1004.384615,0.009561,0.001000,0.001000,0.001000,0.001000,0.001000
1004.403846,0.010950,0.001000,0.001000,0.001000,0.001000,0.001000
1004.423077,0.012331,0.001000,0.001000,0.001000,0.001000,0.001000
1004.442308,0.013702,0.001000,0.001000,0.001000,0.001000,0.001000
1004.461538,0.015062,0.001000,0.001000,0.001000,0.001000,0.001000
1004.480769,0.016410,0.001000,0.001000,0.001000,0.001000,0.001000
1004.500000,0.017745,0.001000,0.001000,0.001000,0.001000,0.001000
1004.519231,0.019065,0.001000,0.001000,0.001000,0.001000,0.001000
1004.538462,0.020370,0.001000,0.001000,0.001000,0.001000,0.001000
1004.557692,0.021659,0.001000,0.001000,0.001000,0.001000,0.001000
1004.576923,0.022930,0.001000,0.001000,0.001000,0.001000,0.001000
1004.596154,0.024182,0.001000,0.001000,0.001000,0.001000,0.001000
1004.615385,0.025415,0.001000,0.001000,0.001000,0.001000,0.001000
1004.634615,0.026628,0.001000,0.001000,0.001000,0.001000,0.001000
1004.653846,0.027819,0.001000,0.001000,0.001000,0.001000,0.001000
1004.673077,0.028987,0.001000,0.001000,0.001000,0.001000,0.001000
1004.692308,0.030133,0.001000,0.001000,0.001000,0.001000,0.001000
1004.711538,0.031254,0.001000,0.001000,0.001000,0.001000,0.001000
1004.730769,0.032349,0.001000,0.001000,0.001000,0.001000,0.001000
1004.750000,0.033419,0.001000,0.001000,0.001000,0.001000,0.001000
1004.769231,0.034462,0.001000,0.001000,0.001000,0.001000,0.001000
1004.788462,0.035476,0.001000,0.001000,0.001000,0.001000,0.001000
1004.807692,0.036463,0.001000,0.001000,0.001000,0.001000,0.001000
1004.826923,0.037420,0.001000,0.001000,0.001000,0.001000,0.001000
1004.846154,0.038346,0.001000,0.001000,0.001000,0.001000,0.001000
1004.865385,0.039242,0.001000,0.001000,0.001000,0.001000,0.001000
1004.884615,0.040106,0.001000,0.001000,0.001000,0.001000,0.001000
1004.903846,0.040938,0.001000,0.001000,0.001000,0.001000,0.001000
1004.923077,0.041736,0.001000,0.001000,0.001000,0.001000,0.001000
1004.942308,0.042502,0.001000,0.001000,0.001000,0.001000,0.001000
1004.961538,0.043232,0.001000,0.001000,0.001000,0.001000,0.001000
1004.980769,0.043928,0.001000,0.001000,0.001000,0.001000,0.001000
1005.000000,0.044589,0.001000,0.001000,0.001000,0.001000,0.001000
1005.019231,0.045213,0.001000,0.001000,0.001000,0.001000,0.001000
1005.038462,0.045801,0.001000,0.001000,0.001000,0.001000,0.001000
1005.057692,0.046352,0.001000,0.001000,0.001000,0.001000,0.001000
1005.076923,0.046866,0.001000,0.001000,0.001000,0.001000,0.001000
1005.096154,0.047342,0.001000,0.001000,0.001000,0.001000,0.001000
1005.115385,0.047780,0.001000,0.001000,0.001000,0.001000,0.001000
1005.134615,0.048179,0.001000,0.001000,0.001000,0.001000,0.001000
1005.153846,0.048539,0.001000,0.001000,0.001000,0.001000,0.001000
1005.173077,0.048860,0.001000,0.001000,0.001000,0.001000,0.001000
1005.192308,0.049142,0.001000,0.001000,0.001000,0.001000,0.001000
1005.211538,0.049384,0.001000,0.001000,0.001000,0.001000,0.001000
1005.230769,0.049586,0.001000,0.001000,0.001000,0.001000,0.001000
1005.250000,0.049749,0.001000,0.001000,0.001000,0.001000,0.001000
1005.269231,0.049871,0.001000,0.001000,0.001000,0.001000,0.001000
1005.288462,0.049953,0.001000,0.001000,0.001000,0.001000,0.001000
1005.307692,0.049994,0.001000,0.001000,0.001000,0.001000,0.001000
1005.326923,0.049996,0.001000,0.001000,0.001000,0.001000,0.001000
1005.346154,0.049957,0.001000,0.001000,0.001000,0.001000,0.001000
1005.365385,0.049877,0.001000,0.001000,0.001000,0.001000,0.001000
1005.384615,0.049758,0.001000,0.001000,0.001000,0.001000,0.001000
1005.403846,0.049598,0.001000,0.001000,0.001000,0.001000,0.001000
1005.423077,0.049398,0.001000,0.001000,0.001000,0.001000,0.001000
1005.442308,0.049159,0.001000,0.001000,0.001000,0.001000,0.001000
1005.461538,0.048880,0.001000,0.001000,0.001000,0.001000,0.001000
1005.480769,0.048561,0.001000,0.001000,0.001000,0.001000,0.001000
1005.500000,0.048203,0.001000,0.001000,0.001000,0.001000,0.001000
1005.519231,0.047807,0.001000,0.001000,0.001000,0.001000,0.001000
1005.538462,0.047371,0.001000,0.001000,0.001000,0.001000,0.001000
1005.557692,0.046898,0.001000,0.001000,0.001000,0.001000,0.001000
1005.576923,0.046387,0.001000,0.001000,0.001000,0.001000,0.001000
1005.596154,0.045838,0.001000,0.001000,0.001000,0.001000,0.001000
1005.615385,0.045252,0.001000,0.001000,0.001000,0.001000,0.001000
1005.634615,0.044630,0.001000,0.001000,0.001000,0.001000,0.001000
1005.653846,0.043972,0.001000,0.001000,0.001000,0.001000,0.001000
1005.673077,0.043278,0.001000,0.001000,0.001000,0.001000,0.001000
1005.692308,0.042550,0.001000,0.001000,0.001000,0.001000,0.001000
1005.711538,0.041787,0.001000,0.001000,0.001000,0.001000,0.001000
1005.730769,0.040991,0.001000,0.001000,0.001000,0.001000,0.001000
1005.750000,0.040161,0.001000,0.001000,0.001000,0.001000,0.001000
1005.769231,0.039299,0.001000,0.001000,0.001000,0.001000,0.001000
1005.788462,0.038405,0.001000,0.001000,0.001000,0.001000,0.001000
1005.807692,0.037481,0.001000,0.001000,0.001000,0.001000,0.001000
1005.826923,0.036526,0.001000,0.001000,0.001000,0.001000,0.001000
1005.846154,0.035541,0.001000,0.001000,0.001000,0.001000,0.001000
1005.865385,0.034528,0.001000,0.001000,0.001000,0.001000,0.001000
1005.884615,0.033487,0.001000,0.001000,0.001000,0.001000,0.001000
1005.903846,0.032419,0.001000,0.001000,0.001000,0.001000,0.001000
1005.923077,0.031325,0.001000,0.001000,0.001000,0.001000,0.001000
1005.942308,0.030206,0.001000,0.001000,0.001000,0.001000,0.001000
1005.961538,0.029062,0.001000,0.001000,0.001000,0.001000,0.001000
1005.980769,0.027895,0.001000,0.001000,0.001000,0.001000,0.001000
1006.000000,0.026706,0.001000,0.001000,0.001000,0.001000,0.001000
1006.019231,0.025494,0.001000,0.001000,0.001000,0.001000,0.001000
1006.038462,0.024263,0.001000,0.001000,0.001000,0.001000,0.001000
1006.057692,0.023011,0.001000,0.001000,0.001000,0.001000,0.001000
1006.076923,0.021742,0.001000,0.001000,0.001000,0.001000,0.001000
1006.096154,0.020454,0.001000,0.001000,0.001000,0.001000,0.001000
1006.115385,0.019150,0.001000,0.001000,0.001000,0.001000,0.001000
1006.134615,0.017831,0.001000,0.001000,0.001000,0.001000,0.001000
1006.153846,0.016497,0.001000,0.001000,0.001000,0.001000,0.001000
1006.173077,0.015150,0.001000,0.001000,0.001000,0.001000,0.001000
1006.192308,0.013791,0.001000,0.001000,0.001000,0.001000,0.001000
1006.211538,0.012421,0.001000,0.001000,0.001000,0.001000,0.001000
1006.230769,0.011040,0.001000,0.001000,0.001000,0.001000,0.001000
1006.250000,0.009651,0.001000,0.001000,0.001000,0.001000,0.001000
1006.269231,0.008254,0.001000,0.001000,0.001000,0.001000,0.001000
1006.288462,0.006850,0.001000,0.001000,0.001000,0.001000,0.001000
1006.307692,0.005441,0.001000,0.001000,0.001000,0.001000,0.001000
1006.326923,0.004027,0.001000,0.001000,0.001000,0.001000,0.001000
1006.346154,0.002610,0.001000,0.001000,0.001000,0.001000,0.001000
1006.365385,0.001191,0.001000,0.001000,0.001000,0.001000,0.001000
1006.384615,-0.000229,0.001000,0.001000,0.001000,0.001000,0.001000
1006.403846,-0.001649,0.001000,0.001000,0.001000,0.001000,0.001000
1006.423077,-0.003067,0.001000,0.001000,0.001000,0.001000,0.001000
1006.442308,-0.004483,0.001000,0.001000,0.001000,0.001000,0.001000
1006.461538,-0.005895,0.001000,0.001000,0.001000,0.001000,0.001000
1006.480769,-0.007303,0.001000,0.001000,0.001000,0.001000,0.001000
1006.500000,-0.008705,0.001000,0.001000,0.001000,0.001000,0.001000
1006.519231,-0.010099,0.001000,0.001000,0.001000,0.001000,0.001000
1006.538462,-0.011486,0.001000,0.001000,0.001000,0.001000,0.001000
1006.557692,-0.012863,0.001000,0.001000,0.001000,0.001000,0.001000
1006.576923,-0.014230,0.001000,0.001000,0.001000,0.001000,0.001000
1006.596154,-0.015586,0.001000,0.001000,0.001000,0.001000,0.001000
1006.615385,-0.016928,0.001000,0.001000,0.001000,0.001000,0.001000
1006.634615,-0.018258,0.001000,0.001000,0.001000,0.001000,0.001000
1006.653846,-0.019572,0.001000,0.001000,0.001000,0.001000,0.001000
1006.673077,-0.020871,0.001000,0.001000,0.001000,0.001000,0.001000
1006.692308,-0.022153,0.001000,0.001000,0.001000,0.001000,0.001000
1006.711538,-0.023417,0.001000,0.001000,0.001000,0.001000,0.001000
1006.730769,-0.024662,0.001000,0.001000,0.001000,0.001000,0.001000
1006.750000,-0.025887,0.001000,0.001000,0.001000,0.001000,0.001000
1006.769231,-0.027091,0.001000,0.001000,0.001000,0.001000,0.001000
1006.788462,-0.028274,0.001000,0.001000,0.001000,0.001000,0.001000
1006.807692,-0.029434,0.001000,0.001000,0.001000,0.001000,0.001000
1006.826923,-0.030569,0.001000,0.001000,0.001000,0.001000,0.001000
1006.846154,-0.031681,0.001000,0.001000,0.001000,0.001000,0.001000
1006.865385,-0.032766,0.001000,0.001000,0.001000,0.001000,0.001000
1006.884615,-0.033826,0.001000,0.001000,0.001000,0.001000,0.001000
1006.903846,-0.034858,0.001000,0.001000,0.001000,0.001000,0.001000
1006.923077,-0.035862,0.001000,0.001000,0.001000,0.001000,0.001000
1006.942308,-0.036837,0.001000,0.001000,0.001000,0.001000,0.001000
1006.961538,-0.037782,0.001000,0.001000,0.001000,0.001000,0.001000
1006.980769,-0.038697,0.001000,0.001000,0.001000,0.001000,0.001000
1007.000000,-0.039580,0.001000,0.001000,0.001000,0.001000,0.001000
1007.019231,-0.040432,0.001000,0.001000,0.001000,0.001000,0.001000
1007.038462,-0.041251,0.001000,0.001000,0.001000,0.001000,0.001000
1007.057692,-0.042037,0.001000,0.001000,0.001000,0.001000,0.001000
1007.076923,-0.042788,0.001000,0.001000,0.001000,0.001000,0.001000
1007.096154,-0.043506,0.001000,0.001000,0.001000,0.001000,0.001000
1007.115385,-0.044188,0.001000,0.001000,0.001000,0.001000,0.001000
1007.134615,-0.044835,0.001000,0.001000,0.001000,0.001000,0.001000
1007.153846,-0.045445,0.001000,0.001000,0.001000,0.001000,0.001000
1007.173077,-0.046019,0.001000,0.001000,0.001000,0.001000,0.001000
1007.192308,-0.046556,0.001000,0.001000,0.001000,0.001000,0.001000
1007.211538,-0.047055,0.001000,0.001000,0.001000,0.001000,0.001000
1007.230769,-0.047516,0.001000,0.001000,0.001000,0.001000,0.001000
1007.250000,-0.047939,0.001000,0.001000,0.001000,0.001000,0.001000
1007.269231,-0.048323,0.001000,0.001000,0.001000,0.001000,0.001000
1007.288462,-0.048668,0.001000,0.001000,0.001000,0.001000,0.001000
1007.307692,-0.048974,0.001000,0.001000,0.001000,0.001000,0.001000
1007.326923,-0.049240,0.001000,0.001000,0.001000,0.001000,0.001000
1007.346154,-0.049467,0.001000,0.001000,0.001000,0.001000,0.001000
1007.365385,-0.049654,0.001000,0.001000,0.001000,0.001000,0.001000
1007.384615,-0.049801,0.001000,0.001000,0.001000,0.001000,0.001000
1007.403846,-0.049907,0.001000,0.001000,0.001000,0.001000,0.001000
1007.423077,-0.049974,0.001000,0.001000,0.001000,0.001000,0.001000
1007.442308,-0.050000,0.001000,0.001000,0.001000,0.001000,0.001000
1007.461538,-0.049985,0.001000,0.001000,0.001000,0.001000,0.001000
1007.480769,-0.049931,0.001000,0.001000,0.001000,0.001000,0.001000
1007.500000,-0.049836,0.001000,0.001000,0.001000,0.001000,0.001000
1007.519231,-0.049701,0.001000,0.001000,0.001000,0.001000,0.001000
1007.538462,-0.049525,0.001000,0.001000,0.001000,0.001000,0.001000
1007.557692,-0.049310,0.001000,0.001000,0.001000,0.001000,0.001000
1007.576923,-0.049055,0.001000,0.001000,0.001000,0.001000,0.001000
1007.596154,-0.048761,0.001000,0.001000,0.001000,0.001000,0.001000
1007.615385,-0.048427,0.001000,0.001000,0.001000,0.001000,0.001000
1007.634615,-0.048054,0.001000,0.001000,0.001000,0.001000,0.001000
1007.653846,-0.047643,0.001000,0.001000,0.001000,0.001000,0.001000
1007.673077,-0.047193,0.001000,0.001000,0.001000,0.001000,0.001000
1007.692308,-0.046705,0.001000,0.001000,0.001000,0.001000,0.001000
1007.711538,-0.046179,0.001000,0.001000,0.001000,0.001000,0.001000
1007.730769,-0.045616,0.001000,0.001000,0.001000,0.001000,0.001000
1007.750000,-0.045016,0.001000,0.001000,0.001000,0.001000,0.001000
1007.769231,-0.044380,0.001000,0.001000,0.001000,0.001000,0.001000
1007.788462,-0.043708,0.001000,0.001000,0.001000,0.001000,0.001000
1007.807692,-0.043001,0.001000,0.001000,0.001000,0.001000,0.001000
1007.826923,-0.042259,0.001000,0.001000,0.001000,0.001000,0.001000
1007.846154,-0.041483,0.001000,0.001000,0.001000,0.001000,0.001000
1007.865385,-0.040673,0.001000,0.001000,0.001000,0.001000,0.001000
1007.884615,-0.039831,0.001000,0.001000,0.001000,0.001000,0.001000
1007.903846,-0.038957,0.001000,0.001000,0.001000,0.001000,0.001000
1007.923077,-0.038051,0.001000,0.001000,0.001000,0.001000,0.001000
1007.942308,-0.037114,0.001000,0.001000,0.001000,0.001000,0.001000
1007.961538,-0.036148,0.001000,0.001000,0.001000,0.001000,0.001000
1007.980769,-0.035153,0.001000,0.001000,0.001000,0.001000,0.001000
1008.000000,-0.034129,0.001000,0.001000,0.001000,0.001000,0.001000
1008.019231,-0.033077,0.001000,0.001000,0.001000,0.001000,0.001000
1008.038462,-0.031999,0.001000,0.001000,0.001000,0.001000,0.001000
1008.057692,-0.030895,0.001000,0.001000,0.001000,0.001000,0.001000
1008.076923,-0.029766,0.001000,0.001000,0.001000,0.001000,0.001000
1008.096154,-0.028613,0.001000,0.001000,0.001000,0.001000,0.001000
1008.115385,-0.027437,0.001000,0.001000,0.001000,0.001000,0.001000
1008.134615,-0.026239,0.001000,0.001000,0.001000,0.001000,0.001000
1008.153846,-0.025020,0.001000,0.001000,0.001000,0.001000,0.001000
1008.173077,-0.023781,0.001000,0.001000,0.001000,0.001000,0.001000
1008.192308,-0.022522,0.001000,0.001000,0.001000,0.001000,0.001000
1008.211538,-0.021245,0.001000,0.001000,0.001000,0.001000,0.001000
1008.230769,-0.019951,0.001000,0.001000,0.001000,0.001000,0.001000
1008.250000,-0.018641,0.001000,0.001000,0.001000,0.001000,0.001000
1008.269231,-0.017316,0.001000,0.001000,0.001000,0.001000,0.001000
1008.288462,-0.015977,0.001000,0.001000,0.001000,0.001000,0.001000
1008.307692,-0.014625,0.001000,0.001000,0.001000,0.001000,0.001000
1008.326923,-0.013262,0.001000,0.001000,0.001000,0.001000,0.001000
1008.346154,-0.011887,0.001000,0.001000,0.001000,0.001000,0.001000
1008.365385,-0.010503,0.001000,0.001000,0.001000,0.001000,0.001000
1008.384615,-0.009111,0.001000,0.001000,0.001000,0.001000,0.001000
1008.403846,-0.007711,0.001000,0.001000,0.001000,0.001000,0.001000
1008.423077,-0.006305,0.001000,0.001000,0.001000,0.001000,0.001000
1008.442308,-0.004894,0.001000,0.001000,0.001000,0.001000,0.001000
1008.461538,-0.003479,0.001000,0.001000,0.001000,0.001000,0.001000
1008.480769,-0.002061,0.001000,0.001000,0.001000,0.001000,0.001000
1008.500000,-0.000642,0.001000,0.001000,0.001000,0.001000,0.001000
1008.519231,0.000778,0.001000,0.001000,0.001000,0.001000,0.001000
1008.538462,0.002198,0.001000,0.001000,0.001000,0.001000,0.001000
1008.557692,0.003615,0.001000,0.001000,0.001000,0.001000,0.001000
1008.576923,0.005030,0.001000,0.001000,0.001000,0.001000,0.001000
1008.596154,0.006441,0.001000,0.001000,0.001000,0.001000,0.001000
1008.615385,0.007846,0.001000,0.001000,0.001000,0.001000,0.001000
1008.634615,0.009245,0.001000,0.001000,0.001000,0.001000,0.001000
1008.653846,0.010637,0.001000,0.001000,0.001000,0.001000,0.001000
1008.673077,0.012020,0.001000,0.001000,0.001000,0.001000,0.001000
1008.692308,0.013394,0.001000,0.001000,0.001000,0.001000,0.001000
1008.711538,0.014756,0.001000,0.001000,0.001000,0.001000,0.001000
1008.730769,0.016107,0.001000,0.001000,0.001000,0.001000,0.001000
1008.750000,0.017445,0.001000,0.001000,0.001000,0.001000,0.001000
1008.769231,0.018768,0.001000,0.001000,0.001000,0.001000,0.001000
1008.788462,0.020077,0.001000,0.001000,0.001000,0.001000,0.001000
1008.807692,0.021369,0.001000,0.001000,0.001000,0.001000,0.001000
1008.826923,0.022644,0.001000,0.001000,0.001000,0.001000,0.001000
1008.846154,0.023901,0.001000,0.001000,0.001000,0.001000,0.001000
1008.865385,0.025138,0.001000,0.001000,0.001000,0.001000,0.001000
1008.884615,0.026356,0.001000,0.001000,0.001000,0.001000,0.001000
1008.903846,0.027552,0.001000,0.001000,0.001000,0.001000,0.001000
1008.923077,0.028725,0.001000,0.001000,0.001000,0.001000,0.001000
1008.942308,0.029876,0.001000,0.001000,0.001000,0.001000,0.001000
1008.961538,0.031003,0.001000,0.001000,0.001000,0.001000,0.001000
1008.980769,0.032104,0.001000,0.001000,0.001000,0.001000,0.001000
1009.000000,0.033180,0.001000,0.001000,0.001000,0.001000,0.001000
1009.019231,0.034228,0.001000,0.001000,0.001000,0.001000,0.001000
1009.038462,0.035250,0.001000,0.001000,0.001000,0.001000,0.001000
1009.057692,0.036242,0.001000,0.001000,0.001000,0.001000,0.001000
1009.076923,0.037206,0.001000,0.001000,0.001000,0.001000,0.001000
1009.096154,0.038140,0.001000,0.001000,0.001000,0.001000,0.001000
1009.115385,0.039042,0.001000,0.001000,0.001000,0.001000,0.001000
1009.134615,0.039914,0.001000,0.001000,0.001000,0.001000,0.001000
1009.153846,0.040753,0.001000,0.001000,0.001000,0.001000,0.001000
1009.173077,0.041559,0.001000,0.001000,0.001000,0.001000,0.001000
1009.192308,0.042332,0.001000,0.001000,0.001000,0.001000,0.001000
1009.211538,0.043070,0.001000,0.001000,0.001000,0.001000,0.001000
1009.230769,0.043774,0.001000,0.001000,0.001000,0.001000,0.001000
1009.250000,0.044443,0.001000,0.001000,0.001000,0.001000,0.001000
1009.269231,0.045075,0.001000,0.001000,0.001000,0.001000,0.001000
1009.288462,0.045672,0.001000,0.001000,0.001000,0.001000,0.001000
1009.307692,0.046231,0.001000,0.001000,0.001000,0.001000,0.001000
1009.326923,0.046753,0.001000,0.001000,0.001000,0.001000,0.001000
1009.346154,0.047238,0.001000,0.001000,0.001000,0.001000,0.001000
1009.365385,0.047684,0.001000,0.001000,0.001000,0.001000,0.001000
1009.384615,0.048092,0.001000,0.001000,0.001000,0.001000,0.001000
1009.403846,0.048461,0.001000,0.001000,0.001000,0.001000,0.001000
1009.423077,0.048791,0.001000,0.001000,0.001000,0.001000,0.001000
1009.442308,0.049082,0.001000,0.001000,0.001000,0.001000,0.001000
1009.461538,0.049333,0.001000,0.001000,0.001000,0.001000,0.001000
1009.480769,0.049544,0.001000,0.001000,0.001000,0.001000,0.001000
1009.500000,0.049715,0.001000,0.001000,0.001000,0.001000,0.001000
1009.519231,0.049847,0.001000,0.001000,0.001000,0.001000,0.001000
1009.538462,0.049938,0.001000,0.001000,0.001000,0.001000,0.001000
1009.557692,0.049988,0.001000,0.001000,0.001000,0.001000,0.001000
1009.576923,0.049999,0.001000,0.001000,0.001000,0.001000,0.001000
1009.596154,0.049969,0.001000,0.001000,0.001000,0.001000,0.001000
1009.615385,0.049899,0.001000,0.001000,0.001000,0.001000,0.001000
1009.634615,0.049788,0.001000,0.001000,0.001000,0.001000,0.001000
1009.653846,0.049638,0.001000,0.001000,0.001000,0.001000,0.001000
1009.673077,0.049447,0.001000,0.001000,0.001000,0.001000,0.001000
1009.692308,0.049216,0.001000,0.001000,0.001000,0.001000,0.001000
1009.711538,0.048946,0.001000,0.001000,0.001000,0.001000,0.001000
1009.730769,0.048636,0.001000,0.001000,0.001000,0.001000,0.001000
1009.750000,0.048287,0.001000,0.001000,0.001000,0.001000,0.001000
1009.769231,0.047900,0.001000,0.001000,0.001000,0.001000,0.001000
1009.788462,0.047473,0.001000,0.001000,0.001000,0.001000,0.001000
1009.807692,0.047008,0.001000,0.001000,0.001000,0.001000,0.001000
1009.826923,0.046505,0.001000,0.001000,0.001000,0.001000,0.001000
1009.846154,0.045965,0.001000,0.001000,0.001000,0.001000,0.001000
1009.865385,0.045388,0.001000,0.001000,0.001000,0.001000,0.001000
1009.884615,0.044774,0.001000,0.001000,0.001000,0.001000,0.001000
1009.903846,0.044124,0.001000,0.001000,0.001000,0.001000,0.001000
1009.923077,0.043438,0.001000,0.001000,0.001000,0.001000,0.001000
1009.942308,0.042718,0.001000,0.001000,0.001000,0.001000,0.001000
1009.961538,0.041962,0.001000,0.001000,0.001000,0.001000,0.001000
1009.980769,0.041173,0.001000,0.001000,0.001000,0.001000,0.001000
1010.000000,0.040351,0.001000,0.001000,0.001000,0.001000,0.001000
1010.019231,0.039496,0.001000,0.001000,0.001000,0.001000,0.001000
1010.038462,0.038610,0.001000,0.001000,0.001000,0.001000,0.001000
1010.057692,0.037692,0.001000,0.001000,0.001000,0.001000,0.001000
1010.076923,0.036744,0.001000,0.001000,0.001000,0.001000,0.001000
1010.096154,0.035766,0.001000,0.001000,0.001000,0.001000,0.001000
1010.115385,0.034760,0.001000,0.001000,0.001000,0.001000,0.001000
1010.134615,0.033725,0.001000,0.001000,0.001000,0.001000,0.001000
1010.153846,0.032663,0.001000,0.001000,0.001000,0.001000,0.001000
1010.173077,0.031575,0.001000,0.001000,0.001000,0.001000,0.001000
1010.192308,0.030461,0.001000,0.001000,0.001000,0.001000,0.001000
1010.211538,0.029323,0.001000,0.001000,0.001000,0.001000,0.001000
1010.230769,0.028161,0.001000,0.001000,0.001000,0.001000,0.001000
1010.250000,0.026976,0.001000,0.001000,0.001000,0.001000,0.001000
1010.269231,0.025770,0.001000,0.001000,0.001000,0.001000,0.001000
1010.288462,0.024543,0.001000,0.001000,0.001000,0.001000,0.001000
1010.307692,0.023296,0.001000,0.001000,0.001000,0.001000,0.001000
1010.326923,0.022030,0.001000,0.001000,0.001000,0.001000,0.001000
1010.346154,0.020746,0.001000,0.001000,0.001000,0.001000,0.001000
1010.365385,0.019446,0.001000,0.001000,0.001000,0.001000,0.001000
1010.384615,0.018130,0.001000,0.001000,0.001000,0.001000,0.001000
1010.403846,0.016800,0.001000,0.001000,0.001000,0.001000,0.001000
1010.423077,0.015456,0.001000,0.001000,0.001000,0.001000,0.001000
1010.442308,0.014099,0.001000,0.001000,0.001000,0.001000,0.001000
1010.461538,0.012731,0.001000,0.001000,0.001000,0.001000,0.001000
1010.480769,0.011353,0.001000,0.001000,0.001000,0.001000,0.001000
1010.500000,0.009965,0.001000,0.001000,0.001000,0.001000,0.001000
1010.519231,0.008570,0.001000,0.001000,0.001000,0.001000,0.001000
1010.538462,0.007168,0.001000,0.001000,0.001000,0.001000,0.001000
1010.557692,0.005760,0.001000,0.001000,0.001000,0.001000,0.001000
1010.576923,0.004347,0.001000,0.001000,0.001000,0.001000,0.001000
1010.596154,0.002930,0.001000,0.001000,0.001000,0.001000,0.001000
1010.615385,0.001512,0.001000,0.001000,0.001000,0.001000,0.001000
1010.634615,0.000092,0.001000,0.001000,0.001000,0.001000,0.001000
1010.653846,-0.001328,0.001000,0.001000,0.001000,0.001000,0.001000
1010.673077,-0.002747,0.001000,0.001000,0.001000,0.001000,0.001000
1010.692308,-0.004163,0.001000,0.001000,0.001000,0.001000,0.001000
1010.711538,-0.005577,0.001000,0.001000,0.001000,0.001000,0.001000
1010.730769,-0.006985,0.001000,0.001000,0.001000,0.001000,0.001000
1010.750000,-0.008389,0.001000,0.001000,0.001000,0.001000,0.001000
1010.769231,-0.009785,0.001000,0.001000,0.001000,0.001000,0.001000
1010.788462,-0.011174,0.001000,0.001000,0.001000,0.001000,0.001000
1010.807692,-0.012553,0.001000,0.001000,0.001000,0.001000,0.001000
1010.826923,-0.013922,0.001000,0.001000,0.001000,0.001000,0.001000
1010.846154,-0.015280,0.001000,0.001000,0.001000,0.001000,0.001000
1010.865385,-0.016626,0.001000,0.001000,0.001000,0.001000,0.001000
1010.884615,-0.017959,0.001000,0.001000,0.001000,0.001000,0.001000
1010.903846,-0.019277,0.001000,0.001000,0.001000,0.001000,0.001000
1010.923077,-0.020579,0.001000,0.001000,0.001000,0.001000,0.001000
1010.942308,-0.021865,0.001000,0.001000,0.001000,0.001000,0.001000
1010.961538,-0.023133,0.001000,0.001000,0.001000,0.001000,0.001000
1010.980769,-0.024382,0.001000,0.001000,0.001000,0.001000,0.001000
1011.000000,-0.025612,0.001000,0.001000,0.001000,0.001000,0.001000
1011.019231,-0.026821,0.001000,0.001000,0.001000,0.001000,0.001000
1011.038462,-0.028009,0.001000,0.001000,0.001000,0.001000,0.001000
1011.057692,-0.029174,0.001000,0.001000,0.001000,0.001000,0.001000
1011.076923,-0.030315,0.001000,0.001000,0.001000,0.001000,0.001000
1011.096154,-0.031432,0.001000,0.001000,0.001000,0.001000,0.001000
1011.115385,-0.032523,0.001000,0.001000,0.001000,0.001000,0.001000
1011.134615,-0.033589,0.001000,0.001000,0.001000,0.001000,0.001000
1011.153846,-0.034627,0.001000,0.001000,0.001000,0.001000,0.001000
1011.173077,-0.035637,0.001000,0.001000,0.001000,0.001000,0.001000
1011.192308,-0.036619,0.001000,0.001000,0.001000,0.001000,0.001000
1011.211538,-0.037571,0.001000,0.001000,0.001000,0.001000,0.001000
1011.230769,-0.038493,0.001000,0.001000,0.001000,0.001000,0.001000
1011.250000,-0.039383,0.001000,0.001000,0.001000,0.001000,0.001000
1011.269231,-0.040242,0.001000,0.001000,0.001000,0.001000,0.001000
1011.288462,-0.041069,0.001000,0.001000,0.001000,0.001000,0.001000
1011.307692,-0.041862,0.001000,0.001000,0.001000,0.001000,0.001000
1011.326923,-0.042622,0.001000,0.001000,0.001000,0.001000,0.001000
1011.346154,-0.043347,0.001000,0.001000,0.001000,0.001000,0.001000
1011.365385,-0.044037,0.001000,0.001000,0.001000,0.001000,0.001000
1011.384615,-0.044692,0.001000,0.001000,0.001000,0.001000,0.001000
1011.403846,-0.045310,0.001000,0.001000,0.001000,0.001000,0.001000
1011.423077,-0.045892,0.001000,0.001000,0.001000,0.001000,0.001000
1011.442308,-0.046438,0.001000,0.001000,0.001000,0.001000,0.001000
1011.461538,-0.046945,0.001000,0.001000,0.001000,0.001000,0.001000
1011.480769,-0.047415,0.001000,0.001000,0.001000,0.001000,0.001000
1011.500000,-0.047846,0.001000,0.001000,0.001000,0.001000,0.001000
1011.519231,-0.048239,0.001000,0.001000,0.001000,0.001000,0.001000
1011.538462,-0.048593,0.001000,0.001000,0.001000,0.001000,0.001000
1011.557692,-0.048908,0.001000,0.001000,0.001000,0.001000,0.001000
1011.576923,-0.049184,0.001000,0.001000,0.001000,0.001000,0.001000
1011.596154,-0.049419,0.001000,0.001000,0.001000,0.001000,0.001000
1011.615385,-0.049615,0.001000,0.001000,0.001000,0.001000,0.001000
1011.634615,-0.049771,0.001000,0.001000,0.001000,0.001000,0.001000
1011.653846,-0.049887,0.001000,0.001000,0.001000,0.001000,0.001000
1011.673077,-0.049962,0.001000,0.001000,0.001000,0.001000,0.001000
1011.692308,-0.049997,0.001000,0.001000,0.001000,0.001000,0.001000
1011.711538,-0.049992,0.001000,0.001000,0.001000,0.001000,0.001000
1011.730769,-0.049947,0.001000,0.001000,0.001000,0.001000,0.001000
1011.750000,-0.049861,0.001000,0.001000,0.001000,0.001000,0.001000
1011.769231,-0.049735,0.001000,0.001000,0.001000,0.001000,0.001000
1011.788462,-0.049569,0.001000,0.001000,0.001000,0.001000,0.001000
1011.807692,-0.049362,0.001000,0.001000,0.001000,0.001000,0.001000
1011.826923,-0.049117,0.001000,0.001000,0.001000,0.001000,0.001000
1011.846154,-0.048831,0.001000,0.001000,0.001000,0.001000,0.001000
1011.865385,-0.048506,0.001000,0.001000,0.001000,0.001000,0.001000
1011.884615,-0.048142,0.001000,0.001000,0.001000,0.001000,0.001000
1011.903846,-0.047739,0.001000,0.001000,0.001000,0.001000,0.001000
1011.923077,-0.047298,0.001000,0.001000,0.001000,0.001000,0.001000
1011.942308,-0.046818,0.001000,0.001000,0.001000,0.001000,0.001000
1011.961538,-0.046301,0.001000,0.001000,0.001000,0.001000,0.001000
1011.980769,-0.045746,0.001000,0.001000,0.001000,0.001000,0.001000
1012.000000,-0.045155,0.001000,0.001000,0.001000,0.001000,0.001000
1012.019231,-0.044527,0.001000,0.001000,0.001000,0.001000,0.001000
1012.038462,-0.043863,0.001000,0.001000,0.001000,0.001000,0.001000
1012.057692,-0.043163,0.001000,0.001000,0.001000,0.001000,0.001000
1012.076923,-0.042429,0.001000,0.001000,0.001000,0.001000,0.001000
1012.096154,-0.041661,0.001000,0.001000,0.001000,0.001000,0.001000
1012.115385,-0.040859,0.001000,0.001000,0.001000,0.001000,0.001000
1012.134615,-0.040024,0.001000,0.001000,0.001000,0.001000,0.001000
1012.153846,-0.039157,0.001000,0.001000,0.001000,0.001000,0.001000
1012.173077,-0.038258,0.001000,0.001000,0.001000,0.001000,0.001000
1012.192308,-0.037329,0.001000,0.001000,0.001000,0.001000,0.001000
1012.211538,-0.036369,0.001000,0.001000,0.001000,0.001000,0.001000
1012.230769,-0.035380,0.001000,0.001000,0.001000,0.001000,0.001000
1012.250000,-0.034362,0.001000,0.001000,0.001000,0.001000,0.001000
1012.269231,-0.033317,0.001000,0.001000,0.001000,0.001000,0.001000
1012.288462,-0.032245,0.001000,0.001000,0.001000,0.001000,0.001000
1012.307692,-0.031147,0.001000,0.001000,0.001000,0.001000,0.001000
1012.326923,-0.030023,0.001000,0.001000,0.001000,0.001000,0.001000
1012.346154,-0.028876,0.001000,0.001000,0.001000,0.001000,0.001000
1012.365385,-0.027705,0.001000,0.001000,0.001000,0.001000,0.001000
1012.384615,-0.026512,0.001000,0.001000,0.001000,0.001000,0.001000
1012.403846,-0.025297,0.001000,0.001000,0.001000,0.001000,0.001000
1012.423077,-0.024062,0.001000,0.001000,0.001000,0.001000,0.001000
1012.442308,-0.022808,0.001000,0.001000,0.001000,0.001000,0.001000
1012.461538,-0.021535,0.001000,0.001000,0.001000,0.001000,0.001000
1012.480769,-0.020245,0.001000,0.001000,0.001000,0.001000,0.001000
1012.500000,-0.018939,0.001000,0.001000,0.001000,0.001000,0.001000
1012.519231,-0.017617,0.001000,0.001000,0.001000,0.001000,0.001000
1012.538462,-0.016281,0.001000,0.001000,0.001000,0.001000,0.001000
1012.557692,-0.014932,0.001000,0.001000,0.001000,0.001000,0.001000
1012.576923,-0.013571,0.001000,0.001000,0.001000,0.001000,0.001000
1012.596154,-0.012199,0.001000,0.001000,0.001000,0.001000,0.001000
1012.615385,-0.010817,0.001000,0.001000,0.001000,0.001000,0.001000
1012.634615,-0.009426,0.001000,0.001000,0.001000,0.001000,0.001000
1012.653846,-0.008028,0.001000,0.001000,0.001000,0.001000,0.001000
1012.673077,-0.006623,0.001000,0.001000,0.001000,0.001000,0.001000
1012.692308,-0.005213,0.001000,0.001000,0.001000,0.001000,0.001000
1012.711538,-0.003799,0.001000,0.001000,0.001000,0.001000,0.001000
1012.730769,-0.002382,0.001000,0.001000,0.001000,0.001000,0.001000
1012.750000,-0.000962,0.001000,0.001000,0.001000,0.001000,0.001000
1012.769231,0.000458,0.001000,0.001000,0.001000,0.001000,0.001000
1012.788462,0.001877,0.001000,0.001000,0.001000,0.001000,0.001000
1012.807692,0.003295,0.001000,0.001000,0.001000,0.001000,0.001000
1012.826923,0.004711,0.001000,0.001000,0.001000,0.001000,0.001000
1012.846154,0.006123,0.001000,0.001000,0.001000,0.001000,0.001000
1012.865385,0.007529,0.001000,0.001000,0.001000,0.001000,0.001000
1012.884615,0.008930,0.001000,0.001000,0.001000,0.001000,0.001000
1012.903846,0.010323,0.001000,0.001000,0.001000,0.001000,0.001000
1012.923077,0.011709,0.001000,0.001000,0.001000,0.001000,0.001000
1012.942308,0.013084,0.001000,0.001000,0.001000,0.001000,0.001000
1012.961538,0.014449,0.001000,0.001000,0.001000,0.001000,0.001000
1012.980769,0.015803,0.001000,0.001000,0.001000,0.001000,0.001000
1013.000000,0.017144,0.001000,0.001000,0.001000,0.001000,0.001000
1013.019231,0.018471,0.001000,0.001000,0.001000,0.001000,0.001000
1013.038462,0.019783,0.001000,0.001000,0.001000,0.001000,0.001000
1013.057692,0.021079,0.001000,0.001000,0.001000,0.001000,0.001000
1013.076923,0.022358,0.001000,0.001000,0.001000,0.001000,0.001000
1013.096154,0.023619,0.001000,0.001000,0.001000,0.001000,0.001000
1013.115385,0.024861,0.001000,0.001000,0.001000,0.001000,0.001000
1013.134615,0.026083,0.001000,0.001000,0.001000,0.001000,0.001000
1013.153846,0.027283,0.001000,0.001000,0.001000,0.001000,0.001000
1013.173077,0.028462,0.001000,0.001000,0.001000,0.001000,0.001000
1013.192308,0.029618,0.001000,0.001000,0.001000,0.001000,0.001000
1013.211538,0.030750,0.001000,0.001000,0.001000,0.001000,0.001000
1013.230769,0.031857,0.001000,0.001000,0.001000,0.001000,0.001000
1013.250000,0.032939,0.001000,0.001000,0.001000,0.001000,0.001000
1013.269231,0.033994,0.001000,0.001000,0.001000,0.001000,0.001000
1013.288462,0.035021,0.001000,0.001000,0.001000,0.001000,0.001000
1013.307692,0.036021,0.001000,0.001000,0.001000,0.001000,0.001000
1013.326923,0.036991,0.001000,0.001000,0.001000,0.001000,0.001000
1013.346154,0.037931,0.001000,0.001000,0.001000,0.001000,0.001000
1013.365385,0.038841,0.001000,0.001000,0.001000,0.001000,0.001000
1013.384615,0.039720,0.001000,0.001000,0.001000,0.001000,0.001000
1013.403846,0.040566,0.001000,0.001000,0.001000,0.001000,0.001000
1013.423077,0.041380,0.001000,0.001000,0.001000,0.001000,0.001000
1013.442308,0.042160,0.001000,0.001000,0.001000,0.001000,0.001000
1013.461538,0.042906,0.001000,0.001000,0.001000,0.001000,0.001000
1013.480769,0.043618,0.001000,0.001000,0.001000,0.001000,0.001000
1013.500000,0.044295,0.001000,0.001000,0.001000,0.001000,0.001000
1013.519231,0.044935,0.001000,0.001000,0.001000,0.001000,0.001000
1013.538462,0.045540,0.001000,0.001000,0.001000,0.001000,0.001000
1013.557692,0.046108,0.001000,0.001000,0.001000,0.001000,0.001000
1013.576923,0.046639,0.001000,0.001000,0.001000,0.001000,0.001000
1013.596154,0.047132,0.001000,0.001000,0.001000,0.001000,0.001000
1013.615385,0.047587,0.001000,0.001000,0.001000,0.001000,0.001000
1013.634615,0.048003,0.001000,0.001000,0.001000,0.001000,0.001000
1013.653846,0.048381,0.001000,0.001000,0.001000,0.001000,0.001000
1013.673077,0.048720,0.001000,0.001000,0.001000,0.001000,0.001000
1013.692308,0.049020,0.001000,0.001000,0.001000,0.001000,0.001000
1013.711538,0.049280,0.001000,0.001000,0.001000,0.001000,0.001000
1013.730769,0.049500,0.001000,0.001000,0.001000,0.001000,0.001000
1013.750000,0.049680,0.001000,0.001000,0.001000,0.001000,0.001000
1013.769231,0.049821,0.001000,0.001000,0.001000,0.001000,0.001000
1013.788462,0.049921,0.001000,0.001000,0.001000,0.001000,0.001000
1013.807692,0.049980,0.001000,0.001000,0.001000,0.001000,0.001000
1013.826923,0.050000,0.001000,0.001000,0.001000,0.001000,0.001000
1013.846154,0.049979,0.001000,0.001000,0.001000,0.001000,0.001000
1013.865385,0.049918,0.001000,0.001000,0.001000,0.001000,0.001000
1013.884615,0.049817,0.001000,0.001000,0.001000,0.001000,0.001000
1013.903846,0.049675,0.001000,0.001000,0.001000,0.001000,0.001000
1013.923077,0.049494,0.001000,0.001000,0.001000,0.001000,0.001000
1013.942308,0.049272,0.001000,0.001000,0.001000,0.001000,0.001000
1013.961538,0.049011,0.001000,0.001000,0.001000,0.001000,0.001000
1013.980769,0.048710,0.001000,0.001000,0.001000,0.001000,0.001000
1014.000000,0.048370,0.001000,0.001000,0.001000,0.001000,0.001000
1014.019231,0.047991,0.001000,0.001000,0.001000,0.001000,0.001000
1014.038462,0.047573,0.001000,0.001000,0.001000,0.001000,0.001000
1014.057692,0.047117,0.001000,0.001000,0.001000,0.001000,0.001000
1014.076923,0.046622,0.001000,0.001000,0.001000,0.001000,0.001000
1014.096154,0.046091,0.001000,0.001000,0.001000,0.001000,0.001000
1014.115385,0.045522,0.001000,0.001000,0.001000,0.001000,0.001000
1014.134615,0.044916,0.001000,0.001000,0.001000,0.001000,0.001000
1014.153846,0.044274,0.001000,0.001000,0.001000,0.001000,0.001000
1014.173077,0.043596,0.001000,0.001000,0.001000,0.001000,0.001000
1014.192308,0.042883,0.001000,0.001000,0.001000,0.001000,0.001000
1014.211538,0.042136,0.001000,0.001000,0.001000,0.001000,0.001000
1014.230769,0.041355,0.001000,0.001000,0.001000,0.001000,0.001000
1014.250000,0.040540,0.001000,0.001000,0.001000,0.001000,0.001000
1014.269231,0.039692,0.001000,0.001000,0.001000,0.001000,0.001000
1014.288462,0.038813,0.001000,0.001000,0.001000,0.001000,0.001000
1014.307692,0.037902,0.001000,0.001000,0.001000,0.001000,0.001000
1014.326923,0.036961,0.001000,0.001000,0.001000,0.001000,0.001000
1014.346154,0.035990,0.001000,0.001000,0.001000,0.001000,0.001000
1014.365385,0.034989,0.001000,0.001000,0.001000,0.001000,0.001000
1014.384615,0.033961,0.001000,0.001000,0.001000,0.001000,0.001000
1014.403846,0.032905,0.001000,0.001000,0.001000,0.001000,0.001000
1014.423077,0.031823,0.001000,0.001000,0.001000,0.001000,0.001000
1014.442308,0.030715,0.001000,0.001000,0.001000,0.001000,0.001000
1014.461538,0.029582,0.001000,0.001000,0.001000,0.001000,0.001000
1014.480769,0.028425,0.001000,0.001000,0.001000,0.001000,0.001000
1014.500000,0.027246,0.001000,0.001000,0.001000,0.001000,0.001000
1014.519231,0.026044,0.001000,0.001000,0.001000,0.001000,0.001000
1014.538462,0.024822,0.001000,0.001000,0.001000,0.001000,0.001000
1014.557692,0.023579,0.001000,0.001000,0.001000,0.001000,0.001000
1014.576923,0.022318,0.001000,0.001000,0.001000,0.001000,0.001000
1014.596154,0.021038,0.001000,0.001000,0.001000,0.001000,0.001000
1014.615385,0.019741,0.001000,0.001000,0.001000,0.001000,0.001000
1014.634615,0.018429,0.001000,0.001000,0.001000,0.001000,0.001000
1014.653846,0.017102,0.001000,0.001000,0.001000,0.001000,0.001000
1014.673077,0.015760,0.001000,0.001000,0.001000,0.001000,0.001000
1014.692308,0.014406,0.001000,0.001000,0.001000,0.001000,0.001000
1014.711538,0.013041,0.001000,0.001000,0.001000,0.001000,0.001000
1014.730769,0.011665,0.001000,0.001000,0.001000,0.001000,0.001000
1014.750000,0.010280,0.001000,0.001000,0.001000,0.001000,0.001000
1014.769231,0.008886,0.001000,0.001000,0.001000,0.001000,0.001000
1014.788462,0.007485,0.001000,0.001000,0.001000,0.001000,0.001000
1014.807692,0.006078,0.001000,0.001000,0.001000,0.001000,0.001000
1014.826923,0.004666,0.001000,0.001000,0.001000,0.001000,0.001000
1014.846154,0.003251,0.001000,0.001000,0.001000,0.001000,0.001000
1014.865385,0.001832,0.001000,0.001000,0.001000,0.001000,0.001000
1014.884615,0.000413,0.001000,0.001000,0.001000,0.001000,0.001000
1014.903846,-0.001007,0.001000,0.001000,0.001000,0.001000,0.001000
1014.923077,-0.002426,0.001000,0.001000,0.001000,0.001000,0.001000
1014.942308,-0.003844,0.001000,0.001000,0.001000,0.001000,0.001000
1014.961538,-0.005258,0.001000,0.001000,0.001000,0.001000,0.001000
1014.980769,-0.006668,0.001000,0.001000,0.001000,0.001000,0.001000
1015.000000,-0.008072,0.001000,0.001000,0.001000,0.001000,0.001000
1015.019231,-0.009470,0.001000,0.001000,0.001000,0.001000,0.001000
1015.038462,-0.010861,0.001000,0.001000,0.001000,0.001000,0.001000
1015.057692,-0.012242,0.001000,0.001000,0.001000,0.001000,0.001000
1015.076923,-0.013614,0.001000,0.001000,0.001000,0.001000,0.001000
1015.096154,-0.014975,0.001000,0.001000,0.001000,0.001000,0.001000
1015.115385,-0.016323,0.001000,0.001000,0.001000,0.001000,0.001000
1015.134615,-0.017659,0.001000,0.001000,0.001000,0.001000,0.001000
1015.153846,-0.018980,0.001000,0.001000,0.001000,0.001000,0.001000
1015.173077,-0.020286,0.001000,0.001000,0.001000,0.001000,0.001000
1015.192308,-0.021576,0.001000,0.001000,0.001000,0.001000,0.001000
1015.211538,-0.022848,0.001000,0.001000,0.001000,0.001000,0.001000
1015.230769,-0.024102,0.001000,0.001000,0.001000,0.001000,0.001000
1015.250000,-0.025336,0.001000,0.001000,0.001000,0.001000,0.001000
1015.269231,-0.026550,0.001000,0.001000,0.001000,0.001000,0.001000
1015.288462,-0.027742,0.001000,0.001000,0.001000,0.001000,0.001000
1015.307692,-0.028912,0.001000,0.001000,0.001000,0.001000,0.001000
1015.326923,-0.030059,0.001000,0.001000,0.001000,0.001000,0.001000
1015.346154,-0.031182,0.001000,0.001000,0.001000,0.001000,0.001000
1015.365385,-0.032279,0.001000,0.001000,0.001000,0.001000,0.001000
1015.384615,-0.033350,0.001000,0.001000,0.001000,0.001000,0.001000
1015.403846,-0.034395,0.001000,0.001000,0.001000,0.001000,0.001000
1015.423077,-0.035412,0.001000,0.001000,0.001000,0.001000,0.001000
1015.442308,-0.036400,0.001000,0.001000,0.001000,0.001000,0.001000
1015.461538,-0.037358,0.001000,0.001000,0.001000,0.001000,0.001000
1015.480769,-0.038287,0.001000,0.001000,0.001000,0.001000,0.001000
1015.500000,-0.039185,0.001000,0.001000,0.001000,0.001000,0.001000
1015.519231,-0.040051,0.001000,0.001000,0.001000,0.001000,0.001000
1015.538462,-0.040885,0.001000,0.001000,0.001000,0.001000,0.001000
1015.557692,-0.041686,0.001000,0.001000,0.001000,0.001000,0.001000
1015.576923,-0.042453,0.001000,0.001000,0.001000,0.001000,0.001000
1015.596154,-0.043186,0.001000,0.001000,0.001000,0.001000,0.001000
1015.615385,-0.043884,0.001000,0.001000,0.001000,0.001000,0.001000
1015.634615,-0.044547,0.001000,0.001000,0.001000,0.001000,0.001000
1015.653846,-0.045174,0.001000,0.001000,0.001000,0.001000,0.001000
1015.673077,-0.045764,0.001000,0.001000,0.001000,0.001000,0.001000
1015.692308,-0.046318,0.001000,0.001000,0.001000,0.001000,0.001000
1015.711538,-0.046834,0.001000,0.001000,0.001000,0.001000,0.001000
1015.730769,-0.047312,0.001000,0.001000,0.001000,0.001000,0.001000
1015.750000,-0.047752,0.001000,0.001000,0.001000,0.001000,0.001000
1015.769231,-0.048154,0.001000,0.001000,0.001000,0.001000,0.001000
1015.788462,-0.048517,0.001000,0.001000,0.001000,0.001000,0.001000
1015.807692,-0.048841,0.001000,0.001000,0.001000,0.001000,0.001000
1015.826923,-0.049125,0.001000,0.001000,0.001000,0.001000,0.001000
1015.846154,-0.049370,0.001000,0.001000,0.001000,0.001000,0.001000
1015.865385,-0.049574,0.001000,0.001000,0.001000,0.001000,0.001000
1015.884615,-0.049739,0.001000,0.001000,0.001000,0.001000,0.001000
1015.903846,-0.049864,0.001000,0.001000,0.001000,0.001000,0.001000
1015.923077,-0.049949,0.001000,0.001000,0.001000,0.001000,0.001000
1015.942308,-0.049993,0.001000,0.001000,0.001000,0.001000,0.001000
1015.961538,-0.049997,0.001000,0.001000,0.001000,0.001000,0.001000
1015.980769,-0.049960,0.001000,0.001000,0.001000,0.001000,0.001000
1016.000000,-0.049884,0.001000,0.001000,0.001000,0.001000,0.001000
1016.019231,-0.049767,0.001000,0.001000,0.001000,0.001000,0.001000
1016.038462,-0.049610,0.001000,0.001000,0.001000,0.001000,0.001000
1016.057692,-0.049412,0.001000,0.001000,0.001000,0.001000,0.001000
1016.076923,-0.049176,0.001000,0.001000,0.001000,0.001000,0.001000
1016.096154,-0.048899,0.001000,0.001000,0.001000,0.001000,0.001000
1016.115385,-0.048583,0.001000,0.001000,0.001000,0.001000,0.001000
1016.134615,-0.048228,0.001000,0.001000,0.001000,0.001000,0.001000
1016.153846,-0.047833,0.001000,0.001000,0.001000,0.001000,0.001000
1016.173077,-0.047401,0.001000,0.001000,0.001000,0.001000,0.001000
1016.192308,-0.046930,0.001000,0.001000,0.001000,0.001000,0.001000
1016.211538,-0.046421,0.001000,0.001000,0.001000,0.001000,0.001000
1016.230769,-0.045875,0.001000,0.001000,0.001000,0.001000,0.001000
1016.250000,-0.045291,0.001000,0.001000,0.001000,0.001000,0.001000
1016.269231,-0.044672,0.001000,0.001000,0.001000,0.001000,0.001000
1016.288462,-0.044016,0.001000,0.001000,0.001000,0.001000,0.001000
1016.307692,-0.043324,0.001000,0.001000,0.001000,0.001000,0.001000
1016.326923,-0.042598,0.001000,0.001000,0.001000,0.001000,0.001000
1016.346154,-0.041838,0.001000,0.001000,0.001000,0.001000,0.001000
1016.365385,-0.041043,0.001000,0.001000,0.001000,0.001000,0.001000
1016.384615,-0.040216,0.001000,0.001000,0.001000,0.001000,0.001000
1016.403846,-0.039356,0.001000,0.001000,0.001000,0.001000,0.001000
1016.423077,-0.038464,0.001000,0.001000,0.001000,0.001000,0.001000
1016.442308,-0.037541,0.001000,0.001000,0.001000,0.001000,0.001000
1016.461538,-0.036588,0.001000,0.001000,0.001000,0.001000,0.001000
1016.480769,-0.035606,0.001000,0.001000,0.001000,0.001000,0.001000
1016.500000,-0.034595,0.001000,0.001000,0.001000,0.001000,0.001000
1016.519231,-0.033556,0.001000,0.001000,0.001000,0.001000,0.001000
1016.538462,-0.032489,0.001000,0.001000,0.001000,0.001000,0.001000
1016.557692,-0.031397,0.001000,0.001000,0.001000,0.001000,0.001000
1016.576923,-0.030279,0.001000,0.001000,0.001000,0.001000,0.001000
1016.596154,-0.029137,0.001000,0.001000,0.001000,0.001000,0.001000
1016.615385,-0.027972,0.001000,0.001000,0.001000,0.001000,0.001000
1016.634615,-0.026783,0.001000,0.001000,0.001000,0.001000,0.001000
1016.653846,-0.025574,0.001000,0.001000,0.001000,0.001000,0.001000
1016.673077,-0.024343,0.001000,0.001000,0.001000,0.001000,0.001000
1016.692308,-0.023093,0.001000,0.001000,0.001000,0.001000,0.001000
1016.711538,-0.021824,0.001000,0.001000,0.001000,0.001000,0.001000
1016.730769,-0.020538,0.001000,0.001000,0.001000,0.001000,0.001000
1016.750000,-0.019235,0.001000,0.001000,0.001000,0.001000,0.001000
1016.769231,-0.017917,0.001000,0.001000,0.001000,0.001000,0.001000
1016.788462,-0.016584,0.001000,0.001000,0.001000,0.001000,0.001000
1016.807692,-0.015238,0.001000,0.001000,0.001000,0.001000,0.001000
1016.826923,-0.013879,0.001000,0.001000,0.001000,0.001000,0.001000
1016.846154,-0.012510,0.001000,0.001000,0.001000,0.001000,0.001000
1016.865385,-0.011130,0.001000,0.001000,0.001000,0.001000,0.001000
1016.884615,-0.009741,0.001000,0.001000,0.001000,0.001000,0.001000
1016.903846,-0.008344,0.001000,0.001000,0.001000,0.001000,0.001000
1016.923077,-0.006941,0.001000,0.001000,0.001000,0.001000,0.001000
1016.942308,-0.005532,0.001000,0.001000,0.001000,0.001000,0.001000
1016.961538,-0.004119,0.001000,0.001000,0.001000,0.001000,0.001000
1016.980769,-0.002702,0.001000,0.001000,0.001000,0.001000,0.001000
1017.000000,-0.001283,0.001000,0.001000,0.001000,0.001000,0.001000
1017.019231,0.000137,0.001000,0.001000,0.001000,0.001000,0.001000
1017.038462,0.001557,0.001000,0.001000,0.001000,0.001000,0.001000
1017.057692,0.002975,0.001000,0.001000,0.001000,0.001000,0.001000
1017.076923,0.004391,0.001000,0.001000,0.001000,0.001000,0.001000
1017.096154,0.005804,0.001000,0.001000,0.001000,0.001000,0.001000
1017.115385,0.007212,0.001000,0.001000,0.001000,0.001000,0.001000
1017.134615,0.008614,0.001000,0.001000,0.001000,0.001000,0.001000
1017.153846,0.010009,0.001000,0.001000,0.001000,0.001000,0.001000
1017.173077,0.011396,0.001000,0.001000,0.001000,0.001000,0.001000
1017.192308,0.012774,0.001000,0.001000,0.001000,0.001000,0.001000
1017.211538,0.014142,0.001000,0.001000,0.001000,0.001000,0.001000
1017.230769,0.015498,0.001000,0.001000,0.001000,0.001000,0.001000
1017.250000,0.016842,0.001000,0.001000,0.001000,0.001000,0.001000
1017.269231,0.018172,0.001000,0.001000,0.001000,0.001000,0.001000
1017.288462,0.019487,0.001000,0.001000,0.001000,0.001000,0.001000
1017.307692,0.020787,0.001000,0.001000,0.001000,0.001000,0.001000
1017.326923,0.022070,0.001000,0.001000,0.001000,0.001000,0.001000
1017.346154,0.023335,0.001000,0.001000,0.001000,0.001000,0.001000
1017.365385,0.024582,0.001000,0.001000,0.001000,0.001000,0.001000
1017.384615,0.025808,0.001000,0.001000,0.001000,0.001000,0.001000
1017.403846,0.027014,0.001000,0.001000,0.001000,0.001000,0.001000
1017.423077,0.028198,0.001000,0.001000,0.001000,0.001000,0.001000
1017.442308,0.029359,0.001000,0.001000,0.001000,0.001000,0.001000
1017.461538,0.030497,0.001000,0.001000,0.001000,0.001000,0.001000
1017.480769,0.031609,0.001000,0.001000,0.001000,0.001000,0.001000
1017.500000,0.032697,0.001000,0.001000,0.001000,0.001000,0.001000
1017.519231,0.033758,0.001000,0.001000,0.001000,0.001000,0.001000
1017.538462,0.034792,0.001000,0.001000,0.001000,0.001000,0.001000
1017.557692,0.035797,0.001000,0.001000,0.001000,0.001000,0.001000
1017.576923,0.036774,0.001000,0.001000,0.001000,0.001000,0.001000
1017.596154,0.037722,0.001000,0.001000,0.001000,0.001000,0.001000
1017.615385,0.038638,0.001000,0.001000,0.001000,0.001000,0.001000
1017.634615,0.039524,0.001000,0.001000,0.001000,0.001000,0.001000
1017.653846,0.040378,0.001000,0.001000,0.001000,0.001000,0.001000
1017.673077,0.041199,0.001000,0.001000,0.001000,0.001000,0.001000
1017.692308,0.041987,0.001000,0.001000,0.001000,0.001000,0.001000
1017.711538,0.042741,0.001000,0.001000,0.001000,0.001000,0.001000
1017.730769,0.043460,0.001000,0.001000,0.001000,0.001000,0.001000
1017.750000,0.044145,0.001000,0.001000,0.001000,0.001000,0.001000
1017.769231,0.044794,0.001000,0.001000,0.001000,0.001000,0.001000
1017.788462,0.045407,0.001000,0.001000,0.001000,0.001000,0.001000
1017.807692,0.045983,0.001000,0.001000,0.001000,0.001000,0.001000
1017.826923,0.046522,0.001000,0.001000,0.001000,0.001000,0.001000
1017.846154,0.047023,0.001000,0.001000,0.001000,0.001000,0.001000
1017.865385,0.047487,0.001000,0.001000,0.001000,0.001000,0.001000
1017.884615,0.047912,0.001000,0.001000,0.001000,0.001000,0.001000
1017.903846,0.048299,0.001000,0.001000,0.001000,0.001000,0.001000
1017.923077,0.048647,0.001000,0.001000,0.001000,0.001000,0.001000
1017.942308,0.048955,0.001000,0.001000,0.001000,0.001000,0.001000
1017.961538,0.049224,0.001000,0.001000,0.001000,0.001000,0.001000
1017.980769,0.049454,0.001000,0.001000,0.001000,0.001000,0.001000
1018.000000,0.049643,0.001000,0.001000,0.001000,0.001000,0.001000
1018.019231,0.049792,0.001000,0.001000,0.001000,0.001000,0.001000
1018.038462,0.049902,0.001000,0.001000,0.001000,0.001000,0.001000
1018.057692,0.049970,0.001000,0.001000,0.001000,0.001000,0.001000
1018.076923,0.049999,0.001000,0.001000,0.001000,0.001000,0.001000
1018.096154,0.049987,0.001000,0.001000,0.001000,0.001000,0.001000
1018.115385,0.049935,0.001000,0.001000,0.001000,0.001000,0.001000
1018.134615,0.049843,0.001000,0.001000,0.001000,0.001000,0.001000
1018.153846,0.049711,0.001000,0.001000,0.001000,0.001000,0.001000
1018.173077,0.049538,0.001000,0.001000,0.001000,0.001000,0.001000
1018.192308,0.049325,0.001000,0.001000,0.001000,0.001000,0.001000
1018.211538,0.049073,0.001000,0.001000,0.001000,0.001000,0.001000
1018.230769,0.048781,0.001000,0.001000,0.001000,0.001000,0.001000
1018.250000,0.048450,0.001000,0.001000,0.001000,0.001000,0.001000
1018.269231,0.048080,0.001000,0.001000,0.001000,0.001000,0.001000
1018.288462,0.047671,0.001000,0.001000,0.001000,0.001000,0.001000
1018.307692,0.047223,0.001000,0.001000,0.001000,0.001000,0.001000
1018.326923,0.046737,0.001000,0.001000,0.001000,0.001000,0.001000
1018.346154,0.046214,0.001000,0.001000,0.001000,0.001000,0.001000
1018.365385,0.045653,0.001000,0.001000,0.001000,0.001000,0.001000
1018.384615,0.045056,0.001000,0.001000,0.001000,0.001000,0.001000
1018.403846,0.044422,0.001000,0.001000,0.001000,0.001000,0.001000
1018.423077,0.043752,0.001000,0.001000,0.001000,0.001000,0.001000
1018.442308,0.043047,0.001000,0.001000,0.001000,0.001000,0.001000
1018.461538,0.042308,0.001000,0.001000,0.001000,0.001000,0.001000
1018.480769,0.041534,0.001000,0.001000,0.001000,0.001000,0.001000
1018.500000,0.040727,0.001000,0.001000,0.001000,0.001000,0.001000
1018.519231,0.039887,0.001000,0.001000,0.001000,0.001000,0.001000
1018.538462,0.039014,0.001000,0.001000,0.001000,0.001000,0.001000
1018.557692,0.038111,0.001000,0.001000,0.001000,0.001000,0.001000
1018.576923,0.037176,0.001000,0.001000,0.001000,0.001000,0.001000
1018.596154,0.036212,0.001000,0.001000,0.001000,0.001000,0.001000
1018.615385,0.035218,0.001000,0.001000,0.001000,0.001000,0.001000
1018.634615,0.034196,0.001000,0.001000,0.001000,0.001000,0.001000
1018.653846,0.033146,0.001000,0.001000,0.001000,0.001000,0.001000
1018.673077,0.032070,0.001000,0.001000,0.001000,0.001000,0.001000
1018.692308,0.030967,0.001000,0.001000,0.001000,0.001000,0.001000
1018.711538,0.029840,0.001000,0.001000,0.001000,0.001000,0.001000
1018.730769,0.028689,0.001000,0.001000,0.001000,0.001000,0.001000
1018.750000,0.027514,0.001000,0.001000,0.001000,0.001000,0.001000
1018.769231,0.026318,0.001000,0.001000,0.001000,0.001000,0.001000
1018.788462,0.025100,0.001000,0.001000,0.001000,0.001000,0.001000
1018.807692,0.023862,0.001000,0.001000,0.001000,0.001000,0.001000
1018.826923,0.022604,0.001000,0.001000,0.001000,0.001000,0.001000
1018.846154,0.021329,0.001000,0.001000,0.001000,0.001000,0.001000
1018.865385,0.020036,0.001000,0.001000,0.001000,0.001000,0.001000
1018.884615,0.018727,0.001000,0.001000,0.001000,0.001000,0.001000
1018.903846,0.017403,0.001000,0.001000,0.001000,0.001000,0.001000
1018.923077,0.016064,0.001000,0.001000,0.001000,0.001000,0.001000
1018.942308,0.014713,0.001000,0.001000,0.001000,0.001000,0.001000
1018.961538,0.013350,0.001000,0.001000,0.001000,0.001000,0.001000
1018.980769,0.011977,0.001000,0.001000,0.001000,0.001000,0.001000
1019.000000,0.010593,0.001000,0.001000,0.001000,0.001000,0.001000
1019.019231,0.009201,0.001000,0.001000,0.001000,0.001000,0.001000
1019.038462,0.007802,0.001000,0.001000,0.001000,0.001000,0.001000
1019.057692,0.006396,0.001000,0.001000,0.001000,0.001000,0.001000
1019.076923,0.004986,0.001000,0.001000,0.001000,0.001000,0.001000
1019.096154,0.003571,0.001000,0.001000,0.001000,0.001000,0.001000
1019.115385,0.002153,0.001000,0.001000,0.001000,0.001000,0.001000
1019.134615,0.000734,0.001000,0.001000,0.001000,0.001000,0.001000
1019.153846,-0.000686,0.001000,0.001000,0.001000,0.001000,0.001000
1019.173077,-0.002106,0.001000,0.001000,0.001000,0.001000,0.001000
1019.192308,-0.003524,0.001000,0.001000,0.001000,0.001000,0.001000
1019.211538,-0.004939,0.001000,0.001000,0.001000,0.001000,0.001000
1019.230769,-0.006350,0.001000,0.001000,0.001000,0.001000,0.001000
1019.250000,-0.007755,0.001000,0.001000,0.001000,0.001000,0.001000
1019.269231,-0.009155,0.001000,0.001000,0.001000,0.001000,0.001000
1019.288462,-0.010547,0.001000,0.001000,0.001000,0.001000,0.001000
1019.307692,-0.011931,0.001000,0.001000,0.001000,0.001000,0.001000
1019.326923,-0.013305,0.001000,0.001000,0.001000,0.001000,0.001000
1019.346154,-0.014668,0.001000,0.001000,0.001000,0.001000,0.001000
1019.365385,-0.016020,0.001000,0.001000,0.001000,0.001000,0.001000
1019.384615,-0.017358,0.001000,0.001000,0.001000,0.001000,0.001000
1019.403846,-0.018683,0.001000,0.001000,0.001000,0.001000,0.001000
1019.423077,-0.019992,0.001000,0.001000,0.001000,0.001000,0.001000
1019.442308,-0.021286,0.001000,0.001000,0.001000,0.001000,0.001000
1019.461538,-0.022562,0.001000,0.001000,0.001000,0.001000,0.001000
1019.480769,-0.023820,0.001000,0.001000,0.001000,0.001000,0.001000
1019.500000,-0.025059,0.001000,0.001000,0.001000,0.001000,0.001000
1019.519231,-0.026277,0.001000,0.001000,0.001000,0.001000,0.001000
1019.538462,-0.027475,0.001000,0.001000,0.001000,0.001000,0.001000
1019.557692,-0.028650,0.001000,0.001000,0.001000,0.001000,0.001000
1019.576923,-0.029802,0.001000,0.001000,0.001000,0.001000,0.001000
1019.596154,-0.030930,0.001000,0.001000,0.001000,0.001000,0.001000
1019.615385,-0.032033,0.001000,0.001000,0.001000,0.001000,0.001000
1019.634615,-0.033111,0.001000,0.001000,0.001000,0.001000,0.001000
1019.653846,-0.034161,0.001000,0.001000,0.001000,0.001000,0.001000
1019.673077,-0.035184,0.001000,0.001000,0.001000,0.001000,0.001000
1019.692308,-0.036179,0.001000,0.001000,0.001000,0.001000,0.001000
1019.711538,-0.037144,0.001000,0.001000,0.001000,0.001000,0.001000
1019.730769,-0.038080,0.001000,0.001000,0.001000,0.001000,0.001000
1019.750000,-0.038985,0.001000,0.001000,0.001000,0.001000,0.001000
1019.769231,-0.039858,0.001000,0.001000,0.001000,0.001000,0.001000
1019.788462,-0.040699,0.001000,0.001000,0.001000,0.001000,0.001000
1019.807692,-0.041508,0.001000,0.001000,0.001000,0.001000,0.001000
1019.826923,-0.042283,0.001000,0.001000,0.001000,0.001000,0.001000
1019.846154,-0.043023,0.001000,0.001000,0.001000,0.001000,0.001000
1019.865385,-0.043730,0.001000,0.001000,0.001000,0.001000,0.001000
1019.884615,-0.044400,0.001000,0.001000,0.001000,0.001000,0.001000
1019.903846,-0.045035,0.001000,0.001000,0.001000,0.001000,0.001000
1019.923077,-0.045634,0.001000,0.001000,0.001000,0.001000,0.001000
1019.942308,-0.046196,0.001000,0.001000,0.001000,0.001000,0.001000
1019.961538,-0.046720,0.001000,0.001000,0.001000,0.001000,0.001000
1019.980769,-0.047207,0.001000,0.001000,0.001000,0.001000,0.001000
1020.000000,-0.047656,0.001000,0.001000,0.001000,0.001000,0.001000
1020.019231,-0.048067,0.001000,0.001000,0.001000,0.001000,0.001000
1020.038462,-0.048438,0.001000,0.001000,0.001000,0.001000,0.001000
1020.057692,-0.048771,0.001000,0.001000,0.001000,0.001000,0.001000
1020.076923,-0.049064,0.001000,0.001000,0.001000,0.001000,0.001000
1020.096154,-0.049318,0.001000,0.001000,0.001000,0.001000,0.001000
1020.115385,-0.049532,0.001000,0.001000,0.001000,0.001000,0.001000
1020.134615,-0.049706,0.001000,0.001000,0.001000,0.001000,0.001000
1020.153846,-0.049839,0.001000,0.001000,0.001000,0.001000,0.001000
1020.173077,-0.049933,0.001000,0.001000,0.001000,0.001000,0.001000
1020.192308,-0.049986,0.001000,0.001000,0.001000,0.001000,0.001000
1020.211538,-0.049999,0.001000,0.001000,0.001000,0.001000,0.001000
1020.230769,-0.049972,0.001000,0.001000,0.001000,0.001000,0.001000
1020.250000,-0.049904,0.001000,0.001000,0.001000,0.001000,0.001000
1020.269231,-0.049797,0.001000,0.001000,0.001000,0.001000,0.001000
1020.288462,-0.049649,0.001000,0.001000,0.001000,0.001000,0.001000
1020.307692,-0.049461,0.001000,0.001000,0.001000,0.001000,0.001000
1020.326923,-0.049233,0.001000,0.001000,0.001000,0.001000,0.001000
1020.346154,-0.048965,0.001000,0.001000,0.001000,0.001000,0.001000
1020.365385,-0.048658,0.001000,0.001000,0.001000,0.001000,0.001000
1020.384615,-0.048311,0.001000,0.001000,0.001000,0.001000,0.001000
1020.403846,-0.047926,0.001000,0.001000,0.001000,0.001000,0.001000
1020.423077,-0.047502,0.001000,0.001000,0.001000,0.001000,0.001000
1020.442308,-0.047039,0.001000,0.001000,0.001000,0.001000,0.001000
1020.461538,-0.046539,0.001000,0.001000,0.001000,0.001000,0.001000
1020.480769,-0.046001,0.001000,0.001000,0.001000,0.001000,0.001000
1020.500000,-0.045426,0.001000,0.001000,0.001000,0.001000,0.001000
1020.519231,-0.044815,0.001000,0.001000,0.001000,0.001000,0.001000
1020.538462,-0.044167,0.001000,0.001000,0.001000,0.001000,0.001000
1020.557692,-0.043484,0.001000,0.001000,0.001000,0.001000,0.001000
1020.576923,-0.042765,0.001000,0.001000,0.001000,0.001000,0.001000
1020.596154,-0.042012,0.001000,0.001000,0.001000,0.001000,0.001000
1020.615385,-0.041226,0.001000,0.001000,0.001000,0.001000,0.001000
1020.634615,-0.040405,0.001000,0.001000,0.001000,0.001000,0.001000
1020.653846,-0.039553,0.001000,0.001000,0.001000,0.001000,0.001000
1020.673077,-0.038668,0.001000,0.001000,0.001000,0.001000,0.001000
1020.692308,-0.037752,0.001000,0.001000,0.001000,0.001000,0.001000
1020.711538,-0.036806,0.001000,0.001000,0.001000,0.001000,0.001000
1020.730769,-0.035830,0.001000,0.001000,0.001000,0.001000,0.001000
1020.750000,-0.034826,0.001000,0.001000,0.001000,0.001000,0.001000
1020.769231,-0.033793,0.001000,0.001000,0.001000,0.001000,0.001000
1020.788462,-0.032733,0.001000,0.001000,0.001000,0.001000,0.001000
1020.807692,-0.031646,0.001000,0.001000,0.001000,0.001000,0.001000
1020.826923,-0.030534,0.001000,0.001000,0.001000,0.001000,0.001000
1020.846154,-0.029397,0.001000,0.001000,0.001000,0.001000,0.001000
1020.865385,-0.028237,0.001000,0.001000,0.001000,0.001000,0.001000
1020.884615,-0.027054,0.001000,0.001000,0.001000,0.001000,0.001000
1020.903846,-0.025849,0.001000,0.001000,0.001000,0.001000,0.001000
1020.923077,-0.024623,0.001000,0.001000,0.001000,0.001000,0.001000
1020.942308,-0.023377,0.001000,0.001000,0.001000,0.001000,0.001000
1020.961538,-0.022113,0.001000,0.001000,0.001000,0.001000,0.001000
1020.980769,-0.020830,0.001000,0.001000,0.001000,0.001000,0.001000
1021.000000,-0.019531,0.001000,0.001000,0.001000,0.001000,0.001000
1021.019231,-0.018216,0.001000,0.001000,0.001000,0.001000,0.001000
1021.038462,-0.016886,0.001000,0.001000,0.001000,0.001000,0.001000
1021.057692,-0.015543,0.001000,0.001000,0.001000,0.001000,0.001000
1021.076923,-0.014187,0.001000,0.001000,0.001000,0.001000,0.001000
1021.096154,-0.012820,0.001000,0.001000,0.001000,0.001000,0.001000
1021.115385,-0.011442,0.001000,0.001000,0.001000,0.001000,0.001000
1021.134615,-0.010056,0.001000,0.001000,0.001000,0.001000,0.001000
1021.153846,-0.008661,0.001000,0.001000,0.001000,0.001000,0.001000
1021.173077,-0.007259,0.001000,0.001000,0.001000,0.001000,0.001000
1021.192308,-0.005851,0.001000,0.001000,0.001000,0.001000,0.001000
1021.211538,-0.004438,0.001000,0.001000,0.001000,0.001000,0.001000
1021.230769,-0.003022,0.001000,0.001000,0.001000,0.001000,0.001000
1021.250000,-0.001604,0.001000,0.001000,0.001000,0.001000,0.001000
1021.269231,-0.000184,0.001000,0.001000,0.001000,0.001000,0.001000
1021.288462,0.001236,0.001000,0.001000,0.001000,0.001000,0.001000
1021.307692,0.002655,0.001000,0.001000,0.001000,0.001000,0.001000
1021.326923,0.004072,0.001000,0.001000,0.001000,0.001000,0.001000
1021.346154,0.005485,0.001000,0.001000,0.001000,0.001000,0.001000
1021.365385,0.006894,0.001000,0.001000,0.001000,0.001000,0.001000
1021.384615,0.008298,0.001000,0.001000,0.001000,0.001000,0.001000
1021.403846,0.009695,0.001000,0.001000,0.001000,0.001000,0.001000
1021.423077,0.011084,0.001000,0.001000,0.001000,0.001000,0.001000
1021.442308,0.012464,0.001000,0.001000,0.001000,0.001000,0.001000
1021.461538,0.013834,0.001000,0.001000,0.001000,0.001000,0.001000
1021.480769,0.015193,0.001000,0.001000,0.001000,0.001000,0.001000
1021.500000,0.016539,0.001000,0.001000,0.001000,0.001000,0.001000
1021.519231,0.017873,0.001000,0.001000,0.001000,0.001000,0.001000
1021.538462,0.019192,0.001000,0.001000,0.001000,0.001000,0.001000
1021.557692,0.020495,0.001000,0.001000,0.001000,0.001000,0.001000
1021.576923,0.021782,0.001000,0.001000,0.001000,0.001000,0.001000
1021.596154,0.023051,0.001000,0.001000,0.001000,0.001000,0.001000
1021.615385,0.024302,0.001000,0.001000,0.001000,0.001000,0.001000
1021.634615,0.025533,0.001000,0.001000,0.001000,0.001000,0.001000
1021.653846,0.026743,0.001000,0.001000,0.001000,0.001000,0.001000
1021.673077,0.027932,0.001000,0.001000,0.001000,0.001000,0.001000
1021.692308,0.029099,0.001000,0.001000,0.001000,0.001000,0.001000
1021.711538,0.030242,0.001000,0.001000,0.001000,0.001000,0.001000
1021.730769,0.031360,0.001000,0.001000,0.001000,0.001000,0.001000
1021.750000,0.032454,0.001000,0.001000,0.001000,0.001000,0.001000
1021.769231,0.033521,0.001000,0.001000,0.001000,0.001000,0.001000
1021.788462,0.034561,0.001000,0.001000,0.001000,0.001000,0.001000
1021.807692,0.035573,0.001000,0.001000,0.001000,0.001000,0.001000
1021.826923,0.036556,0.001000,0.001000,0.001000,0.001000,0.001000
1021.846154,0.037510,0.001000,0.001000,0.001000,0.001000,0.001000
1021.865385,0.038434,0.001000,0.001000,0.001000,0.001000,0.001000
1021.884615,0.039327,0.001000,0.001000,0.001000,0.001000,0.001000
1021.903846,0.040188,0.001000,0.001000,0.001000,0.001000,0.001000
1021.923077,0.041016,0.001000,0.001000,0.001000,0.001000,0.001000
1021.942308,0.041812,0.001000,0.001000,0.001000,0.001000,0.001000
1021.961538,0.042573,0.001000,0.001000,0.001000,0.001000,0.001000
1021.980769,0.043301,0.001000,0.001000,0.001000,0.001000,0.001000
1022.000000,0.043993,0.001000,0.001000,0.001000,0.001000,0.001000
1022.019231,0.044650,0.001000,0.001000,0.001000,0.001000,0.001000
1022.038462,0.045271,0.001000,0.001000,0.001000,0.001000,0.001000
1022.057692,0.045856,0.001000,0.001000,0.001000,0.001000,0.001000
1022.076923,0.046403,0.001000,0.001000,0.001000,0.001000,0.001000
1022.096154,0.046913,0.001000,0.001000,0.001000,0.001000,0.001000
1022.115385,0.047386,0.001000,0.001000,0.001000,0.001000,0.001000
1022.134615,0.047820,0.001000,0.001000,0.001000,0.001000,0.001000
1022.153846,0.048215,0.001000,0.001000,0.001000,0.001000,0.001000
1022.173077,0.048572,0.001000,0.001000,0.001000,0.001000,0.001000
1022.192308,0.048889,0.001000,0.001000,0.001000,0.001000,0.001000
1022.211538,0.049167,0.001000,0.001000,0.001000,0.001000,0.001000
1022.230769,0.049405,0.001000,0.001000,0.001000,0.001000,0.001000
1022.250000,0.049604,0.001000,0.001000,0.001000,0.001000,0.001000
1022.269231,0.049762,0.001000,0.001000,0.001000,0.001000,0.001000
1022.288462,0.049880,0.001000,0.001000,0.001000,0.001000,0.001000
1022.307692,0.049958,0.001000,0.001000,0.001000,0.001000,0.001000
1022.326923,0.049996,0.001000,0.001000,0.001000,0.001000,0.001000
1022.346154,0.049994,0.001000,0.001000,0.001000,0.001000,0.001000
1022.365385,0.049951,0.001000,0.001000,0.001000,0.001000,0.001000
1022.384615,0.049867,0.001000,0.001000,0.001000,0.001000,0.001000
1022.403846,0.049744,0.001000,0.001000,0.001000,0.001000,0.001000
1022.423077,0.049581,0.001000,0.001000,0.001000,0.001000,0.001000
1022.442308,0.049377,0.001000,0.001000,0.001000,0.001000,0.001000
1022.461538,0.049134,0.001000,0.001000,0.001000,0.001000,0.001000
1022.480769,0.048851,0.001000,0.001000,0.001000,0.001000,0.001000
1022.500000,0.048528,0.001000,0.001000,0.001000,0.001000,0.001000
1022.519231,0.048167,0.001000,0.001000,0.001000,0.001000,0.001000
1022.538462,0.047766,0.001000,0.001000,0.001000,0.001000,0.001000
1022.557692,0.047327,0.001000,0.001000,0.001000,0.001000,0.001000
1022.576923,0.046850,0.001000,0.001000,0.001000,0.001000,0.001000
1022.596154,0.046335,0.001000,0.001000,0.001000,0.001000,0.001000
1022.615385,0.045783,0.001000,0.001000,0.001000,0.001000,0.001000
1022.634615,0.045194,0.001000,0.001000,0.001000,0.001000,0.001000
1022.653846,0.044568,0.001000,0.001000,0.001000,0.001000,0.001000
1022.673077,0.043907,0.001000,0.001000,0.001000,0.001000,0.001000
1022.692308,0.043210,0.001000,0.001000,0.001000,0.001000,0.001000
1022.711538,0.042478,0.001000,0.001000,0.001000,0.001000,0.001000
1022.730769,0.041712,0.001000,0.001000,0.001000,0.001000,0.001000
1022.750000,0.040912,0.001000,0.001000,0.001000,0.001000,0.001000
1022.769231,0.040079,0.001000,0.001000,0.001000,0.001000,0.001000
1022.788462,0.039214,0.001000,0.001000,0.001000,0.001000,0.001000
1022.807692,0.038317,0.001000,0.001000,0.001000,0.001000,0.001000
1022.826923,0.037390,0.001000,0.001000,0.001000,0.001000,0.001000
1022.846154,0.036432,0.001000,0.001000,0.001000,0.001000,0.001000
1022.865385,0.035445,0.001000,0.001000,0.001000,0.001000,0.001000
1022.884615,0.034429,0.001000,0.001000,0.001000,0.001000,0.001000
1022.903846,0.033386,0.001000,0.001000,0.001000,0.001000,0.001000
1022.923077,0.032315,0.001000,0.001000,0.001000,0.001000,0.001000
1022.942308,0.031219,0.001000,0.001000,0.001000,0.001000,0.001000
1022.961538,0.030097,0.001000,0.001000,0.001000,0.001000,0.001000
1022.980769,0.028951,0.001000,0.001000,0.001000,0.001000,0.001000
1023.000000,0.027782,0.001000,0.001000,0.001000,0.001000,0.001000
1023.019231,0.026590,0.001000,0.001000,0.001000,0.001000,0.001000
1023.038462,0.025377,0.001000,0.001000,0.001000,0.001000,0.001000
1023.057692,0.024143,0.001000,0.001000,0.001000,0.001000,0.001000
1023.076923,0.022890,0.001000,0.001000,0.001000,0.001000,0.001000
1023.096154,0.021618,0.001000,0.001000,0.001000,0.001000,0.001000
1023.115385,0.020329,0.001000,0.001000,0.001000,0.001000,0.001000
1023.134615,0.019024,0.001000,0.001000,0.001000,0.001000,0.001000
1023.153846,0.017703,0.001000,0.001000,0.001000,0.001000,0.001000
1023.173077,0.016368,0.001000,0.001000,0.001000,0.001000,0.001000
1023.192308,0.015020,0.001000,0.001000,0.001000,0.001000,0.001000
1023.211538,0.013659,0.001000,0.001000,0.001000,0.001000,0.001000
1023.230769,0.012288,0.001000,0.001000,0.001000,0.001000,0.001000
1023.250000,0.010907,0.001000,0.001000,0.001000,0.001000,0.001000
1023.269231,0.009517,0.001000,0.001000,0.001000,0.001000,0.001000
1023.288462,0.008119,0.001000,0.001000,0.001000,0.001000,0.001000
1023.307692,0.006714,0.001000,0.001000,0.001000,0.001000,0.001000
1023.326923,0.005305,0.001000,0.001000,0.001000,0.001000,0.001000
1023.346154,0.003891,0.001000,0.001000,0.001000,0.001000,0.001000
1023.365385,0.002474,0.001000,0.001000,0.001000,0.001000,0.001000
1023.384615,0.001054,0.001000,0.001000,0.001000,0.001000,0.001000
1023.403846,-0.000366,0.001000,0.001000,0.001000,0.001000,0.001000
1023.423077,-0.001785,0.001000,0.001000,0.001000,0.001000,0.001000
1023.442308,-0.003204,0.001000,0.001000,0.001000,0.001000,0.001000
1023.461538,-0.004619,0.001000,0.001000,0.001000,0.001000,0.001000
1023.480769,-0.006031,0.001000,0.001000,0.001000,0.001000,0.001000
1023.500000,-0.007438,0.001000,0.001000,0.001000,0.001000,0.001000
1023.519231,-0.008839,0.001000,0.001000,0.001000,0.001000,0.001000
1023.538462,-0.010233,0.001000,0.001000,0.001000,0.001000,0.001000
1023.557692,-0.011619,0.001000,0.001000,0.001000,0.001000,0.001000
1023.576923,-0.012995,0.001000,0.001000,0.001000,0.001000,0.001000
1023.596154,-0.014361,0.001000,0.001000,0.001000,0.001000,0.001000
1023.615385,-0.015716,0.001000,0.001000,0.001000,0.001000,0.001000
1023.634615,-0.017057,0.001000,0.001000,0.001000,0.001000,0.001000
1023.653846,-0.018385,0.001000,0.001000,0.001000,0.001000,0.001000
1023.673077,-0.019698,0.001000,0.001000,0.001000,0.001000,0.001000
1023.692308,-0.020995,0.001000,0.001000,0.001000,0.001000,0.001000
1023.711538,-0.022275,0.001000,0.001000,0.001000,0.001000,0.001000
1023.730769,-0.023538,0.001000,0.001000,0.001000,0.001000,0.001000
1023.750000,-0.024781,0.001000,0.001000,0.001000,0.001000,0.001000
1023.769231,-0.026004,0.001000,0.001000,0.001000,0.001000,0.001000
1023.788462,-0.027206,0.001000,0.001000,0.001000,0.001000,0.001000
1023.807692,-0.028387,0.001000,0.001000,0.001000,0.001000,0.001000
1023.826923,-0.029544,0.001000,0.001000,0.001000,0.001000,0.001000
1023.846154,-0.030678,0.001000,0.001000,0.001000,0.001000,0.001000
1023.865385,-0.031786,0.001000,0.001000,0.001000,0.001000,0.001000
1023.884615,-0.032870,0.001000,0.001000,0.001000,0.001000,0.001000
1023.903846,-0.033926,0.001000,0.001000,0.001000,0.001000,0.001000
1023.923077,-0.034956,0.001000,0.001000,0.001000,0.001000,0.001000
1023.942308,-0.035957,0.001000,0.001000,0.001000,0.001000,0.001000
1023.961538,-0.036929,0.001000,0.001000,0.001000,0.001000,0.001000
1023.980769,-0.037871,0.001000,0.001000,0.001000,0.001000,0.001000
1024.000000,-0.038783,0.001000,0.001000,0.001000,0.001000,0.001000
1024.019231,-0.039664,0.001000,0.001000,0.001000,0.001000,0.001000
1024.038462,-0.040512,0.001000,0.001000,0.001000,0.001000,0.001000
1024.057692,-0.041328,0.001000,0.001000,0.001000,0.001000,0.001000
1024.076923,-0.042111,0.001000,0.001000,0.001000,0.001000,0.001000
1024.096154,-0.042859,0.001000,0.001000,0.001000,0.001000,0.001000
1024.115385,-0.043573,0.001000,0.001000,0.001000,0.001000,0.001000
1024.134615,-0.044252,0.001000,0.001000,0.001000,0.001000,0.001000
1024.153846,-0.044895,0.001000,0.001000,0.001000,0.001000,0.001000
1024.173077,-0.045502,0.001000,0.001000,0.001000,0.001000,0.001000
1024.192308,-0.046072,0.001000,0.001000,0.001000,0.001000,0.001000
1024.211538,-0.046605,0.001000,0.001000,0.001000,0.001000,0.001000
1024.230769,-0.047101,0.001000,0.001000,0.001000,0.001000,0.001000
1024.250000,-0.047558,0.001000,0.001000,0.001000,0.001000,0.001000
1024.269231,-0.047977,0.001000,0.001000,0.001000,0.001000,0.001000
1024.288462,-0.048358,0.001000,0.001000,0.001000,0.001000,0.001000
1024.307692,-0.048699,0.001000,0.001000,0.001000,0.001000,0.001000
1024.326923,-0.049001,0.001000,0.001000,0.001000,0.001000,0.001000
1024.346154,-0.049264,0.001000,0.001000,0.001000,0.001000,0.001000
1024.365385,-0.049487,0.001000,0.001000,0.001000,0.001000,0.001000
1024.384615,-0.049670,0.001000,0.001000,0.001000,0.001000,0.001000
1024.403846,-0.049813,0.001000,0.001000,0.001000,0.001000,0.001000
1024.423077,-0.049915,0.001000,0.001000,0.001000,0.001000,0.001000
1024.442308,-0.049978,0.001000,0.001000,0.001000,0.001000,0.001000
1024.461538,-0.050000,0.001000,0.001000,0.001000,0.001000,0.001000
1024.480769,-0.049982,0.001000,0.001000,0.001000,0.001000,0.001000
1024.500000,-0.049923,0.001000,0.001000,0.001000,0.001000,0.001000
1024.519231,-0.049824,0.001000,0.001000,0.001000,0.001000,0.001000
1024.538462,-0.049686,0.001000,0.001000,0.001000,0.001000,0.001000
1024.557692,-0.049506,0.001000,0.001000,0.001000,0.001000,0.001000
1024.576923,-0.049288,0.001000,0.001000,0.001000,0.001000,0.001000
1024.596154,-0.049029,0.001000,0.001000,0.001000,0.001000,0.001000
1024.615385,-0.048731,0.001000,0.001000,0.001000,0.001000,0.001000
1024.634615,-0.048393,0.001000,0.001000,0.001000,0.001000,0.001000
1024.653846,-0.048016,0.001000,0.001000,0.001000,0.001000,0.001000
1024.673077,-0.047601,0.001000,0.001000,0.001000,0.001000,0.001000
1024.692308,-0.047147,0.001000,0.001000,0.001000,0.001000,0.001000
1024.711538,-0.046655,0.001000,0.001000,0.001000,0.001000,0.001000
1024.730769,-0.046126,0.001000,0.001000,0.001000,0.001000,0.001000
1024.750000,-0.045560,0.001000,0.001000,0.001000,0.001000,0.001000
1024.769231,-0.044956,0.001000,0.001000,0.001000,0.001000,0.001000
1024.788462,-0.044317,0.001000,0.001000,0.001000,0.001000,0.001000
1024.807692,-0.043641,0.001000,0.001000,0.001000,0.001000,0.001000
1024.826923,-0.042931,0.001000,0.001000,0.001000,0.001000,0.001000
1024.846154,-0.042185,0.001000,0.001000,0.001000,0.001000,0.001000
1024.865385,-0.041406,0.001000,0.001000,0.001000,0.001000,0.001000
1024.884615,-0.040594,0.001000,0.001000,0.001000,0.001000,0.001000
1024.903846,-0.039748,0.001000,0.001000,0.001000,0.001000,0.001000
1024.923077,-0.038871,0.001000,0.001000,0.001000,0.001000,0.001000
1024.942308,-0.037962,0.001000,0.001000,0.001000,0.001000,0.001000
1024.961538,-0.037023,0.001000,0.001000,0.001000,0.001000,0.001000
1024.980769,-0.036053,0.001000,0.001000,0.001000,0.001000,0.001000
1025.000000,-0.035055,0.001000,0.001000,0.001000,0.001000,0.001000
1025.019231,-0.034028,0.001000,0.001000,0.001000,0.001000,0.001000
1025.038462,-0.032974,0.001000,0.001000,0.001000,0.001000,0.001000
1025.057692,-0.031894,0.001000,0.001000,0.001000,0.001000,0.001000
1025.076923,-0.030787,0.001000,0.001000,0.001000,0.001000,0.001000
1025.096154,-0.029656,0.001000,0.001000,0.001000,0.001000,0.001000
1025.115385,-0.028501,0.001000,0.001000,0.001000,0.001000,0.001000
1025.134615,-0.027323,0.001000,0.001000,0.001000,0.001000,0.001000
1025.153846,-0.026123,0.001000,0.001000,0.001000,0.001000,0.001000
1025.173077,-0.024902,0.001000,0.001000,0.001000,0.001000,0.001000
1025.192308,-0.023660,0.001000,0.001000,0.001000,0.001000,0.001000
1025.211538,-0.022400,0.001000,0.001000,0.001000,0.001000,0.001000
1025.230769,-0.021121,0.001000,0.001000,0.001000,0.001000,0.001000
1025.250000,-0.019826,0.001000,0.001000,0.001000,0.001000,0.001000
1025.269231,-0.018514,0.001000,0.001000,0.001000,0.001000,0.001000
1025.288462,-0.017188,0.001000,0.001000,0.001000,0.001000,0.001000
1025.307692,-0.015848,0.001000,0.001000,0.001000,0.001000,0.001000
1025.326923,-0.014495,0.001000,0.001000,0.001000,0.001000,0.001000
1025.346154,-0.013130,0.001000,0.001000,0.001000,0.001000,0.001000
1025.365385,-0.011754,0.001000,0.001000,0.001000,0.001000,0.001000
1025.384615,-0.010370,0.001000,0.001000,0.001000,0.001000,0.001000
1025.403846,-0.008976,0.001000,0.001000,0.001000,0.001000,0.001000
1025.423077,-0.007576,0.001000,0.001000,0.001000,0.001000,0.001000
1025.442308,-0.006169,0.001000,0.001000,0.001000,0.001000,0.001000
1025.461538,-0.004758,0.001000,0.001000,0.001000,0.001000,0.001000
1025.480769,-0.003343,0.001000,0.001000,0.001000,0.001000,0.001000
1025.500000,-0.001924,0.001000,0.001000,0.001000,0.001000,0.001000
1025.519231,-0.000505,0.001000,0.001000,0.001000,0.001000,0.001000
1025.538462,0.000915,0.001000,0.001000,0.001000,0.001000,0.001000
1025.557692,0.002334,0.001000,0.001000,0.001000,0.001000,0.001000
1025.576923,0.003752,0.001000,0.001000,0.001000,0.001000,0.001000
1025.596154,0.005166,0.001000,0.001000,0.001000,0.001000,0.001000
1025.615385,0.006576,0.001000,0.001000,0.001000,0.001000,0.001000
1025.634615,0.007981,0.001000,0.001000,0.001000,0.001000,0.001000
1025.653846,0.009380,0.001000,0.001000,0.001000,0.001000,0.001000
1025.673077,0.010771,0.001000,0.001000,0.001000,0.001000,0.001000
1025.692308,0.012153,0.001000,0.001000,0.001000,0.001000,0.001000
1025.711538,0.013525,0.001000,0.001000,0.001000,0.001000,0.001000
1025.730769,0.014887,0.001000,0.001000,0.001000,0.001000,0.001000
1025.750000,0.016236,0.001000,0.001000,0.001000,0.001000,0.001000
1025.769231,0.017573,0.001000,0.001000,0.001000,0.001000,0.001000
1025.788462,0.018895,0.001000,0.001000,0.001000,0.001000,0.001000
1025.807692,0.020202,0.001000,0.001000,0.001000,0.001000,0.001000
1025.826923,0.021493,0.001000,0.001000,0.001000,0.001000,0.001000
1025.846154,0.022766,0.001000,0.001000,0.001000,0.001000,0.001000
1025.865385,0.024021,0.001000,0.001000,0.001000,0.001000,0.001000
1025.884615,0.025257,0.001000,0.001000,0.001000,0.001000,0.001000
1025.903846,0.026472,0.001000,0.001000,0.001000,0.001000,0.001000
1025.923077,0.027666,0.001000,0.001000,0.001000,0.001000,0.001000
1025.942308,0.028837,0.001000,0.001000,0.001000,0.001000,0.001000
1025.961538,0.029986,0.001000,0.001000,0.001000,0.001000,0.001000
1025.980769,0.031110,0.001000,0.001000,0.001000,0.001000,0.001000
1026.000000,0.032209,0.001000,0.001000,0.001000,0.001000,0.001000
1026.019231,0.033282,0.001000,0.001000,0.001000,0.001000,0.001000
1026.038462,0.034328,0.001000,0.001000,0.001000,0.001000,0.001000
1026.057692,0.035347,0.001000,0.001000,0.001000,0.001000,0.001000
1026.076923,0.036337,0.001000,0.001000,0.001000,0.001000,0.001000
1026.096154,0.037297,0.001000,0.001000,0.001000,0.001000,0.001000
1026.115385,0.038228,0.001000,0.001000,0.001000,0.001000,0.001000
1026.134615,0.039128,0.001000,0.001000,0.001000,0.001000,0.001000
1026.153846,0.039996,0.001000,0.001000,0.001000,0.001000,0.001000
1026.173077,0.040832,0.001000,0.001000,0.001000,0.001000,0.001000
1026.192308,0.041635,0.001000,0.001000,0.001000,0.001000,0.001000
1026.211538,0.042404,0.001000,0.001000,0.001000,0.001000,0.001000
1026.230769,0.043140,0.001000,0.001000,0.001000,0.001000,0.001000
1026.250000,0.043840,0.001000,0.001000,0.001000,0.001000,0.001000
1026.269231,0.044505,0.001000,0.001000,0.001000,0.001000,0.001000
1026.288462,0.045134,0.001000,0.001000,0.001000,0.001000,0.001000
1026.307692,0.045727,0.001000,0.001000,0.001000,0.001000,0.001000
1026.326923,0.046283,0.001000,0.001000,0.001000,0.001000,0.001000
1026.346154,0.046802,0.001000,0.001000,0.001000,0.001000,0.001000
1026.365385,0.047282,0.001000,0.001000,0.001000,0.001000,0.001000
1026.384615,0.047725,0.001000,0.001000,0.001000,0.001000,0.001000
1026.403846,0.048129,0.001000,0.001000,0.001000,0.001000,0.001000
1026.423077,0.048495,0.001000,0.001000,0.001000,0.001000,0.001000
1026.442308,0.048821,0.001000,0.001000,0.001000,0.001000,0.001000
1026.461538,0.049108,0.001000,0.001000,0.001000,0.001000,0.001000
1026.480769,0.049355,0.001000,0.001000,0.001000,0.001000,0.001000
1026.500000,0.049562,0.001000,0.001000,0.001000,0.001000,0.001000
1026.519231,0.049730,0.001000,0.001000,0.001000,0.001000,0.001000
1026.538462,0.049857,0.001000,0.001000,0.001000,0.001000,0.001000
1026.557692,0.049944,0.001000,0.001000,0.001000,0.001000,0.001000
1026.576923,0.049991,0.001000,0.001000,0.001000,0.001000,0.001000
1026.596154,0.049998,0.001000,0.001000,0.001000,0.001000,0.001000
1026.615385,0.049964,0.001000,0.001000,0.001000,0.001000,0.001000
1026.634615,0.049890,0.001000,0.001000,0.001000,0.001000,0.001000
1026.653846,0.049775,0.001000,0.001000,0.001000,0.001000,0.001000
1026.673077,0.049621,0.001000,0.001000,0.001000,0.001000,0.001000
1026.692308,0.049426,0.001000,0.001000,0.001000,0.001000,0.001000
1026.711538,0.049192,0.001000,0.001000,0.001000,0.001000,0.001000
1026.730769,0.048918,0.001000,0.001000,0.001000,0.001000,0.001000
1026.750000,0.048605,0.001000,0.001000,0.001000,0.001000,0.001000
1026.769231,0.048252,0.001000,0.001000,0.001000,0.001000,0.001000
1026.788462,0.047860,0.001000,0.001000,0.001000,0.001000,0.001000
1026.807692,0.047430,0.001000,0.001000,0.001000,0.001000,0.001000
1026.826923,0.046961,0.001000,0.001000,0.001000,0.001000,0.001000
1026.846154,0.046455,0.001000,0.001000,0.001000,0.001000,0.001000
1026.865385,0.045911,0.001000,0.001000,0.001000,0.001000,0.001000
1026.884615,0.045330,0.001000,0.001000,0.001000,0.001000,0.001000
1026.903846,0.044713,0.001000,0.001000,0.001000,0.001000,0.001000
1026.923077,0.044059,0.001000,0.001000,0.001000,0.001000,0.001000
1026.942308,0.043370,0.001000,0.001000,0.001000,0.001000,0.001000
1026.961538,0.042646,0.001000,0.001000,0.001000,0.001000,0.001000
1026.980769,0.041888,0.001000,0.001000,0.001000,0.001000,0.001000
1027.000000,0.041096,0.001000,0.001000,0.001000,0.001000,0.001000
1027.019231,0.040270,0.001000,0.001000,0.001000,0.001000,0.001000
1027.038462,0.039412,0.001000,0.001000,0.001000,0.001000,0.001000
1027.057692,0.038523,0.001000,0.001000,0.001000,0.001000,0.001000
1027.076923,0.037602,0.001000,0.001000,0.001000,0.001000,0.001000
1027.096154,0.036651,0.001000,0.001000,0.001000,0.001000,0.001000
1027.115385,0.035670,0.001000,0.001000,0.001000,0.001000,0.001000
1027.134615,0.034661,0.001000,0.001000,0.001000,0.001000,0.001000
1027.153846,0.033624,0.001000,0.001000,0.001000,0.001000,0.001000
1027.173077,0.032559,0.001000,0.001000,0.001000,0.001000,0.001000
1027.192308,0.031469,0.001000,0.001000,0.001000,0.001000,0.001000
1027.211538,0.030352,0.001000,0.001000,0.001000,0.001000,0.001000
1027.230769,0.029212,0.001000,0.001000,0.001000,0.001000,0.001000
1027.250000,0.028048,0.001000,0.001000,0.001000,0.001000,0.001000
1027.269231,0.026861,0.001000,0.001000,0.001000,0.001000,0.001000
1027.288462,0.025653,0.001000,0.001000,0.001000,0.001000,0.001000
1027.307692,0.024423,0.001000,0.001000,0.001000,0.001000,0.001000
1027.326923,0.023175,0.001000,0.001000,0.001000,0.001000,0.001000
1027.346154,0.021907,0.001000,0.001000,0.001000,0.001000,0.001000
1027.365385,0.020622,0.001000,0.001000,0.001000,0.001000,0.001000
1027.384615,0.019320,0.001000,0.001000,0.001000,0.001000,0.001000
1027.403846,0.018003,0.001000,0.001000,0.001000,0.001000,0.001000
1027.423077,0.016671,0.001000,0.001000,0.001000,0.001000,0.001000
1027.442308,0.015325,0.001000,0.001000,0.001000,0.001000,0.001000
1027.461538,0.013968,0.001000,0.001000,0.001000,0.001000,0.001000
1027.480769,0.012599,0.001000,0.001000,0.001000,0.001000,0.001000
1027.500000,0.011220,0.001000,0.001000,0.001000,0.001000,0.001000
1027.519231,0.009831,0.001000,0.001000,0.001000,0.001000,0.001000
1027.538462,0.008435,0.001000,0.001000,0.001000,0.001000,0.001000
1027.557692,0.007032,0.001000,0.001000,0.001000,0.001000,0.001000
1027.576923,0.005624,0.001000,0.001000,0.001000,0.001000,0.001000
1027.596154,0.004210,0.001000,0.001000,0.001000,0.001000,0.001000
1027.615385,0.002794,0.001000,0.001000,0.001000,0.001000,0.001000
1027.634615,0.001375,0.001000,0.001000,0.001000,0.001000,0.001000
1027.653846,-0.000045,0.001000,0.001000,0.001000,0.001000,0.001000
1027.673077,-0.001465,0.001000,0.001000,0.001000,0.001000,0.001000
1027.692308,-0.002883,0.001000,0.001000,0.001000,0.001000,0.001000
1027.711538,-0.004300,0.001000,0.001000,0.001000,0.001000,0.001000
1027.730769,-0.005713,0.001000,0.001000,0.001000,0.001000,0.001000
1027.750000,-0.007121,0.001000,0.001000,0.001000,0.001000,0.001000
1027.769231,-0.008523,0.001000,0.001000,0.001000,0.001000,0.001000
1027.788462,-0.009919,0.001000,0.001000,0.001000,0.001000,0.001000
1027.807692,-0.011307,0.001000,0.001000,0.001000,0.001000,0.001000
1027.826923,-0.012685,0.001000,0.001000,0.001000,0.001000,0.001000
1027.846154,-0.014054,0.001000,0.001000,0.001000,0.001000,0.001000
1027.865385,-0.015411,0.001000,0.001000,0.001000,0.001000,0.001000
1027.884615,-0.016755,0.001000,0.001000,0.001000,0.001000,0.001000
1027.903846,-0.018086,0.001000,0.001000,0.001000,0.001000,0.001000
1027.923077,-0.019403,0.001000,0.001000,0.001000,0.001000,0.001000
1027.942308,-0.020704,0.001000,0.001000,0.001000,0.001000,0.001000
1027.961538,-0.021988,0.001000,0.001000,0.001000,0.001000,0.001000
1027.980769,-0.023254,0.001000,0.001000,0.001000,0.001000,0.001000
1028.000000,-0.024502,0.001000,0.001000,0.001000,0.001000,0.001000
1028.019231,-0.025729,0.001000,0.001000,0.001000,0.001000,0.001000
1028.038462,-0.026937,0.001000,0.001000,0.001000,0.001000,0.001000
1028.057692,-0.028122,0.001000,0.001000,0.001000,0.001000,0.001000
1028.076923,-0.029285,0.001000,0.001000,0.001000,0.001000,0.001000
1028.096154,-0.030424,0.001000,0.001000,0.001000,0.001000,0.001000
1028.115385,-0.031538,0.001000,0.001000,0.001000,0.001000,0.001000
1028.134615,-0.032627,0.001000,0.001000,0.001000,0.001000,0.001000
1028.153846,-0.033690,0.001000,0.001000,0.001000,0.001000,0.001000
1028.173077,-0.034726,0.001000,0.001000,0.001000,0.001000,0.001000
1028.192308,-0.035733,0.001000,0.001000,0.001000,0.001000,0.001000
1028.211538,-0.036712,0.001000,0.001000,0.001000,0.001000,0.001000
1028.230769,-0.037661,0.001000,0.001000,0.001000,0.001000,0.001000
1028.250000,-0.038580,0.001000,0.001000,0.001000,0.001000,0.001000
1028.269231,-0.039467,0.001000,0.001000,0.001000,0.001000,0.001000
1028.288462,-0.040323,0.001000,0.001000,0.001000,0.001000,0.001000
1028.307692,-0.041147,0.001000,0.001000,0.001000,0.001000,0.001000
1028.326923,-0.041937,0.001000,0.001000,0.001000,0.001000,0.001000
1028.346154,-0.042693,0.001000,0.001000,0.001000,0.001000,0.001000
1028.365385,-0.043415,0.001000,0.001000,0.001000,0.001000,0.001000
1028.384615,-0.044102,0.001000,0.001000,0.001000,0.001000,0.001000
1028.403846,-0.044753,0.001000,0.001000,0.001000,0.001000,0.001000
1028.423077,-0.045368,0.001000,0.001000,0.001000,0.001000,0.001000
1028.442308,-0.045947,0.001000,0.001000,0.001000,0.001000,0.001000
1028.461538,-0.046488,0.001000,0.001000,0.001000,0.001000,0.001000
1028.480769,-0.046992,0.001000,0.001000,0.001000,0.001000,0.001000
1028.500000,-0.047458,0.001000,0.001000,0.001000,0.001000,0.001000
1028.519231,-0.047886,0.001000,0.001000,0.001000,0.001000,0.001000
1028.538462,-0.048275,0.001000,0.001000,0.001000,0.001000,0.001000
1028.557692,-0.048625,0.001000,0.001000,0.001000,0.001000,0.001000
1028.576923,-0.048936,0.001000,0.001000,0.001000,0.001000,0.001000
1028.596154,-0.049208,0.001000,0.001000,0.001000,0.001000,0.001000
1028.615385,-0.049440,0.001000,0.001000,0.001000,0.001000,0.001000
1028.634615,-0.049632,0.001000,0.001000,0.001000,0.001000,0.001000
1028.653846,-0.049784,0.001000,0.001000,0.001000,0.001000,0.001000
1028.673077,-0.049896,0.001000,0.001000,0.001000,0.001000,0.001000
1028.692308,-0.049967,0.001000,0.001000,0.001000,0.001000,0.001000
1028.711538,-0.049998,0.001000,0.001000,0.001000,0.001000,0.001000
1028.730769,-0.049989,0.001000,0.001000,0.001000,0.001000,0.001000
1028.750000,-0.049940,0.001000,0.001000,0.001000,0.001000,0.001000
1028.769231,-0.049850,0.001000,0.001000,0.001000,0.001000,0.001000
1028.788462,-0.049720,0.001000,0.001000,0.001000,0.001000,0.001000
1028.807692,-0.049550,0.001000,0.001000,0.001000,0.001000,0.001000
1028.826923,-0.049340,0.001000,0.001000,0.001000,0.001000,0.001000
1028.846154,-0.049091,0.001000,0.001000,0.001000,0.001000,0.001000
1028.865385,-0.048801,0.001000,0.001000,0.001000,0.001000,0.001000
1028.884615,-0.048473,0.001000,0.001000,0.001000,0.001000,0.001000
1028.903846,-0.048105,0.001000,0.001000,0.001000,0.001000,0.001000
1028.923077,-0.047698,0.001000,0.001000,0.001000,0.001000,0.001000
1028.942308,-0.047253,0.001000,0.001000,0.001000,0.001000,0.001000
1028.961538,-0.046770,0.001000,0.001000,0.001000,0.001000,0.001000
1028.980769,-0.046249,0.001000,0.001000,0.001000,0.001000,0.001000
1029.000000,-0.045691,0.001000,0.001000,0.001000,0.001000,0.001000
1029.019231,-0.045096,0.001000,0.001000,0.001000,0.001000,0.001000
1029.038462,-0.044464,0.001000,0.001000,0.001000,0.001000,0.001000
1029.057692,-0.043797,0.001000,0.001000,0.001000,0.001000,0.001000
1029.076923,-0.043094,0.001000,0.001000,0.001000,0.001000,0.001000
1029.096154,-0.042357,0.001000,0.001000,0.001000,0.001000,0.001000
1029.115385,-0.041585,0.001000,0.001000,0.001000,0.001000,0.001000
1029.134615,-0.040780,0.001000,0.001000,0.001000,0.001000,0.001000
1029.153846,-0.039942,0.001000,0.001000,0.001000,0.001000,0.001000
1029.173077,-0.039072,0.001000,0.001000,0.001000,0.001000,0.001000
1029.192308,-0.038170,0.001000,0.001000,0.001000,0.001000,0.001000
1029.211538,-0.037238,0.001000,0.001000,0.001000,0.001000,0.001000
1029.230769,-0.036275,0.001000,0.001000,0.001000,0.001000,0.001000
1029.250000,-0.035283,0.001000,0.001000,0.001000,0.001000,0.001000
1029.269231,-0.034263,0.001000,0.001000,0.001000,0.001000,0.001000
1029.288462,-0.033215,0.001000,0.001000,0.001000,0.001000,0.001000
1029.307692,-0.032140,0.001000,0.001000,0.001000,0.001000,0.001000
1029.326923,-0.031040,0.001000,0.001000,0.001000,0.001000,0.001000
1029.346154,-0.029914,0.001000,0.001000,0.001000,0.001000,0.001000
1029.365385,-0.028764,0.001000,0.001000,0.001000,0.001000,0.001000
1029.384615,-0.027591,0.001000,0.001000,0.001000,0.001000,0.001000
1029.403846,-0.026396,0.001000,0.001000,0.001000,0.001000,0.001000
1029.423077,-0.025179,0.001000,0.001000,0.001000,0.001000,0.001000
1029.442308,-0.023942,0.001000,0.001000,0.001000,0.001000,0.001000
1029.461538,-0.022686,0.001000,0.001000,0.001000,0.001000,0.001000
1029.480769,-0.021412,0.001000,0.001000,0.001000,0.001000,0.001000
1029.500000,-0.020120,0.001000,0.001000,0.001000,0.001000,0.001000
1029.519231,-0.018812,0.001000,0.001000,0.001000,0.001000,0.001000
1029.538462,-0.017489,0.001000,0.001000,0.001000,0.001000,0.001000
1029.557692,-0.016152,0.001000,0.001000,0.001000,0.001000,0.001000
1029.576923,-0.014801,0.001000,0.001000,0.001000,0.001000,0.001000
1029.596154,-0.013439,0.001000,0.001000,0.001000,0.001000,0.001000
1029.615385,-0.012066,0.001000,0.001000,0.001000,0.001000,0.001000
1029.634615,-0.010683,0.001000,0.001000,0.001000,0.001000,0.001000
1029.653846,-0.009292,0.001000,0.001000,0.001000,0.001000,0.001000
1029.673077,-0.007893,0.001000,0.001000,0.001000,0.001000,0.001000
1029.692308,-0.006488,0.001000,0.001000,0.001000,0.001000,0.001000
1029.711538,-0.005077,0.001000,0.001000,0.001000,0.001000,0.001000
1029.730769,-0.003663,0.001000,0.001000,0.001000,0.001000,0.001000
1029.750000,-0.002245,0.001000,0.001000,0.001000,0.001000,0.001000
1029.769231,-0.000826,0.001000,0.001000,0.001000,0.001000,0.001000
1029.788462,0.000594,0.001000,0.001000,0.001000,0.001000,0.001000
1029.807692,0.002014,0.001000,0.001000,0.001000,0.001000,0.001000
1029.826923,0.003432,0.001000,0.001000,0.001000,0.001000,0.001000
1029.846154,0.004847,0.001000,0.001000,0.001000,0.001000,0.001000
1029.865385,0.006258,0.001000,0.001000,0.001000,0.001000,0.001000
1029.884615,0.007665,0.001000,0.001000,0.001000,0.001000,0.001000
1029.903846,0.009065,0.001000,0.001000,0.001000,0.001000,0.001000
1029.923077,0.010457,0.001000,0.001000,0.001000,0.001000,0.001000
1029.942308,0.011842,0.001000,0.001000,0.001000,0.001000,0.001000
1029.961538,0.013216,0.001000,0.001000,0.001000,0.001000,0.001000
1029.980769,0.014580,0.001000,0.001000,0.001000,0.001000,0.001000
1030.000000,0.000000,0.001000,0.001000,0.001000,0.001000,0.001000
1030.019231,0.001451,0.001000,0.001000,0.001000,0.001000,0.001000
1030.038462,0.002900,0.001000,0.001000,0.001000,0.001000,0.001000
1030.057692,0.004347,0.001000,0.001000,0.001000,0.001000,0.001000
1030.076923,0.005790,0.001000,0.001000,0.001000,0.001000,0.001000
1030.096154,0.007228,0.001000,0.001000,0.001000,0.001000,0.001000
1030.115385,0.008661,0.001000,0.001000,0.001000,0.001000,0.001000
1030.134615,0.010086,0.001000,0.001000,0.001000,0.001000,0.001000
1030.153846,0.011502,0.001000,0.001000,0.001000,0.001000,0.001000
1030.173077,0.012909,0.001000,0.001000,0.001000,0.001000,0.001000
1030.192308,0.014305,0.001000,0.001000,0.001000,0.001000,0.001000
1030.211538,0.015689,0.001000,0.001000,0.001000,0.001000,0.001000
1030.230769,0.017059,0.001000,0.001000,0.001000,0.001000,0.001000
1030.250000,0.018416,0.001000,0.001000,0.001000,0.001000,0.001000
1030.269231,0.019757,0.001000,0.001000,0.001000,0.001000,0.001000
1030.288462,0.021081,0.001000,0.001000,0.001000,0.001000,0.001000
1030.307692,0.022387,0.001000,0.001000,0.001000,0.001000,0.001000
1030.326923,0.023675,0.001000,0.001000,0.001000,0.001000,0.001000
1030.346154,0.024943,0.001000,0.001000,0.001000,0.001000,0.001000
1030.365385,0.026189,0.001000,0.001000,0.001000,0.001000,0.001000
1030.384615,0.027414,0.001000,0.001000,0.001000,0.001000,0.001000
1030.403846,0.028615,0.001000,0.001000,0.001000,0.001000,0.001000
1030.423077,0.029793,0.001000,0.001000,0.001000,0.001000,0.001000
1030.442308,0.030945,0.001000,0.001000,0.001000,0.001000,0.001000
1030.461538,0.032072,0.001000,0.001000,0.001000,0.001000,0.001000
1030.480769,0.033171,0.001000,0.001000,0.001000,0.001000,0.001000
1030.500000,0.034242,0.001000,0.001000,0.001000,0.001000,0.001000
1030.519231,0.035285,0.001000,0.001000,0.001000,0.001000,0.001000
1030.538462,0.036298,0.001000,0.001000,0.001000,0.001000,0.001000
1030.557692,0.037280,0.001000,0.001000,0.001000,0.001000,0.001000
1030.576923,0.038231,0.001000,0.001000,0.001000,0.001000,0.001000
1030.596154,0.039150,0.001000,0.001000,0.001000,0.001000,0.001000
1030.615385,0.040036,0.001000,0.001000,0.001000,0.001000,0.001000
1030.634615,0.040888,0.001000,0.001000,0.001000,0.001000,0.001000
1030.653846,0.041705,0.001000,0.001000,0.001000,0.001000,0.001000
1030.673077,0.042488,0.001000,0.001000,0.001000,0.001000,0.001000
1030.692308,0.043235,0.001000,0.001000,0.001000,0.001000,0.001000
1030.711538,0.043945,0.001000,0.001000,0.001000,0.001000,0.001000
1030.730769,0.044619,0.001000,0.001000,0.001000,0.001000,0.001000
1030.750000,0.045254,0.001000,0.001000,0.001000,0.001000,0.001000
1030.769231,0.045852,0.001000,0.001000,0.001000,0.001000,0.001000
1030.788462,0.046411,0.001000,0.001000,0.001000,0.001000,0.001000
1030.807692,0.046931,0.001000,0.001000,0.001000,0.001000,0.001000
1030.826923,0.047412,0.001000,0.001000,0.001000,0.001000,0.001000
1030.846154,0.047853,0.001000,0.001000,0.001000,0.001000,0.001000
1030.865385,0.048253,0.001000,0.001000,0.001000,0.001000,0.001000
1030.884615,0.048613,0.001000,0.001000,0.001000,0.001000,0.001000
1030.903846,0.048932,0.001000,0.001000,0.001000,0.001000,0.001000
1030.923077,0.049209,0.001000,0.001000,0.001000,0.001000,0.001000
1030.942308,0.049446,0.001000,0.001000,0.001000,0.001000,0.001000
1030.961538,0.049640,0.001000,0.001000,0.001000,0.001000,0.001000
1030.980769,0.049793,0.001000,0.001000,0.001000,0.001000,0.001000
1031.000000,0.049904,0.001000,0.001000,0.001000,0.001000,0.001000
1031.019231,0.049973,0.001000,0.001000,0.001000,0.001000,0.001000
1031.038462,0.050000,0.001000,0.001000,0.001000,0.001000,0.001000
1031.057692,0.049984,0.001000,0.001000,0.001000,0.001000,0.001000
1031.076923,0.049927,0.001000,0.001000,0.001000,0.001000,0.001000
1031.096154,0.049828,0.001000,0.001000,0.001000,0.001000,0.001000
1031.115385,0.049686,0.001000,0.001000,0.001000,0.001000,0.001000
1031.134615,0.049503,0.001000,0.001000,0.001000,0.001000,0.001000
1031.153846,0.049278,0.001000,0.001000,0.001000,0.001000,0.001000
1031.173077,0.049012,0.001000,0.001000,0.001000,0.001000,0.001000
1031.192308,0.048704,0.001000,0.001000,0.001000,0.001000,0.001000
1031.211538,0.048356,0.001000,0.001000,0.001000,0.001000,0.001000
1031.230769,0.047967,0.001000,0.001000,0.001000,0.001000,0.001000
1031.250000,0.047537,0.001000,0.001000,0.001000,0.001000,0.001000
1031.269231,0.047067,0.001000,0.001000,0.001000,0.001000,0.001000
1031.288462,0.046558,0.001000,0.001000,0.001000,0.001000,0.001000
1031.307692,0.046009,0.001000,0.001000,0.001000,0.001000,0.001000
1031.326923,0.045422,0.001000,0.001000,0.001000,0.001000,0.001000
1031.346154,0.044797,0.001000,0.001000,0.001000,0.001000,0.001000
1031.365385,0.044134,0.001000,0.001000,0.001000,0.001000,0.001000
1031.384615,0.043433,0.001000,0.001000,0.001000,0.001000,0.001000
1031.403846,0.042696,0.001000,0.001000,0.001000,0.001000,0.001000
1031.423077,0.041924,0.001000,0.001000,0.001000,0.001000,0.001000
1031.442308,0.041116,0.001000,0.001000,0.001000,0.001000,0.001000
1031.461538,0.040273,0.001000,0.001000,0.001000,0.001000,0.001000
1031.480769,0.039396,0.001000,0.001000,0.001000,0.001000,0.001000
1031.500000,0.038486,0.001000,0.001000,0.001000,0.001000,0.001000
1031.519231,0.037544,0.001000,0.001000,0.001000,0.001000,0.001000
1031.538462,0.036570,0.001000,0.001000,0.001000,0.001000,0.001000
1031.557692,0.035566,0.001000,0.001000,0.001000,0.001000,0.001000
1031.576923,0.034531,0.001000,0.001000,0.001000,0.001000,0.001000
1031.596154,0.033468,0.001000,0.001000,0.001000,0.001000,0.001000
1031.615385,0.032376,0.001000,0.001000,0.001000,0.001000,0.001000
1031.634615,0.031257,0.001000,0.001000,0.001000,0.001000,0.001000
1031.653846,0.030112,0.001000,0.001000,0.001000,0.001000,0.001000
1031.673077,0.028941,0.001000,0.001000,0.001000,0.001000,0.001000
1031.692308,0.027746,0.001000,0.001000,0.001000,0.001000,0.001000
1031.711538,0.026527,0.001000,0.001000,0.001000,0.001000,0.001000
1031.730769,0.025287,0.001000,0.001000,0.001000,0.001000,0.001000
1031.750000,0.024025,0.001000,0.001000,0.001000,0.001000,0.001000
1031.769231,0.022742,0.001000,0.001000,0.001000,0.001000,0.001000
1031.788462,0.021441,0.001000,0.001000,0.001000,0.001000,0.001000
1031.807692,0.020122,0.001000,0.001000,0.001000,0.001000,0.001000
1031.826923,0.018785,0.001000,0.001000,0.001000,0.001000,0.001000
1031.846154,0.017433,0.001000,0.001000,0.001000,0.001000,0.001000
1031.865385,0.016066,0.001000,0.001000,0.001000,0.001000,0.001000
1031.884615,0.014686,0.001000,0.001000,0.001000,0.001000,0.001000
1031.903846,0.013293,0.001000,0.001000,0.001000,0.001000,0.001000
1031.923077,0.011889,0.001000,0.001000,0.001000,0.001000,0.001000
1031.942308,0.010475,0.001000,0.001000,0.001000,0.001000,0.001000
1031.961538,0.009052,0.001000,0.001000,0.001000,0.001000,0.001000
1031.980769,0.007622,0.001000,0.001000,0.001000,0.001000,0.001000
1032.000000,0.006185,0.001000,0.001000,0.001000,0.001000,0.001000
1032.019231,0.004743,0.001000,0.001000,0.001000,0.001000,0.001000
1032.038462,0.003297,0.001000,0.001000,0.001000,0.001000,0.001000
1032.057692,0.001848,0.001000,0.001000,0.001000,0.001000,0.001000
1032.076923,0.000398,0.001000,0.001000,0.001000,0.001000,0.001000
1032.096154,-0.001053,0.001000,0.001000,0.001000,0.001000,0.001000
1032.115385,-0.002502,0.001000,0.001000,0.001000,0.001000,0.001000
1032.134615,-0.003950,0.001000,0.001000,0.001000,0.001000,0.001000
1032.153846,-0.005394,0.001000,0.001000,0.001000,0.001000,0.001000
1032.173077,-0.006834,0.001000,0.001000,0.001000,0.001000,0.001000
1032.192308,-0.008268,0.001000,0.001000,0.001000,0.001000,0.001000
1032.211538,-0.009695,0.001000,0.001000,0.001000,0.001000,0.001000
1032.230769,-0.011114,0.001000,0.001000,0.001000,0.001000,0.001000
1032.250000,-0.012524,0.001000,0.001000,0.001000,0.001000,0.001000
1032.269231,-0.013923,0.001000,0.001000,0.001000,0.001000,0.001000
1032.288462,-0.015310,0.001000,0.001000,0.001000,0.001000,0.001000
1032.307692,-0.016685,0.001000,0.001000,0.001000,0.001000,0.001000
1032.326923,-0.018045,0.001000,0.001000,0.001000,0.001000,0.001000
1032.346154,-0.019390,0.001000,0.001000,0.001000,0.001000,0.001000
1032.365385,-0.020719,0.001000,0.001000,0.001000,0.001000,0.001000
1032.384615,-0.022031,0.001000,0.001000,0.001000,0.001000,0.001000
1032.403846,-0.023324,0.001000,0.001000,0.001000,0.001000,0.001000
1032.423077,-0.024597,0.001000,0.001000,0.001000,0.001000,0.001000
1032.442308,-0.025849,0.001000,0.001000,0.001000,0.001000,0.001000
1032.461538,-0.027080,0.001000,0.001000,0.001000,0.001000,0.001000
1032.480769,-0.028288,0.001000,0.001000,0.001000,0.001000,0.001000
1032.500000,-0.029472,0.001000,0.001000,0.001000,0.001000,0.001000
1032.519231,-0.030632,0.001000,0.001000,0.001000,0.001000,0.001000
1032.538462,-0.031765,0.001000,0.001000,0.001000,0.001000,0.001000
1032.557692,-0.032872,0.001000,0.001000,0.001000,0.001000,0.001000
1032.576923,-0.033951,0.001000,0.001000,0.001000,0.001000,0.001000
1032.596154,-0.035002,0.001000,0.001000,0.001000,0.001000,0.001000
1032.615385,-0.036023,0.001000,0.001000,0.001000,0.001000,0.001000
1032.634615,-0.037014,0.001000,0.001000,0.001000,0.001000,0.001000
1032.653846,-0.037973,0.001000,0.001000,0.001000,0.001000,0.001000
1032.673077,-0.038901,0.001000,0.001000,0.001000,0.001000,0.001000
1032.692308,-0.039796,0.001000,0.001000,0.001000,0.001000,0.001000
1032.711538,-0.040657,0.001000,0.001000,0.001000,0.001000,0.001000
1032.730769,-0.041485,0.001000,0.001000,0.001000,0.001000,0.001000
1032.750000,-0.042277,0.001000,0.001000,0.001000,0.001000,0.001000
1032.769231,-0.043033,0.001000,0.001000,0.001000,0.001000,0.001000
1032.788462,-0.043754,0.001000,0.001000,0.001000,0.001000,0.001000
1032.807692,-0.044438,0.001000,0.001000,0.001000,0.001000,0.001000
1032.826923,-0.045084,0.001000,0.001000,0.001000,0.001000,0.001000
1032.846154,-0.045692,0.001000,0.001000,0.001000,0.001000,0.001000
1032.865385,-0.046262,0.001000,0.001000,0.001000,0.001000,0.001000
1032.884615,-0.046793,0.001000,0.001000,0.001000,0.001000,0.001000
1032.903846,-0.047284,0.001000,0.001000,0.001000,0.001000,0.001000
1032.923077,-0.047736,0.001000,0.001000,0.001000,0.001000,0.001000
1032.942308,-0.048147,0.001000,0.001000,0.001000,0.001000,0.001000
1032.961538,-0.048518,0.001000,0.001000,0.001000,0.001000,0.001000
1032.980769,-0.048848,0.001000,0.001000,0.001000,0.001000,0.001000
1033.000000,-0.049137,0.001000,0.001000,0.001000,0.001000,0.001000
1033.019231,-0.049385,0.001000,0.001000,0.001000,0.001000,0.001000
1033.038462,-0.049591,0.001000,0.001000,0.001000,0.001000,0.001000
1033.057692,-0.049755,0.001000,0.001000,0.001000,0.001000,0.001000
1033.076923,-0.049878,0.001000,0.001000,0.001000,0.001000,0.001000
1033.096154,-0.049958,0.001000,0.001000,0.001000,0.001000,0.001000
1033.115385,-0.049996,0.001000,0.001000,0.001000,0.001000,0.001000
1033.134615,-0.049993,0.001000,0.001000,0.001000,0.001000,0.001000
1033.153846,-0.049947,0.001000,0.001000,0.001000,0.001000,0.001000
1033.173077,-0.049859,0.001000,0.001000,0.001000,0.001000,0.001000
1033.192308,-0.049729,0.001000,0.001000,0.001000,0.001000,0.001000
1033.211538,-0.049558,0.001000,0.001000,0.001000,0.001000,0.001000
1033.230769,-0.049344,0.001000,0.001000,0.001000,0.001000,0.001000
1033.250000,-0.049089,0.001000,0.001000,0.001000,0.001000,0.001000
1033.269231,-0.048793,0.001000,0.001000,0.001000,0.001000,0.001000
1033.288462,-0.048456,0.001000,0.001000,0.001000,0.001000,0.001000
1033.307692,-0.048077,0.001000,0.001000,0.001000,0.001000,0.001000
1033.326923,-0.047659,0.001000,0.001000,0.001000,0.001000,0.001000
1033.346154,-0.047200,0.001000,0.001000,0.001000,0.001000,0.001000
1033.365385,-0.046702,0.001000,0.001000,0.001000,0.001000,0.001000
1033.384615,-0.046164,0.001000,0.001000,0.001000,0.001000,0.001000
1033.403846,-0.045587,0.001000,0.001000,0.001000,0.001000,0.001000
1033.423077,-0.044972,0.001000,0.001000,0.001000,0.001000,0.001000
1033.442308,-0.044319,0.001000,0.001000,0.001000,0.001000,0.001000
1033.461538,-0.043629,0.001000,0.001000,0.001000,0.001000,0.001000
1033.480769,-0.042902,0.001000,0.001000,0.001000,0.001000,0.001000
1033.500000,-0.042139,0.001000,0.001000,0.001000,0.001000,0.001000
1033.519231,-0.041341,0.001000,0.001000,0.001000,0.001000,0.001000
1033.538462,-0.040507,0.001000,0.001000,0.001000,0.001000,0.001000
1033.557692,-0.039640,0.001000,0.001000,0.001000,0.001000,0.001000
1033.576923,-0.038739,0.001000,0.001000,0.001000,0.001000,0.001000
1033.596154,-0.037806,0.001000,0.001000,0.001000,0.001000,0.001000
1033.615385,-0.036841,0.001000,0.001000,0.001000,0.001000,0.001000
1033.634615,-0.035844,0.001000,0.001000,0.001000,0.001000,0.001000
1033.653846,-0.034818,0.001000,0.001000,0.001000,0.001000,0.001000
1033.673077,-0.033762,0.001000,0.001000,0.001000,0.001000,0.001000
1033.692308,-0.032678,0.001000,0.001000,0.001000,0.001000,0.001000
1033.711538,-0.031567,0.001000,0.001000,0.001000,0.001000,0.001000
1033.730769,-0.030428,0.001000,0.001000,0.001000,0.001000,0.001000
1033.750000,-0.029265,0.001000,0.001000,0.001000,0.001000,0.001000
1033.769231,-0.028076,0.001000,0.001000,0.001000,0.001000,0.001000
1033.788462,-0.026864,0.001000,0.001000,0.001000,0.001000,0.001000
1033.807692,-0.025629,0.001000,0.001000,0.001000,0.001000,0.001000
1033.826923,-0.024373,0.001000,0.001000,0.001000,0.001000,0.001000
1033.846154,-0.023096,0.001000,0.001000,0.001000,0.001000,0.001000
1033.865385,-0.021800,0.001000,0.001000,0.001000,0.001000,0.001000
1033.884615,-0.020485,0.001000,0.001000,0.001000,0.001000,0.001000
1033.903846,-0.019153,0.001000,0.001000,0.001000,0.001000,0.001000
1033.923077,-0.017806,0.001000,0.001000,0.001000,0.001000,0.001000
1033.942308,-0.016443,0.001000,0.001000,0.001000,0.001000,0.001000
1033.961538,-0.015066,0.001000,0.001000,0.001000,0.001000,0.001000
1033.980769,-0.013676,0.001000,0.001000,0.001000,0.001000,0.001000
1034.000000,-0.012275,0.001000,0.001000,0.001000,0.001000,0.001000
1034.019231,-0.010864,0.001000,0.001000,0.001000,0.001000,0.001000
1034.038462,-0.009444,0.001000,0.001000,0.001000,0.001000,0.001000
1034.057692,-0.008015,0.001000,0.001000,0.001000,0.001000,0.001000
1034.076923,-0.006580,0.001000,0.001000,0.001000,0.001000,0.001000
1034.096154,-0.005139,0.001000,0.001000,0.001000,0.001000,0.001000
1034.115385,-0.003694,0.001000,0.001000,0.001000,0.001000,0.001000
1034.134615,-0.002246,0.001000,0.001000,0.001000,0.001000,0.001000
1034.153846,-0.000796,0.001000,0.001000,0.001000,0.001000,0.001000
1034.173077,0.000655,0.001000,0.001000,0.001000,0.001000,0.001000
1034.192308,0.002105,0.001000,0.001000,0.001000,0.001000,0.001000
1034.211538,0.003553,0.001000,0.001000,0.001000,0.001000,0.001000
1034.230769,0.004999,0.001000,0.001000,0.001000,0.001000,0.001000
1034.250000,0.006440,0.001000,0.001000,0.001000,0.001000,0.001000
1034.269231,0.007876,0.001000,0.001000,0.001000,0.001000,0.001000
1034.288462,0.009305,0.001000,0.001000,0.001000,0.001000,0.001000
1034.307692,0.010726,0.001000,0.001000,0.001000,0.001000,0.001000
1034.326923,0.012138,0.001000,0.001000,0.001000,0.001000,0.001000
1034.346154,0.013540,0.001000,0.001000,0.001000,0.001000,0.001000
1034.365385,0.014931,0.001000,0.001000,0.001000,0.001000,0.001000
1034.384615,0.016309,0.001000,0.001000,0.001000,0.001000,0.001000
1034.403846,0.017673,0.001000,0.001000,0.001000,0.001000,0.001000
1034.423077,0.019023,0.001000,0.001000,0.001000,0.001000,0.001000
1034.442308,0.020356,0.001000,0.001000,0.001000,0.001000,0.001000
1034.461538,0.021673,0.001000,0.001000,0.001000,0.001000,0.001000
1034.480769,0.022971,0.001000,0.001000,0.001000,0.001000,0.001000
1034.500000,0.024249,0.001000,0.001000,0.001000,0.001000,0.001000
1034.519231,0.025508,0.001000,0.001000,0.001000,0.001000,0.001000
1034.538462,0.026745,0.001000,0.001000,0.001000,0.001000,0.001000
1034.557692,0.027959,0.001000,0.001000,0.001000,0.001000,0.001000
1034.576923,0.029150,0.001000,0.001000,0.001000,0.001000,0.001000
1034.596154,0.030316,0.001000,0.001000,0.001000,0.001000,0.001000
1034.615385,0.031457,0.001000,0.001000,0.001000,0.001000,0.001000
1034.634615,0.032571,0.001000,0.001000,0.001000,0.001000,0.001000
1034.653846,0.033658,0.001000,0.001000,0.001000,0.001000,0.001000
1034.673077,0.034716,0.001000,0.001000,0.001000,0.001000,0.001000
