timestamp,ax,ay,az,gx,gy,gz
1000.000000,0.000000,0.001000,0.001000,0.001000,0.001000,0.001000
1000.019231,0.001215,0.001000,0.001000,0.001000,0.001000,0.001000
1000.038462,0.002429,0.001000,0.001000,0.001000,0.001000,0.001000
1000.057692,0.003642,0.001000,0.001000,0.001000,0.001000,0.001000
1000.076923,0.004853,0.001000,0.001000,0.001000,0.001000,0.001000
1000.096154,0.006061,0.001000,0.001000,0.001000,0.001000,0.001000
1000.115385,0.007265,0.001000,0.001000,0.001000,0.001000,0.001000
1000.134615,0.008466,0.001000,0.001000,0.001000,0.001000,0.001000
1000.153846,0.009661,0.001000,0.001000,0.001000,0.001000,0.001000
1000.173077,0.010850,0.001000,0.001000,0.001000,0.001000,0.001000
1000.192308,0.012033,0.001000,0.001000,0.001000,0.001000,0.001000
1000.211538,0.013209,0.001000,0.001000,0.001000,0.001000,0.001000
1000.230769,0.014377,0.001000,0.001000,0.001000,0.001000,0.001000
1000.250000,0.015536,0.001000,0.001000,0.001000,0.001000,0.001000
1000.269231,0.016687,0.001000,0.001000,0.001000,0.001000,0.001000
1000.288462,0.017827,0.001000,0.001000,0.001000,0.001000,0.001000
1000.307692,0.018957,0.001000,0.001000,0.001000,0.001000,0.001000
1000.326923,0.020076,0.001000,0.001000,0.001000,0.001000,0.001000
1000.346154,0.021183,0.001000,0.001000,0.001000,0.001000,0.001000
1000.365385,0.022277,0.001000,0.001000,0.001000,0.001000,0.001000
1000.384615,0.023358,0.001000,0.001000,0.001000,0.001000,0.001000
1000.403846,0.024426,0.001000,0.001000,0.001000,0.001000,0.001000
1000.423077,0.025479,0.001000,0.001000,0.001000,0.001000,0.001000
1000.442308,0.026517,0.001000,0.001000,0.001000,0.001000,0.001000
1000.461538,0.027539,0.001000,0.001000,0.001000,0.001000,0.001000
1000.480769,0.028545,0.001000,0.001000,0.001000,0.001000,0.001000
1000.500000,0.029534,0.001000,0.001000,0.001000,0.001000,0.001000
1000.519231,0.030506,0.001000,0.001000,0.001000,0.001000,0.001000
1000.538462,0.031460,0.001000,0.001000,0.001000,0.001000,0.001000
1000.557692,0.032395,0.001000,0.001000,0.001000,0.001000,0.001000
1000.576923,0.033311,0.001000,0.001000,0.001000,0.001000,0.001000
1000.596154,0.034207,0.001000,0.001000,0.001000,0.001000,0.001000
1000.615385,0.035083,0.001000,0.001000,0.001000,0.001000,0.001000
1000.634615,0.035939,0.001000,0.001000,0.001000,0.001000,0.001000
1000.653846,0.036773,0.001000,0.001000,0.001000,0.001000,0.001000
1000.673077,0.037585,0.001000,0.001000,0.001000,0.001000,0.001000
1000.692308,0.038376,0.001000,0.001000,0.001000,0.001000,0.001000
1000.711538,0.039143,0.001000,0.001000,0.001000,0.001000,0.001000
1000.730769,0.039888,0.001000,0.001000,0.001000,0.001000,0.001000
1000.750000,0.040609,0.001000,0.001000,0.001000,0.001000,0.001000
1000.769231,0.041306,0.001000,0.001000,0.001000,0.001000,0.001000
1000.788462,0.041978,0.001000,0.001000,0.001000,0.001000,0.001000
1000.807692,0.042626,0.001000,0.001000,0.001000,0.001000,0.001000
1000.826923,0.043248,0.001000,0.001000,0.001000,0.001000,0.001000
1000.846154,0.043845,0.001000,0.001000,0.001000,0.001000,0.001000
1000.865385,0.044416,0.001000,0.001000,0.001000,0.001000,0.001000
1000.884615,0.044961,0.001000,0.001000,0.001000,0.001000,0.001000
1000.903846,0.045480,0.001000,0.001000,0.001000,0.001000,0.001000
1000.923077,0.045971,0.001000,0.001000,0.001000,0.001000,0.001000
1000.942308,0.046435,0.001000,0.001000,0.001000,0.001000,0.001000
1000.961538,0.046872,0.001000,0.001000,0.001000,0.001000,0.001000
1000.980769,0.047281,0.001000,0.001000,0.001000,0.001000,0.001000
1001.000000,0.047663,0.001000,0.001000,0.001000,0.001000,0.001000
1001.019231,0.048016,0.001000,0.001000,0.001000,0.001000,0.001000
1001.038462,0.048340,0.001000,0.001000,0.001000,0.001000,0.001000
1001.057692,0.048637,0.001000,0.001000,0.001000,0.001000,0.001000
1001.076923,0.048904,0.001000,0.001000,0.001000,0.001000,0.001000
1001.096154,0.049143,0.001000,0.001000,0.001000,0.001000,0.001000
1001.115385,0.049352,0.001000,0.001000,0.001000,0.001000,0.001000
1001.134615,0.049533,0.001000,0.001000,0.001000,0.001000,0.001000
1001.153846,0.049684,0.001000,0.001000,0.001000,0.001000,0.001000
1001.173077,0.049805,0.001000,0.001000,0.001000,0.001000,0.001000
1001.192308,0.049898,0.001000,0.001000,0.001000,0.001000,0.001000
1001.211538,0.049961,0.001000,0.001000,0.001000,0.001000,0.001000
1001.230769,0.049994,0.001000,0.001000,0.001000,0.001000,0.001000
1001.250000,0.049998,0.001000,0.001000,0.001000,0.001000,0.001000
1001.269231,0.049972,0.001000,0.001000,0.001000,0.001000,0.001000
1001.288462,0.049917,0.001000,0.001000,0.001000,0.001000,0.001000
1001.307692,0.049832,0.001000,0.001000,0.001000,0.001000,0.001000
1001.326923,0.049718,0.001000,0.001000,0.001000,0.001000,0.001000
1001.346154,0.049575,0.001000,0.001000,0.001000,0.001000,0.001000
1001.365385,0.049402,0.001000,0.001000,0.001000,0.001000,0.001000
1001.384615,0.049200,0.001000,0.001000,0.001000,0.001000,0.001000
1001.403846,0.048969,0.001000,0.001000,0.001000,0.001000,0.001000
1001.423077,0.048709,0.001000,0.001000,0.001000,0.001000,0.001000
1001.442308,0.048420,0.001000,0.001000,0.001000,0.001000,0.001000
1001.461538,0.048103,0.001000,0.001000,0.001000,0.001000,0.001000
1001.480769,0.047757,0.001000,0.001000,0.001000,0.001000,0.001000
1001.500000,0.047384,0.001000,0.001000,0.001000,0.001000,0.001000
1001.519231,0.046982,0.001000,0.001000,0.001000,0.001000,0.001000
1001.538462,0.046552,0.001000,0.001000,0.001000,0.001000,0.001000
1001.557692,0.046095,0.001000,0.001000,0.001000,0.001000,0.001000
1001.576923,0.045610,0.001000,0.001000,0.001000,0.001000,0.001000
1001.596154,0.045099,0.001000,0.001000,0.001000,0.001000,0.001000
1001.615385,0.044561,0.001000,0.001000,0.001000,0.001000,0.001000
1001.634615,0.043997,0.001000,0.001000,0.001000,0.001000,0.001000
1001.653846,0.043407,0.001000,0.001000,0.001000,0.001000,0.001000
1001.673077,0.042791,0.001000,0.001000,0.001000,0.001000,0.001000
1001.692308,0.042149,0.001000,0.001000,0.001000,0.001000,0.001000
1001.711538,0.041483,0.001000,0.001000,0.001000,0.001000,0.001000
1001.730769,0.040793,0.001000,0.001000,0.001000,0.001000,0.001000
1001.750000,0.040078,0.001000,0.001000,0.001000,0.001000,0.001000
1001.769231,0.039340,0.001000,0.001000,0.001000,0.001000,0.001000
1001.788462,0.038578,0.001000,0.001000,0.001000,0.001000,0.001000
1001.807692,0.037794,0.001000,0.001000,0.001000,0.001000,0.001000
1001.826923,0.036987,0.001000,0.001000,0.001000,0.001000,0.001000
1001.846154,0.036159,0.001000,0.001000,0.001000,0.001000,0.001000
1001.865385,0.035309,0.001000,0.001000,0.001000,0.001000,0.001000
1001.884615,0.034438,0.001000,0.001000,0.001000,0.001000,0.001000
1001.903846,0.033547,0.001000,0.001000,0.001000,0.001000,0.001000
1001.923077,0.032636,0.001000,0.001000,0.001000,0.001000,0.001000
1001.942308,0.031706,0.001000,0.001000,0.001000,0.001000,0.001000
1001.961538,0.030757,0.001000,0.001000,0.001000,0.001000,0.001000
1001.980769,0.029790,0.001000,0.001000,0.001000,0.001000,0.001000
1002.000000,0.028805,0.001000,0.001000,0.001000,0.001000,0.001000
1002.019231,0.027803,0.001000,0.001000,0.001000,0.001000,0.001000
1002.038462,0.026785,0.001000,0.001000,0.001000,0.001000,0.001000
1002.057692,0.025751,0.001000,0.001000,0.001000,0.001000,0.001000
1002.076923,0.024702,0.001000,0.001000,0.001000,0.001000,0.001000
1002.096154,0.023638,0.001000,0.001000,0.001000,0.001000,0.001000
1002.115385,0.022561,0.001000,0.001000,0.001000,0.001000,0.001000
1002.134615,0.021470,0.001000,0.001000,0.001000,0.001000,0.001000
1002.153846,0.020366,0.001000,0.001000,0.001000,0.001000,0.001000
1002.173077,0.019250,0.001000,0.001000,0.001000,0.001000,0.001000
1002.192308,0.018123,0.001000,0.001000,0.001000,0.001000,0.001000
1002.211538,0.016985,0.001000,0.001000,0.001000,0.001000,0.001000
1002.230769,0.015837,0.001000,0.001000,0.001000,0.001000,0.001000
1002.250000,0.014680,0.001000,0.001000,0.001000,0.001000,0.001000
1002.269231,0.013514,0.001000,0.001000,0.001000,0.001000,0.001000
1002.288462,0.012340,0.001000,0.001000,0.001000,0.001000,0.001000
1002.307692,0.011159,0.001000,0.001000,0.001000,0.001000,0.001000
1002.326923,0.009972,0.001000,0.001000,0.001000,0.001000,0.001000
1002.346154,0.008778,0.001000,0.001000,0.001000,0.001000,0.001000
1002.365385,0.007579,0.001000,0.001000,0.001000,0.001000,0.001000
1002.384615,0.006376,0.001000,0.001000,0.001000,0.001000,0.001000
1002.403846,0.005169,0.001000,0.001000,0.001000,0.001000,0.001000
1002.423077,0.003959,0.001000,0.001000,0.001000,0.001000,0.001000
1002.442308,0.002746,0.001000,0.001000,0.001000,0.001000,0.001000
1002.461538,0.001532,0.001000,0.001000,0.001000,0.001000,0.001000
1002.480769,0.000317,0.001000,0.001000,0.001000,0.001000,0.001000
1002.500000,-0.000898,0.001000,0.001000,0.001000,0.001000,0.001000
1002.519231,-0.002113,0.001000,0.001000,0.001000,0.001000,0.001000
1002.538462,-0.003326,0.001000,0.001000,0.001000,0.001000,0.001000
1002.557692,-0.004537,0.001000,0.001000,0.001000,0.001000,0.001000
1002.576923,-0.005746,0.001000,0.001000,0.001000,0.001000,0.001000
1002.596154,-0.006952,0.001000,0.001000,0.001000,0.001000,0.001000
1002.615385,-0.008153,0.001000,0.001000,0.001000,0.001000,0.001000
1002.634615,-0.009349,0.001000,0.001000,0.001000,0.001000,0.001000
1002.653846,-0.010540,0.001000,0.001000,0.001000,0.001000,0.001000
1002.673077,-0.011725,0.001000,0.001000,0.001000,0.001000,0.001000
1002.692308,-0.012903,0.001000,0.001000,0.001000,0.001000,0.001000
1002.711538,-0.014073,0.001000,0.001000,0.001000,0.001000,0.001000
1002.730769,-0.015234,0.001000,0.001000,0.001000,0.001000,0.001000
1002.750000,-0.016387,0.001000,0.001000,0.001000,0.001000,0.001000
1002.769231,-0.017530,0.001000,0.001000,0.001000,0.001000,0.001000
1002.788462,-0.018663,0.001000,0.001000,0.001000,0.001000,0.001000
1002.807692,-0.019785,0.001000,0.001000,0.001000,0.001000,0.001000
1002.826923,-0.020895,0.001000,0.001000,0.001000,0.001000,0.001000
1002.846154,-0.021993,0.001000,0.001000,0.001000,0.001000,0.001000
1002.865385,-0.023078,0.001000,0.001000,0.001000,0.001000,0.001000
1002.884615,-0.024149,0.001000,0.001000,0.001000,0.001000,0.001000
1002.903846,-0.025206,0.001000,0.001000,0.001000,0.001000,0.001000
1002.923077,-0.026247,0.001000,0.001000,0.001000,0.001000,0.001000
1002.942308,-0.027274,0.001000,0.001000,0.001000,0.001000,0.001000
1002.961538,-0.028284,0.001000,0.001000,0.001000,0.001000,0.001000
1002.980769,-0.029278,0.001000,0.001000,0.001000,0.001000,0.001000
1003.000000,-0.030254,0.001000,0.001000,0.001000,0.001000,0.001000
1003.019231,-0.031213,0.001000,0.001000,0.001000,0.001000,0.001000
1003.038462,-0.032153,0.001000,0.001000,0.001000,0.001000,0.001000
1003.057692,-0.033074,0.001000,0.001000,0.001000,0.001000,0.001000
1003.076923,-0.033975,0.001000,0.001000,0.001000,0.001000,0.001000
1003.096154,-0.034857,0.001000,0.001000,0.001000,0.001000,0.001000
1003.115385,-0.035718,0.001000,0.001000,0.001000,0.001000,0.001000
1003.134615,-0.036557,0.001000,0.001000,0.001000,0.001000,0.001000
1003.153846,-0.037376,0.001000,0.001000,0.001000,0.001000,0.001000
1003.173077,-0.038172,0.001000,0.001000,0.001000,0.001000,0.001000
1003.192308,-0.038945,0.001000,0.001000,0.001000,0.001000,0.001000
1003.211538,-0.039696,0.001000,0.001000,0.001000,0.001000,0.001000
1003.230769,-0.040423,0.001000,0.001000,0.001000,0.001000,0.001000
1003.250000,-0.041126,0.001000,0.001000,0.001000,0.001000,0.001000
1003.269231,-0.041805,0.001000,0.001000,0.001000,0.001000,0.001000
1003.288462,-0.042459,0.001000,0.001000,0.001000,0.001000,0.001000
1003.307692,-0.043088,0.001000,0.001000,0.001000,0.001000,0.001000
1003.326923,-0.043692,0.001000,0.001000,0.001000,0.001000,0.001000
1003.346154,-0.044270,0.001000,0.001000,0.001000,0.001000,0.001000
1003.365385,-0.044822,0.001000,0.001000,0.001000,0.001000,0.001000
1003.384615,-0.045347,0.001000,0.001000,0.001000,0.001000,0.001000
1003.403846,-0.045845,0.001000,0.001000,0.001000,0.001000,0.001000
1003.423077,-0.046317,0.001000,0.001000,0.001000,0.001000,0.001000
1003.442308,-0.046761,0.001000,0.001000,0.001000,0.001000,0.001000
1003.461538,-0.047177,0.001000,0.001000,0.001000,0.001000,0.001000
1003.480769,-0.047566,0.001000,0.001000,0.001000,0.001000,0.001000
1003.500000,-0.047926,0.001000,0.001000,0.001000,0.001000,0.001000
1003.519231,-0.048258,0.001000,0.001000,0.001000,0.001000,0.001000
1003.538462,-0.048562,0.001000,0.001000,0.001000,0.001000,0.001000
1003.557692,-0.048837,0.001000,0.001000,0.001000,0.001000,0.001000
1003.576923,-0.049083,0.001000,0.001000,0.001000,0.001000,0.001000
1003.596154,-0.049300,0.001000,0.001000,0.001000,0.001000,0.001000
1003.615385,-0.049488,0.001000,0.001000,0.001000,0.001000,0.001000
1003.634615,-0.049647,0.001000,0.001000,0.001000,0.001000,0.001000
1003.653846,-0.049777,0.001000,0.001000,0.001000,0.001000,0.001000
1003.673077,-0.049877,0.001000,0.001000,0.001000,0.001000,0.001000
1003.692308,-0.049947,0.001000,0.001000,0.001000,0.001000,0.001000
1003.711538,-0.049988,0.001000,0.001000,0.001000,0.001000,0.001000
1003.730769,-0.050000,0.001000,0.001000,0.001000,0.001000,0.001000
1003.750000,-0.049982,0.001000,0.001000,0.001000,0.001000,0.001000
1003.769231,-0.049934,0.001000,0.001000,0.001000,0.001000,0.001000
1003.788462,-0.049857,0.001000,0.001000,0.001000,0.001000,0.001000
1003.807692,-0.049751,0.001000,0.001000,0.001000,0.001000,0.001000
1003.826923,-0.049615,0.001000,0.001000,0.001000,0.001000,0.001000
1003.846154,-0.049450,0.001000,0.001000,0.001000,0.001000,0.001000
1003.865385,-0.049256,0.001000,0.001000,0.001000,0.001000,0.001000
1003.884615,-0.049032,0.001000,0.001000,0.001000,0.001000,0.001000
1003.903846,-0.048780,0.001000,0.001000,0.001000,0.001000,0.001000
1003.923077,-0.048499,0.001000,0.001000,0.001000,0.001000,0.001000
1003.942308,-0.048189,0.001000,0.001000,0.001000,0.001000,0.001000
1003.961538,-0.047850,0.001000,0.001000,0.001000,0.001000,0.001000
1003.980769,-0.047484,0.001000,0.001000,0.001000,0.001000,0.001000
1004.000000,-0.047089,0.001000,0.001000,0.001000,0.001000,0.001000
1004.019231,-0.046667,0.001000,0.001000,0.001000,0.001000,0.001000
1004.038462,-0.046217,0.001000,0.001000,0.001000,0.001000,0.001000
1004.057692,-0.045739,0.001000,0.001000,0.001000,0.001000,0.001000
1004.076923,-0.045235,0.001000,0.001000,0.001000,0.001000,0.001000
1004.096154,-0.044704,0.001000,0.001000,0.001000,0.001000,0.001000
1004.115385,-0.044147,0.001000,0.001000,0.001000,0.001000,0.001000
1004.134615,-0.043563,0.001000,0.001000,0.001000,0.001000,0.001000
1004.153846,-0.042954,0.001000,0.001000,0.001000,0.001000,0.001000
1004.173077,-0.042319,0.001000,0.001000,0.001000,0.001000,0.001000
1004.192308,-0.041660,0.001000,0.001000,0.001000,0.001000,0.001000
1004.211538,-0.040975,0.001000,0.001000,0.001000,0.001000,0.001000
1004.230769,-0.040267,0.001000,0.001000,0.001000,0.001000,0.001000
1004.250000,-0.039535,0.001000,0.001000,0.001000,0.001000,0.001000
1004.269231,-0.038779,0.001000,0.001000,0.001000,0.001000,0.001000
1004.288462,-0.038001,0.001000,0.001000,0.001000,0.001000,0.001000
1004.307692,-0.037200,0.001000,0.001000,0.001000,0.001000,0.001000
1004.326923,-0.036377,0.001000,0.001000,0.001000,0.001000,0.001000
1004.346154,-0.035532,0.001000,0.001000,0.001000,0.001000,0.001000
1004.365385,-0.034667,0.001000,0.001000,0.001000,0.001000,0.001000
1004.384615,-0.033781,0.001000,0.001000,0.001000,0.001000,0.001000
1004.403846,-0.032875,0.001000,0.001000,0.001000,0.001000,0.001000
1004.423077,-0.031950,0.001000,0.001000,0.001000,0.001000,0.001000
1004.442308,-0.031006,0.001000,0.001000,0.001000,0.001000,0.001000
1004.461538,-0.030044,0.001000,0.001000,0.001000,0.001000,0.001000
1004.480769,-0.029064,0.001000,0.001000,0.001000,0.001000,0.001000
1004.500000,-0.028066,0.001000,0.001000,0.001000,0.001000,0.001000
1004.519231,-0.027052,0.001000,0.001000,0.001000,0.001000,0.001000
1004.538462,-0.026023,0.001000,0.001000,0.001000,0.001000,0.001000
1004.557692,-0.024977,0.001000,0.001000,0.001000,0.001000,0.001000
1004.576923,-0.023917,0.001000,0.001000,0.001000,0.001000,0.001000
1004.596154,-0.022843,0.001000,0.001000,0.001000,0.001000,0.001000
1004.615385,-0.021756,0.001000,0.001000,0.001000,0.001000,0.001000
1004.634615,-0.020655,0.001000,0.001000,0.001000,0.001000,0.001000
1004.653846,-0.019542,0.001000,0.001000,0.001000,0.001000,0.001000
1004.673077,-0.018418,0.001000,0.001000,0.001000,0.001000,0.001000
1004.692308,-0.017283,0.001000,0.001000,0.001000,0.001000,0.001000
1004.711538,-0.016138,0.001000,0.001000,0.001000,0.001000,0.001000
1004.730769,-0.014983,0.001000,0.001000,0.001000,0.001000,0.001000
1004.750000,-0.013819,0.001000,0.001000,0.001000,0.001000,0.001000
1004.769231,-0.012647,0.001000,0.001000,0.001000,0.001000,0.001000
1004.788462,-0.011468,0.001000,0.001000,0.001000,0.001000,0.001000
1004.807692,-0.010282,0.001000,0.001000,0.001000,0.001000,0.001000
1004.826923,-0.009090,0.001000,0.001000,0.001000,0.001000,0.001000
1004.846154,-0.007892,0.001000,0.001000,0.001000,0.001000,0.001000
1004.865385,-0.006690,0.001000,0.001000,0.001000,0.001000,0.001000
1004.884615,-0.005484,0.001000,0.001000,0.001000,0.001000,0.001000
1004.903846,-0.004275,0.001000,0.001000,0.001000,0.001000,0.001000
1004.923077,-0.003063,0.001000,0.001000,0.001000,0.001000,0.001000
1004.942308,-0.001849,0.001000,0.001000,0.001000,0.001000,0.001000
1004.961538,-0.000634,0.001000,0.001000,0.001000,0.001000,0.001000
1004.980769,0.000581,0.001000,0.001000,0.001000,0.001000,0.001000
1005.000000,0.001796,0.001000,0.001000,0.001000,0.001000,0.001000
1005.019231,0.003010,0.001000,0.001000,0.001000,0.001000,0.001000
1005.038462,0.004222,0.001000,0.001000,0.001000,0.001000,0.001000
1005.057692,0.005431,0.001000,0.001000,0.001000,0.001000,0.001000
1005.076923,0.006637,0.001000,0.001000,0.001000,0.001000,0.001000
1005.096154,0.007840,0.001000,0.001000,0.001000,0.001000,0.001000
1005.115385,0.009037,0.001000,0.001000,0.001000,0.001000,0.001000
1005.134615,0.010230,0.001000,0.001000,0.001000,0.001000,0.001000
1005.153846,0.011416,0.001000,0.001000,0.001000,0.001000,0.001000
1005.173077,0.012596,0.001000,0.001000,0.001000,0.001000,0.001000
1005.192308,0.013768,0.001000,0.001000,0.001000,0.001000,0.001000
1005.211538,0.014932,0.001000,0.001000,0.001000,0.001000,0.001000
1005.230769,0.016087,0.001000,0.001000,0.001000,0.001000,0.001000
1005.250000,0.017233,0.001000,0.001000,0.001000,0.001000,0.001000
1005.269231,0.018369,0.001000,0.001000,0.001000,0.001000,0.001000
1005.288462,0.019493,0.001000,0.001000,0.001000,0.001000,0.001000
1005.307692,0.020607,0.001000,0.001000,0.001000,0.001000,0.001000
1005.326923,0.021708,0.001000,0.001000,0.001000,0.001000,0.001000
1005.346154,0.022796,0.001000,0.001000,0.001000,0.001000,0.001000
1005.365385,0.023870,0.001000,0.001000,0.001000,0.001000,0.001000
1005.384615,0.024931,0.001000,0.001000,0.001000,0.001000,0.001000
1005.403846,0.025977,0.001000,0.001000,0.001000,0.001000,0.001000
1005.423077,0.027008,0.001000,0.001000,0.001000,0.001000,0.001000
1005.442308,0.028022,0.001000,0.001000,0.001000,0.001000,0.001000
1005.461538,0.029020,0.001000,0.001000,0.001000,0.001000,0.001000
1005.480769,0.030001,0.001000,0.001000,0.001000,0.001000,0.001000
1005.500000,0.030964,0.001000,0.001000,0.001000,0.001000,0.001000
1005.519231,0.031909,0.001000,0.001000,0.001000,0.001000,0.001000
1005.538462,0.032835,0.001000,0.001000,0.001000,0.001000,0.001000
1005.557692,0.033742,0.001000,0.001000,0.001000,0.001000,0.001000
1005.576923,0.034629,0.001000,0.001000,0.001000,0.001000,0.001000
1005.596154,0.035495,0.001000,0.001000,0.001000,0.001000,0.001000
1005.615385,0.036340,0.001000,0.001000,0.001000,0.001000,0.001000
1005.634615,0.037164,0.001000,0.001000,0.001000,0.001000,0.001000
1005.653846,0.037966,0.001000,0.001000,0.001000,0.001000,0.001000
1005.673077,0.038745,0.001000,0.001000,0.001000,0.001000,0.001000
1005.692308,0.039502,0.001000,0.001000,0.001000,0.001000,0.001000
1005.711538,0.040235,0.001000,0.001000,0.001000,0.001000,0.001000
1005.730769,0.040945,0.001000,0.001000,0.001000,0.001000,0.001000
1005.750000,0.041630,0.001000,0.001000,0.001000,0.001000,0.001000
1005.769231,0.042291,0.001000,0.001000,0.001000,0.001000,0.001000
1005.788462,0.042927,0.001000,0.001000,0.001000,0.001000,0.001000
1005.807692,0.043537,0.001000,0.001000,0.001000,0.001000,0.001000
1005.826923,0.044122,0.001000,0.001000,0.001000,0.001000,0.001000
1005.846154,0.044680,0.001000,0.001000,0.001000,0.001000,0.001000
1005.865385,0.045212,0.001000,0.001000,0.001000,0.001000,0.001000
1005.884615,0.045718,0.001000,0.001000,0.001000,0.001000,0.001000
1005.903846,0.046196,0.001000,0.001000,0.001000,0.001000,0.001000
1005.923077,0.046648,0.001000,0.001000,0.001000,0.001000,0.001000
1005.942308,0.047071,0.001000,0.001000,0.001000,0.001000,0.001000
1005.961538,0.047467,0.001000,0.001000,0.001000,0.001000,0.001000
1005.980769,0.047835,0.001000,0.001000,0.001000,0.001000,0.001000
1006.000000,0.048174,0.001000,0.001000,0.001000,0.001000,0.001000
1006.019231,0.048486,0.001000,0.001000,0.001000,0.001000,0.001000
1006.038462,0.048768,0.001000,0.001000,0.001000,0.001000,0.001000
1006.057692,0.049022,0.001000,0.001000,0.001000,0.001000,0.001000
1006.076923,0.049246,0.001000,0.001000,0.001000,0.001000,0.001000
1006.096154,0.049442,0.001000,0.001000,0.001000,0.001000,0.001000
1006.115385,0.049608,0.001000,0.001000,0.001000,0.001000,0.001000
1006.134615,0.049746,0.001000,0.001000,0.001000,0.001000,0.001000
1006.153846,0.049853,0.001000,0.001000,0.001000,0.001000,0.001000
1006.173077,0.049932,0.001000,0.001000,0.001000,0.001000,0.001000
1006.192308,0.049980,0.001000,0.001000,0.001000,0.001000,0.001000
1006.211538,0.050000,0.001000,0.001000,0.001000,0.001000,0.001000
1006.230769,0.049989,0.001000,0.001000,0.001000,0.001000,0.001000
1006.250000,0.049950,0.001000,0.001000,0.001000,0.001000,0.001000
1006.269231,0.049880,0.001000,0.001000,0.001000,0.001000,0.001000
1006.288462,0.049782,0.001000,0.001000,0.001000,0.001000,0.001000
1006.307692,0.049653,0.001000,0.001000,0.001000,0.001000,0.001000
1006.326923,0.049496,0.001000,0.001000,0.001000,0.001000,0.001000
1006.346154,0.049309,0.001000,0.001000,0.001000,0.001000,0.001000
1006.365385,0.049093,0.001000,0.001000,0.001000,0.001000,0.001000
1006.384615,0.048848,0.001000,0.001000,0.001000,0.001000,0.001000
1006.403846,0.048575,0.001000,0.001000,0.001000,0.001000,0.001000
1006.423077,0.048272,0.001000,0.001000,0.001000,0.001000,0.001000
1006.442308,0.047941,0.001000,0.001000,0.001000,0.001000,0.001000
1006.461538,0.047582,0.001000,0.001000,0.001000,0.001000,0.001000
1006.480769,0.047195,0.001000,0.001000,0.001000,0.001000,0.001000
1006.500000,0.046780,0.001000,0.001000,0.001000,0.001000,0.001000
1006.519231,0.046337,0.001000,0.001000,0.001000,0.001000,0.001000
1006.538462,0.045867,0.001000,0.001000,0.001000,0.001000,0.001000
1006.557692,0.045369,0.001000,0.001000,0.001000,0.001000,0.001000
1006.576923,0.044845,0.001000,0.001000,0.001000,0.001000,0.001000
1006.596154,0.044295,0.001000,0.001000,0.001000,0.001000,0.001000
1006.615385,0.043718,0.001000,0.001000,0.001000,0.001000,0.001000
1006.634615,0.043115,0.001000,0.001000,0.001000,0.001000,0.001000
1006.653846,0.042487,0.001000,0.001000,0.001000,0.001000,0.001000
1006.673077,0.041834,0.001000,0.001000,0.001000,0.001000,0.001000
1006.692308,0.041156,0.001000,0.001000,0.001000,0.001000,0.001000
1006.711538,0.040454,0.001000,0.001000,0.001000,0.001000,0.001000
1006.730769,0.039728,0.001000,0.001000,0.001000,0.001000,0.001000
1006.750000,0.038979,0.001000,0.001000,0.001000,0.001000,0.001000
1006.769231,0.038206,0.001000,0.001000,0.001000,0.001000,0.001000
1006.788462,0.037411,0.001000,0.001000,0.001000,0.001000,0.001000
1006.807692,0.036594,0.001000,0.001000,0.001000,0.001000,0.001000
1006.826923,0.035755,0.001000,0.001000,0.001000,0.001000,0.001000
1006.846154,0.034895,0.001000,0.001000,0.001000,0.001000,0.001000
1006.865385,0.034014,0.001000,0.001000,0.001000,0.001000,0.001000
1006.884615,0.033114,0.001000,0.001000,0.001000,0.001000,0.001000
1006.903846,0.032194,0.001000,0.001000,0.001000,0.001000,0.001000
1006.923077,0.031254,0.001000,0.001000,0.001000,0.001000,0.001000
1006.942308,0.030297,0.001000,0.001000,0.001000,0.001000,0.001000
1006.961538,0.029321,0.001000,0.001000,0.001000,0.001000,0.001000
1006.980769,0.028328,0.001000,0.001000,0.001000,0.001000,0.001000
1007.000000,0.027319,0.001000,0.001000,0.001000,0.001000,0.001000
1007.019231,0.026293,0.001000,0.001000,0.001000,0.001000,0.001000
1007.038462,0.025252,0.001000,0.001000,0.001000,0.001000,0.001000
1007.057692,0.024195,0.001000,0.001000,0.001000,0.001000,0.001000
1007.076923,0.023125,0.001000,0.001000,0.001000,0.001000,0.001000
1007.096154,0.022041,0.001000,0.001000,0.001000,0.001000,0.001000
1007.115385,0.020943,0.001000,0.001000,0.001000,0.001000,0.001000
1007.134615,0.019834,0.001000,0.001000,0.001000,0.001000,0.001000
1007.153846,0.018713,0.001000,0.001000,0.001000,0.001000,0.001000
1007.173077,0.017580,0.001000,0.001000,0.001000,0.001000,0.001000
1007.192308,0.016438,0.001000,0.001000,0.001000,0.001000,0.001000
1007.211538,0.015285,0.001000,0.001000,0.001000,0.001000,0.001000
1007.230769,0.014124,0.001000,0.001000,0.001000,0.001000,0.001000
1007.250000,0.012954,0.001000,0.001000,0.001000,0.001000,0.001000
1007.269231,0.011777,0.001000,0.001000,0.001000,0.001000,0.001000
1007.288462,0.010592,0.001000,0.001000,0.001000,0.001000,0.001000
1007.307692,0.009402,0.001000,0.001000,0.001000,0.001000,0.001000
1007.326923,0.008205,0.001000,0.001000,0.001000,0.001000,0.001000
1007.346154,0.007004,0.001000,0.001000,0.001000,0.001000,0.001000
1007.365385,0.005799,0.001000,0.001000,0.001000,0.001000,0.001000
1007.384615,0.004591,0.001000,0.001000,0.001000,0.001000,0.001000
1007.403846,0.003379,0.001000,0.001000,0.001000,0.001000,0.001000
1007.423077,0.002166,0.001000,0.001000,0.001000,0.001000,0.001000
1007.442308,0.000951,0.001000,0.001000,0.001000,0.001000,0.001000
1007.461538,-0.000264,0.001000,0.001000,0.001000,0.001000,0.001000
1007.480769,-0.001479,0.001000,0.001000,0.001000,0.001000,0.001000
1007.500000,-0.002693,0.001000,0.001000,0.001000,0.001000,0.001000
1007.519231,-0.003905,0.001000,0.001000,0.001000,0.001000,0.001000
1007.538462,-0.005116,0.001000,0.001000,0.001000,0.001000,0.001000
1007.557692,-0.006323,0.001000,0.001000,0.001000,0.001000,0.001000
1007.576923,-0.007526,0.001000,0.001000,0.001000,0.001000,0.001000
1007.596154,-0.008725,0.001000,0.001000,0.001000,0.001000,0.001000
1007.615385,-0.009919,0.001000,0.001000,0.001000,0.001000,0.001000
1007.634615,-0.011107,0.001000,0.001000,0.001000,0.001000,0.001000
1007.653846,-0.012289,0.001000,0.001000,0.001000,0.001000,0.001000
1007.673077,-0.013463,0.001000,0.001000,0.001000,0.001000,0.001000
1007.692308,-0.014629,0.001000,0.001000,0.001000,0.001000,0.001000
1007.711538,-0.015787,0.001000,0.001000,0.001000,0.001000,0.001000
1007.730769,-0.016935,0.001000,0.001000,0.001000,0.001000,0.001000
1007.750000,-0.018073,0.001000,0.001000,0.001000,0.001000,0.001000
1007.769231,-0.019201,0.001000,0.001000,0.001000,0.001000,0.001000
1007.788462,-0.020317,0.001000,0.001000,0.001000,0.001000,0.001000
1007.807692,-0.021421,0.001000,0.001000,0.001000,0.001000,0.001000
1007.826923,-0.022513,0.001000,0.001000,0.001000,0.001000,0.001000
1007.846154,-0.023591,0.001000,0.001000,0.001000,0.001000,0.001000
1007.865385,-0.024656,0.001000,0.001000,0.001000,0.001000,0.001000
1007.884615,-0.025706,0.001000,0.001000,0.001000,0.001000,0.001000
1007.903846,-0.026740,0.001000,0.001000,0.001000,0.001000,0.001000
1007.923077,-0.027759,0.001000,0.001000,0.001000,0.001000,0.001000
1007.942308,-0.028761,0.001000,0.001000,0.001000,0.001000,0.001000
1007.961538,-0.029747,0.001000,0.001000,0.001000,0.001000,0.001000
1007.980769,-0.030715,0.001000,0.001000,0.001000,0.001000,0.001000
1008.000000,-0.031664,0.001000,0.001000,0.001000,0.001000,0.001000
1008.019231,-0.032595,0.001000,0.001000,0.001000,0.001000,0.001000
1008.038462,-0.033507,0.001000,0.001000,0.001000,0.001000,0.001000
1008.057692,-0.034399,0.001000,0.001000,0.001000,0.001000,0.001000
1008.076923,-0.035271,0.001000,0.001000,0.001000,0.001000,0.001000
1008.096154,-0.036122,0.001000,0.001000,0.001000,0.001000,0.001000
1008.115385,-0.036951,0.001000,0.001000,0.001000,0.001000,0.001000
1008.134615,-0.037759,0.001000,0.001000,0.001000,0.001000,0.001000
1008.153846,-0.038544,0.001000,0.001000,0.001000,0.001000,0.001000
1008.173077,-0.039307,0.001000,0.001000,0.001000,0.001000,0.001000
1008.192308,-0.040046,0.001000,0.001000,0.001000,0.001000,0.001000
1008.211538,-0.040762,0.001000,0.001000,0.001000,0.001000,0.001000
1008.230769,-0.041454,0.001000,0.001000,0.001000,0.001000,0.001000
1008.250000,-0.042121,0.001000,0.001000,0.001000,0.001000,0.001000
1008.269231,-0.042763,0.001000,0.001000,0.001000,0.001000,0.001000
1008.288462,-0.043380,0.001000,0.001000,0.001000,0.001000,0.001000
1008.307692,-0.043972,0.001000,0.001000,0.001000,0.001000,0.001000
1008.326923,-0.044537,0.001000,0.001000,0.001000,0.001000,0.001000
1008.346154,-0.045076,0.001000,0.001000,0.001000,0.001000,0.001000
1008.365385,-0.045589,0.001000,0.001000,0.001000,0.001000,0.001000
1008.384615,-0.046074,0.001000,0.001000,0.001000,0.001000,0.001000
1008.403846,-0.046533,0.001000,0.001000,0.001000,0.001000,0.001000
1008.423077,-0.046963,0.001000,0.001000,0.001000,0.001000,0.001000
1008.442308,-0.047367,0.001000,0.001000,0.001000,0.001000,0.001000
1008.461538,-0.047742,0.001000,0.001000,0.001000,0.001000,0.001000
1008.480769,-0.048089,0.001000,0.001000,0.001000,0.001000,0.001000
1008.500000,-0.048407,0.001000,0.001000,0.001000,0.001000,0.001000
1008.519231,-0.048697,0.001000,0.001000,0.001000,0.001000,0.001000
1008.538462,-0.048958,0.001000,0.001000,0.001000,0.001000,0.001000
1008.557692,-0.049191,0.001000,0.001000,0.001000,0.001000,0.001000
1008.576923,-0.049394,0.001000,0.001000,0.001000,0.001000,0.001000
1008.596154,-0.049568,0.001000,0.001000,0.001000,0.001000,0.001000
1008.615385,-0.049713,0.001000,0.001000,0.001000,0.001000,0.001000
1008.634615,-0.049828,0.001000,0.001000,0.001000,0.001000,0.001000
1008.653846,-0.049914,0.001000,0.001000,0.001000,0.001000,0.001000
1008.673077,-0.049971,0.001000,0.001000,0.001000,0.001000,0.001000
1008.692308,-0.049997,0.001000,0.001000,0.001000,0.001000,0.001000
1008.711538,-0.049995,0.001000,0.001000,0.001000,0.001000,0.001000
1008.730769,-0.049963,0.001000,0.001000,0.001000,0.001000,0.001000
1008.750000,-0.049901,0.001000,0.001000,0.001000,0.001000,0.001000
1008.769231,-0.049810,0.001000,0.001000,0.001000,0.001000,0.001000
1008.788462,-0.049690,0.001000,0.001000,0.001000,0.001000,0.001000
1008.807692,-0.049540,0.001000,0.001000,0.001000,0.001000,0.001000
1008.826923,-0.049361,0.001000,0.001000,0.001000,0.001000,0.001000
1008.846154,-0.049152,0.001000,0.001000,0.001000,0.001000,0.001000
1008.865385,-0.048915,0.001000,0.001000,0.001000,0.001000,0.001000
1008.884615,-0.048649,0.001000,0.001000,0.001000,0.001000,0.001000
1008.903846,-0.048354,0.001000,0.001000,0.001000,0.001000,0.001000
1008.923077,-0.048031,0.001000,0.001000,0.001000,0.001000,0.001000
1008.942308,-0.047679,0.001000,0.001000,0.001000,0.001000,0.001000
1008.961538,-0.047299,0.001000,0.001000,0.001000,0.001000,0.001000
1008.980769,-0.046891,0.001000,0.001000,0.001000,0.001000,0.001000
1009.000000,-0.046455,0.001000,0.001000,0.001000,0.001000,0.001000
1009.019231,-0.045992,0.001000,0.001000,0.001000,0.001000,0.001000
1009.038462,-0.045502,0.001000,0.001000,0.001000,0.001000,0.001000
1009.057692,-0.044985,0.001000,0.001000,0.001000,0.001000,0.001000
1009.076923,-0.044441,0.001000,0.001000,0.001000,0.001000,0.001000
1009.096154,-0.043871,0.001000,0.001000,0.001000,0.001000,0.001000
1009.115385,-0.043275,0.001000,0.001000,0.001000,0.001000,0.001000
1009.134615,-0.042654,0.001000,0.001000,0.001000,0.001000,0.001000
1009.153846,-0.042007,0.001000,0.001000,0.001000,0.001000,0.001000
1009.173077,-0.041336,0.001000,0.001000,0.001000,0.001000,0.001000
1009.192308,-0.040640,0.001000,0.001000,0.001000,0.001000,0.001000
1009.211538,-0.039920,0.001000,0.001000,0.001000,0.001000,0.001000
1009.230769,-0.039176,0.001000,0.001000,0.001000,0.001000,0.001000
1009.250000,-0.038410,0.001000,0.001000,0.001000,0.001000,0.001000
1009.269231,-0.037621,0.001000,0.001000,0.001000,0.001000,0.001000
1009.288462,-0.036809,0.001000,0.001000,0.001000,0.001000,0.001000
1009.307692,-0.035976,0.001000,0.001000,0.001000,0.001000,0.001000
1009.326923,-0.035121,0.001000,0.001000,0.001000,0.001000,0.001000
1009.346154,-0.034246,0.001000,0.001000,0.001000,0.001000,0.001000
1009.365385,-0.033351,0.001000,0.001000,0.001000,0.001000,0.001000
1009.384615,-0.032436,0.001000,0.001000,0.001000,0.001000,0.001000
1009.403846,-0.031501,0.001000,0.001000,0.001000,0.001000,0.001000
1009.423077,-0.030548,0.001000,0.001000,0.001000,0.001000,0.001000
1009.442308,-0.029577,0.001000,0.001000,0.001000,0.001000,0.001000
1009.461538,-0.028589,0.001000,0.001000,0.001000,0.001000,0.001000
1009.480769,-0.027584,0.001000,0.001000,0.001000,0.001000,0.001000
1009.500000,-0.026562,0.001000,0.001000,0.001000,0.001000,0.001000
1009.519231,-0.025525,0.001000,0.001000,0.001000,0.001000,0.001000
1009.538462,-0.024472,0.001000,0.001000,0.001000,0.001000,0.001000
1009.557692,-0.023406,0.001000,0.001000,0.001000,0.001000,0.001000
1009.576923,-0.022325,0.001000,0.001000,0.001000,0.001000,0.001000
1009.596154,-0.021231,0.001000,0.001000,0.001000,0.001000,0.001000
1009.615385,-0.020125,0.001000,0.001000,0.001000,0.001000,0.001000
1009.634615,-0.019006,0.001000,0.001000,0.001000,0.001000,0.001000
1009.653846,-0.017877,0.001000,0.001000,0.001000,0.001000,0.001000
1009.673077,-0.016737,0.001000,0.001000,0.001000,0.001000,0.001000
1009.692308,-0.015587,0.001000,0.001000,0.001000,0.001000,0.001000
1009.711538,-0.014428,0.001000,0.001000,0.001000,0.001000,0.001000
1009.730769,-0.013260,0.001000,0.001000,0.001000,0.001000,0.001000
1009.750000,-0.012085,0.001000,0.001000,0.001000,0.001000,0.001000
1009.769231,-0.010902,0.001000,0.001000,0.001000,0.001000,0.001000
1009.788462,-0.009713,0.001000,0.001000,0.001000,0.001000,0.001000
1009.807692,-0.008518,0.001000,0.001000,0.001000,0.001000,0.001000
1009.826923,-0.007318,0.001000,0.001000,0.001000,0.001000,0.001000
1009.846154,-0.006114,0.001000,0.001000,0.001000,0.001000,0.001000
1009.865385,-0.004906,0.001000,0.001000,0.001000,0.001000,0.001000
1009.884615,-0.003696,0.001000,0.001000,0.001000,0.001000,0.001000
1009.903846,-0.002483,0.001000,0.001000,0.001000,0.001000,0.001000
1009.923077,-0.001268,0.001000,0.001000,0.001000,0.001000,0.001000
1009.942308,-0.000053,0.001000,0.001000,0.001000,0.001000,0.001000
1009.961538,0.001162,0.001000,0.001000,0.001000,0.001000,0.001000
1009.980769,0.002376,0.001000,0.001000,0.001000,0.001000,0.001000
1010.000000,0.003589,0.001000,0.001000,0.001000,0.001000,0.001000
1010.019231,0.004800,0.001000,0.001000,0.001000,0.001000,0.001000
1010.038462,0.006008,0.001000,0.001000,0.001000,0.001000,0.001000
1010.057692,0.007213,0.001000,0.001000,0.001000,0.001000,0.001000
1010.076923,0.008413,0.001000,0.001000,0.001000,0.001000,0.001000
1010.096154,0.009608,0.001000,0.001000,0.001000,0.001000,0.001000
1010.115385,0.010798,0.001000,0.001000,0.001000,0.001000,0.001000
1010.134615,0.011981,0.001000,0.001000,0.001000,0.001000,0.001000
1010.153846,0.013157,0.001000,0.001000,0.001000,0.001000,0.001000
1010.173077,0.014326,0.001000,0.001000,0.001000,0.001000,0.001000
1010.192308,0.015486,0.001000,0.001000,0.001000,0.001000,0.001000
1010.211538,0.016636,0.001000,0.001000,0.001000,0.001000,0.001000
1010.230769,0.017777,0.001000,0.001000,0.001000,0.001000,0.001000
1010.250000,0.018908,0.001000,0.001000,0.001000,0.001000,0.001000
1010.269231,0.020027,0.001000,0.001000,0.001000,0.001000,0.001000
1010.288462,0.021134,0.001000,0.001000,0.001000,0.001000,0.001000
1010.307692,0.022229,0.001000,0.001000,0.001000,0.001000,0.001000
1010.326923,0.023311,0.001000,0.001000,0.001000,0.001000,0.001000
1010.346154,0.024379,0.001000,0.001000,0.001000,0.001000,0.001000
1010.365385,0.025433,0.001000,0.001000,0.001000,0.001000,0.001000
1010.384615,0.026472,0.001000,0.001000,0.001000,0.001000,0.001000
1010.403846,0.027495,0.001000,0.001000,0.001000,0.001000,0.001000
1010.423077,0.028501,0.001000,0.001000,0.001000,0.001000,0.001000
1010.442308,0.029491,0.001000,0.001000,0.001000,0.001000,0.001000
1010.461538,0.030464,0.001000,0.001000,0.001000,0.001000,0.001000
1010.480769,0.031418,0.001000,0.001000,0.001000,0.001000,0.001000
1010.500000,0.032354,0.001000,0.001000,0.001000,0.001000,0.001000
1010.519231,0.033271,0.001000,0.001000,0.001000,0.001000,0.001000
1010.538462,0.034168,0.001000,0.001000,0.001000,0.001000,0.001000
1010.557692,0.035045,0.001000,0.001000,0.001000,0.001000,0.001000
1010.576923,0.035902,0.001000,0.001000,0.001000,0.001000,0.001000
1010.596154,0.036737,0.001000,0.001000,0.001000,0.001000,0.001000
1010.615385,0.037550,0.001000,0.001000,0.001000,0.001000,0.001000
1010.634615,0.038341,0.001000,0.001000,0.001000,0.001000,0.001000
1010.653846,0.039110,0.001000,0.001000,0.001000,0.001000,0.001000
1010.673077,0.039856,0.001000,0.001000,0.001000,0.001000,0.001000
1010.692308,0.040578,0.001000,0.001000,0.001000,0.001000,0.001000
1010.711538,0.041275,0.001000,0.001000,0.001000,0.001000,0.001000
1010.730769,0.041949,0.001000,0.001000,0.001000,0.001000,0.001000
1010.750000,0.042598,0.001000,0.001000,0.001000,0.001000,0.001000
1010.769231,0.043222,0.001000,0.001000,0.001000,0.001000,0.001000
1010.788462,0.043820,0.001000,0.001000,0.001000,0.001000,0.001000
1010.807692,0.044392,0.001000,0.001000,0.001000,0.001000,0.001000
1010.826923,0.044938,0.001000,0.001000,0.001000,0.001000,0.001000
1010.846154,0.045457,0.001000,0.001000,0.001000,0.001000,0.001000
1010.865385,0.045950,0.001000,0.001000,0.001000,0.001000,0.001000
1010.884615,0.046416,0.001000,0.001000,0.001000,0.001000,0.001000
1010.903846,0.046854,0.001000,0.001000,0.001000,0.001000,0.001000
1010.923077,0.047264,0.001000,0.001000,0.001000,0.001000,0.001000
1010.942308,0.047646,0.001000,0.001000,0.001000,0.001000,0.001000
1010.961538,0.048001,0.001000,0.001000,0.001000,0.001000,0.001000
1010.980769,0.048327,0.001000,0.001000,0.001000,0.001000,0.001000
1011.000000,0.048624,0.001000,0.001000,0.001000,0.001000,0.001000
1011.019231,0.048893,0.001000,0.001000,0.001000,0.001000,0.001000
1011.038462,0.049133,0.001000,0.001000,0.001000,0.001000,0.001000
1011.057692,0.049344,0.001000,0.001000,0.001000,0.001000,0.001000
1011.076923,0.049525,0.001000,0.001000,0.001000,0.001000,0.001000
1011.096154,0.049678,0.001000,0.001000,0.001000,0.001000,0.001000
1011.115385,0.049801,0.001000,0.001000,0.001000,0.001000,0.001000
1011.134615,0.049894,0.001000,0.001000,0.001000,0.001000,0.001000
1011.153846,0.049959,0.001000,0.001000,0.001000,0.001000,0.001000
1011.173077,0.049993,0.001000,0.001000,0.001000,0.001000,0.001000
1011.192308,0.049998,0.001000,0.001000,0.001000,0.001000,0.001000
1011.211538,0.049974,0.001000,0.001000,0.001000,0.001000,0.001000
1011.230769,0.049920,0.001000,0.001000,0.001000,0.001000,0.001000
1011.250000,0.049837,0.001000,0.001000,0.001000,0.001000,0.001000
1011.269231,0.049724,0.001000,0.001000,0.001000,0.001000,0.001000
1011.288462,0.049582,0.001000,0.001000,0.001000,0.001000,0.001000
1011.307692,0.049410,0.001000,0.001000,0.001000,0.001000,0.001000
1011.326923,0.049210,0.001000,0.001000,0.001000,0.001000,0.001000
1011.346154,0.048980,0.001000,0.001000,0.001000,0.001000,0.001000
1011.365385,0.048721,0.001000,0.001000,0.001000,0.001000,0.001000
1011.384615,0.048434,0.001000,0.001000,0.001000,0.001000,0.001000
1011.403846,0.048118,0.001000,0.001000,0.001000,0.001000,0.001000
1011.423077,0.047773,0.001000,0.001000,0.001000,0.001000,0.001000
1011.442308,0.047401,0.001000,0.001000,0.001000,0.001000,0.001000
1011.461538,0.047000,0.001000,0.001000,0.001000,0.001000,0.001000
1011.480769,0.046571,0.001000,0.001000,0.001000,0.001000,0.001000
1011.500000,0.046115,0.001000,0.001000,0.001000,0.001000,0.001000
1011.519231,0.045632,0.001000,0.001000,0.001000,0.001000,0.001000
1011.538462,0.045122,0.001000,0.001000,0.001000,0.001000,0.001000
1011.557692,0.044585,0.001000,0.001000,0.001000,0.001000,0.001000
1011.576923,0.044022,0.001000,0.001000,0.001000,0.001000,0.001000
1011.596154,0.043433,0.001000,0.001000,0.001000,0.001000,0.001000
1011.615385,0.042818,0.001000,0.001000,0.001000,0.001000,0.001000
1011.634615,0.042178,0.001000,0.001000,0.001000,0.001000,0.001000
1011.653846,0.041513,0.001000,0.001000,0.001000,0.001000,0.001000
1011.673077,0.040824,0.001000,0.001000,0.001000,0.001000,0.001000
1011.692308,0.040110,0.001000,0.001000,0.001000,0.001000,0.001000
1011.711538,0.039373,0.001000,0.001000,0.001000,0.001000,0.001000
1011.730769,0.038612,0.001000,0.001000,0.001000,0.001000,0.001000
1011.750000,0.037829,0.001000,0.001000,0.001000,0.001000,0.001000
1011.769231,0.037023,0.001000,0.001000,0.001000,0.001000,0.001000
1011.788462,0.036195,0.001000,0.001000,0.001000,0.001000,0.001000
1011.807692,0.035346,0.001000,0.001000,0.001000,0.001000,0.001000
1011.826923,0.034477,0.001000,0.001000,0.001000,0.001000,0.001000
1011.846154,0.033586,0.001000,0.001000,0.001000,0.001000,0.001000
1011.865385,0.032676,0.001000,0.001000,0.001000,0.001000,0.001000
1011.884615,0.031747,0.001000,0.001000,0.001000,0.001000,0.001000
1011.903846,0.030799,0.001000,0.001000,0.001000,0.001000,0.001000
1011.923077,0.029832,0.001000,0.001000,0.001000,0.001000,0.001000
1011.942308,0.028849,0.001000,0.001000,0.001000,0.001000,0.001000
1011.961538,0.027848,0.001000,0.001000,0.001000,0.001000,0.001000
1011.980769,0.026830,0.001000,0.001000,0.001000,0.001000,0.001000
1012.000000,0.025797,0.001000,0.001000,0.001000,0.001000,0.001000
1012.019231,0.024748,0.001000,0.001000,0.001000,0.001000,0.001000
1012.038462,0.023685,0.001000,0.001000,0.001000,0.001000,0.001000
1012.057692,0.022608,0.001000,0.001000,0.001000,0.001000,0.001000
1012.076923,0.021518,0.001000,0.001000,0.001000,0.001000,0.001000
1012.096154,0.020415,0.001000,0.001000,0.001000,0.001000,0.001000
1012.115385,0.019299,0.001000,0.001000,0.001000,0.001000,0.001000
1012.134615,0.018173,0.001000,0.001000,0.001000,0.001000,0.001000
1012.153846,0.017035,0.001000,0.001000,0.001000,0.001000,0.001000
1012.173077,0.015888,0.001000,0.001000,0.001000,0.001000,0.001000
1012.192308,0.014731,0.001000,0.001000,0.001000,0.001000,0.001000
1012.211538,0.013566,0.001000,0.001000,0.001000,0.001000,0.001000
1012.230769,0.012392,0.001000,0.001000,0.001000,0.001000,0.001000
1012.250000,0.011211,0.001000,0.001000,0.001000,0.001000,0.001000
1012.269231,0.010024,0.001000,0.001000,0.001000,0.001000,0.001000
1012.288462,0.008830,0.001000,0.001000,0.001000,0.001000,0.001000
1012.307692,0.007632,0.001000,0.001000,0.001000,0.001000,0.001000
1012.326923,0.006429,0.001000,0.001000,0.001000,0.001000,0.001000
1012.346154,0.005222,0.001000,0.001000,0.001000,0.001000,0.001000
1012.365385,0.004012,0.001000,0.001000,0.001000,0.001000,0.001000
1012.384615,0.002799,0.001000,0.001000,0.001000,0.001000,0.001000
1012.403846,0.001585,0.001000,0.001000,0.001000,0.001000,0.001000
1012.423077,0.000370,0.001000,0.001000,0.001000,0.001000,0.001000
1012.442308,-0.000845,0.001000,0.001000,0.001000,0.001000,0.001000
1012.461538,-0.002059,0.001000,0.001000,0.001000,0.001000,0.001000
1012.480769,-0.003273,0.001000,0.001000,0.001000,0.001000,0.001000
1012.500000,-0.004484,0.001000,0.001000,0.001000,0.001000,0.001000
1012.519231,-0.005693,0.001000,0.001000,0.001000,0.001000,0.001000
1012.538462,-0.006899,0.001000,0.001000,0.001000,0.001000,0.001000
1012.557692,-0.008100,0.001000,0.001000,0.001000,0.001000,0.001000
1012.576923,-0.009297,0.001000,0.001000,0.001000,0.001000,0.001000
1012.596154,-0.010488,0.001000,0.001000,0.001000,0.001000,0.001000
1012.615385,-0.011673,0.001000,0.001000,0.001000,0.001000,0.001000
1012.634615,-0.012851,0.001000,0.001000,0.001000,0.001000,0.001000
1012.653846,-0.014022,0.001000,0.001000,0.001000,0.001000,0.001000
1012.673077,-0.015184,0.001000,0.001000,0.001000,0.001000,0.001000
1012.692308,-0.016337,0.001000,0.001000,0.001000,0.001000,0.001000
1012.711538,-0.017481,0.001000,0.001000,0.001000,0.001000,0.001000
1012.730769,-0.018614,0.001000,0.001000,0.001000,0.001000,0.001000
1012.750000,-0.019736,0.001000,0.001000,0.001000,0.001000,0.001000
1012.769231,-0.020847,0.001000,0.001000,0.001000,0.001000,0.001000
1012.788462,-0.021945,0.001000,0.001000,0.001000,0.001000,0.001000
1012.807692,-0.023030,0.001000,0.001000,0.001000,0.001000,0.001000
1012.826923,-0.024102,0.001000,0.001000,0.001000,0.001000,0.001000
1012.846154,-0.025159,0.001000,0.001000,0.001000,0.001000,0.001000
1012.865385,-0.026202,0.001000,0.001000,0.001000,0.001000,0.001000
1012.884615,-0.027229,0.001000,0.001000,0.001000,0.001000,0.001000
1012.903846,-0.028240,0.001000,0.001000,0.001000,0.001000,0.001000
1012.923077,-0.029235,0.001000,0.001000,0.001000,0.001000,0.001000
1012.942308,-0.030212,0.001000,0.001000,0.001000,0.001000,0.001000
1012.961538,-0.031171,0.001000,0.001000,0.001000,0.001000,0.001000
1012.980769,-0.032112,0.001000,0.001000,0.001000,0.001000,0.001000
1013.000000,-0.033034,0.001000,0.001000,0.001000,0.001000,0.001000
1013.019231,-0.033936,0.001000,0.001000,0.001000,0.001000,0.001000
1013.038462,-0.034819,0.001000,0.001000,0.001000,0.001000,0.001000
1013.057692,-0.035680,0.001000,0.001000,0.001000,0.001000,0.001000
1013.076923,-0.036521,0.001000,0.001000,0.001000,0.001000,0.001000
1013.096154,-0.037340,0.001000,0.001000,0.001000,0.001000,0.001000
1013.115385,-0.038137,0.001000,0.001000,0.001000,0.001000,0.001000
1013.134615,-0.038912,0.001000,0.001000,0.001000,0.001000,0.001000
1013.153846,-0.039663,0.001000,0.001000,0.001000,0.001000,0.001000
1013.173077,-0.040391,0.001000,0.001000,0.001000,0.001000,0.001000
1013.192308,-0.041096,0.001000,0.001000,0.001000,0.001000,0.001000
1013.211538,-0.041776,0.001000,0.001000,0.001000,0.001000,0.001000
1013.230769,-0.042431,0.001000,0.001000,0.001000,0.001000,0.001000
1013.250000,-0.043061,0.001000,0.001000,0.001000,0.001000,0.001000
1013.269231,-0.043666,0.001000,0.001000,0.001000,0.001000,0.001000
1013.288462,-0.044245,0.001000,0.001000,0.001000,0.001000,0.001000
1013.307692,-0.044798,0.001000,0.001000,0.001000,0.001000,0.001000
1013.326923,-0.045324,0.001000,0.001000,0.001000,0.001000,0.001000
1013.346154,-0.045824,0.001000,0.001000,0.001000,0.001000,0.001000
1013.365385,-0.046297,0.001000,0.001000,0.001000,0.001000,0.001000
1013.384615,-0.046742,0.001000,0.001000,0.001000,0.001000,0.001000
1013.403846,-0.047160,0.001000,0.001000,0.001000,0.001000,0.001000
1013.423077,-0.047549,0.001000,0.001000,0.001000,0.001000,0.001000
1013.442308,-0.047911,0.001000,0.001000,0.001000,0.001000,0.001000
1013.461538,-0.048244,0.001000,0.001000,0.001000,0.001000,0.001000
1013.480769,-0.048549,0.001000,0.001000,0.001000,0.001000,0.001000
1013.500000,-0.048826,0.001000,0.001000,0.001000,0.001000,0.001000
1013.519231,-0.049073,0.001000,0.001000,0.001000,0.001000,0.001000
1013.538462,-0.049291,0.001000,0.001000,0.001000,0.001000,0.001000
1013.557692,-0.049481,0.001000,0.001000,0.001000,0.001000,0.001000
1013.576923,-0.049641,0.001000,0.001000,0.001000,0.001000,0.001000
1013.596154,-0.049771,0.001000,0.001000,0.001000,0.001000,0.001000
1013.615385,-0.049873,0.001000,0.001000,0.001000,0.001000,0.001000
1013.634615,-0.049945,0.001000,0.001000,0.001000,0.001000,0.001000
1013.653846,-0.049987,0.001000,0.001000,0.001000,0.001000,0.001000
1013.673077,-0.050000,0.001000,0.001000,0.001000,0.001000,0.001000
1013.692308,-0.049983,0.001000,0.001000,0.001000,0.001000,0.001000
1013.711538,-0.049937,0.001000,0.001000,0.001000,0.001000,0.001000
1013.730769,-0.049861,0.001000,0.001000,0.001000,0.001000,0.001000
1013.750000,-0.049756,0.001000,0.001000,0.001000,0.001000,0.001000
1013.769231,-0.049622,0.001000,0.001000,0.001000,0.001000,0.001000
1013.788462,-0.049458,0.001000,0.001000,0.001000,0.001000,0.001000
1013.807692,-0.049265,0.001000,0.001000,0.001000,0.001000,0.001000
1013.826923,-0.049043,0.001000,0.001000,0.001000,0.001000,0.001000
1013.846154,-0.048791,0.001000,0.001000,0.001000,0.001000,0.001000
1013.865385,-0.048512,0.001000,0.001000,0.001000,0.001000,0.001000
1013.884615,-0.048203,0.001000,0.001000,0.001000,0.001000,0.001000
1013.903846,-0.047866,0.001000,0.001000,0.001000,0.001000,0.001000
1013.923077,-0.047501,0.001000,0.001000,0.001000,0.001000,0.001000
1013.942308,-0.047107,0.001000,0.001000,0.001000,0.001000,0.001000
1013.961538,-0.046686,0.001000,0.001000,0.001000,0.001000,0.001000
1013.980769,-0.046237,0.001000,0.001000,0.001000,0.001000,0.001000
1014.000000,-0.045761,0.001000,0.001000,0.001000,0.001000,0.001000
1014.019231,-0.045258,0.001000,0.001000,0.001000,0.001000,0.001000
1014.038462,-0.044728,0.001000,0.001000,0.001000,0.001000,0.001000
1014.057692,-0.044172,0.001000,0.001000,0.001000,0.001000,0.001000
1014.076923,-0.043589,0.001000,0.001000,0.001000,0.001000,0.001000
1014.096154,-0.042981,0.001000,0.001000,0.001000,0.001000,0.001000
1014.115385,-0.042348,0.001000,0.001000,0.001000,0.001000,0.001000
1014.134615,-0.041689,0.001000,0.001000,0.001000,0.001000,0.001000
1014.153846,-0.041006,0.001000,0.001000,0.001000,0.001000,0.001000
1014.173077,-0.040299,0.001000,0.001000,0.001000,0.001000,0.001000
1014.192308,-0.039567,0.001000,0.001000,0.001000,0.001000,0.001000
1014.211538,-0.038813,0.001000,0.001000,0.001000,0.001000,0.001000
1014.230769,-0.038035,0.001000,0.001000,0.001000,0.001000,0.001000
1014.250000,-0.037235,0.001000,0.001000,0.001000,0.001000,0.001000
1014.269231,-0.036413,0.001000,0.001000,0.001000,0.001000,0.001000
1014.288462,-0.035570,0.001000,0.001000,0.001000,0.001000,0.001000
1014.307692,-0.034706,0.001000,0.001000,0.001000,0.001000,0.001000
1014.326923,-0.033821,0.001000,0.001000,0.001000,0.001000,0.001000
1014.346154,-0.032916,0.001000,0.001000,0.001000,0.001000,0.001000
1014.365385,-0.031991,0.001000,0.001000,0.001000,0.001000,0.001000
1014.384615,-0.031048,0.001000,0.001000,0.001000,0.001000,0.001000
1014.403846,-0.030086,0.001000,0.001000,0.001000,0.001000,0.001000
1014.423077,-0.029107,0.001000,0.001000,0.001000,0.001000,0.001000
1014.442308,-0.028110,0.001000,0.001000,0.001000,0.001000,0.001000
1014.461538,-0.027097,0.001000,0.001000,0.001000,0.001000,0.001000
1014.480769,-0.026068,0.001000,0.001000,0.001000,0.001000,0.001000
1014.500000,-0.025023,0.001000,0.001000,0.001000,0.001000,0.001000
1014.519231,-0.023964,0.001000,0.001000,0.001000,0.001000,0.001000
1014.538462,-0.022891,0.001000,0.001000,0.001000,0.001000,0.001000
1014.557692,-0.021804,0.001000,0.001000,0.001000,0.001000,0.001000
1014.576923,-0.020704,0.001000,0.001000,0.001000,0.001000,0.001000
1014.596154,-0.019591,0.001000,0.001000,0.001000,0.001000,0.001000
1014.615385,-0.018468,0.001000,0.001000,0.001000,0.001000,0.001000
1014.634615,-0.017333,0.001000,0.001000,0.001000,0.001000,0.001000
1014.653846,-0.016188,0.001000,0.001000,0.001000,0.001000,0.001000
1014.673077,-0.015034,0.001000,0.001000,0.001000,0.001000,0.001000
1014.692308,-0.013871,0.001000,0.001000,0.001000,0.001000,0.001000
1014.711538,-0.012699,0.001000,0.001000,0.001000,0.001000,0.001000
1014.730769,-0.011520,0.001000,0.001000,0.001000,0.001000,0.001000
1014.750000,-0.010334,0.001000,0.001000,0.001000,0.001000,0.001000
1014.769231,-0.009142,0.001000,0.001000,0.001000,0.001000,0.001000
1014.788462,-0.007945,0.001000,0.001000,0.001000,0.001000,0.001000
1014.807692,-0.006743,0.001000,0.001000,0.001000,0.001000,0.001000
1014.826923,-0.005537,0.001000,0.001000,0.001000,0.001000,0.001000
1014.846154,-0.004328,0.001000,0.001000,0.001000,0.001000,0.001000
1014.865385,-0.003116,0.001000,0.001000,0.001000,0.001000,0.001000
1014.884615,-0.001902,0.001000,0.001000,0.001000,0.001000,0.001000
1014.903846,-0.000688,0.001000,0.001000,0.001000,0.001000,0.001000
1014.923077,0.000528,0.001000,0.001000,0.001000,0.001000,0.001000
1014.942308,0.001743,0.001000,0.001000,0.001000,0.001000,0.001000
1014.961538,0.002956,0.001000,0.001000,0.001000,0.001000,0.001000
1014.980769,0.004168,0.001000,0.001000,0.001000,0.001000,0.001000
1015.000000,0.005378,0.001000,0.001000,0.001000,0.001000,0.001000
1015.019231,0.006585,0.001000,0.001000,0.001000,0.001000,0.001000
1015.038462,0.007787,0.001000,0.001000,0.001000,0.001000,0.001000
1015.057692,0.008985,0.001000,0.001000,0.001000,0.001000,0.001000
1015.076923,0.010178,0.001000,0.001000,0.001000,0.001000,0.001000
1015.096154,0.011364,0.001000,0.001000,0.001000,0.001000,0.001000
1015.115385,0.012544,0.001000,0.001000,0.001000,0.001000,0.001000
1015.134615,0.013717,0.001000,0.001000,0.001000,0.001000,0.001000
1015.153846,0.014881,0.001000,0.001000,0.001000,0.001000,0.001000
1015.173077,0.016037,0.001000,0.001000,0.001000,0.001000,0.001000
1015.192308,0.017183,0.001000,0.001000,0.001000,0.001000,0.001000
1015.211538,0.018319,0.001000,0.001000,0.001000,0.001000,0.001000
1015.230769,0.019444,0.001000,0.001000,0.001000,0.001000,0.001000
1015.250000,0.020558,0.001000,0.001000,0.001000,0.001000,0.001000
1015.269231,0.021660,0.001000,0.001000,0.001000,0.001000,0.001000
1015.288462,0.022748,0.001000,0.001000,0.001000,0.001000,0.001000
1015.307692,0.023824,0.001000,0.001000,0.001000,0.001000,0.001000
1015.326923,0.024885,0.001000,0.001000,0.001000,0.001000,0.001000
1015.346154,0.025931,0.001000,0.001000,0.001000,0.001000,0.001000
1015.365385,0.026963,0.001000,0.001000,0.001000,0.001000,0.001000
1015.384615,0.027978,0.001000,0.001000,0.001000,0.001000,0.001000
1015.403846,0.028977,0.001000,0.001000,0.001000,0.001000,0.001000
1015.423077,0.029958,0.001000,0.001000,0.001000,0.001000,0.001000
1015.442308,0.030922,0.001000,0.001000,0.001000,0.001000,0.001000
1015.461538,0.031868,0.001000,0.001000,0.001000,0.001000,0.001000
1015.480769,0.032795,0.001000,0.001000,0.001000,0.001000,0.001000
1015.500000,0.033703,0.001000,0.001000,0.001000,0.001000,0.001000
1015.519231,0.034590,0.001000,0.001000,0.001000,0.001000,0.001000
1015.538462,0.035457,0.001000,0.001000,0.001000,0.001000,0.001000
1015.557692,0.036304,0.001000,0.001000,0.001000,0.001000,0.001000
1015.576923,0.037128,0.001000,0.001000,0.001000,0.001000,0.001000
1015.596154,0.037931,0.001000,0.001000,0.001000,0.001000,0.001000
1015.615385,0.038712,0.001000,0.001000,0.001000,0.001000,0.001000
1015.634615,0.039469,0.001000,0.001000,0.001000,0.001000,0.001000
1015.653846,0.040204,0.001000,0.001000,0.001000,0.001000,0.001000
1015.673077,0.040914,0.001000,0.001000,0.001000,0.001000,0.001000
1015.692308,0.041601,0.001000,0.001000,0.001000,0.001000,0.001000
1015.711538,0.042262,0.001000,0.001000,0.001000,0.001000,0.001000
1015.730769,0.042899,0.001000,0.001000,0.001000,0.001000,0.001000
1015.750000,0.043511,0.001000,0.001000,0.001000,0.001000,0.001000
1015.769231,0.044096,0.001000,0.001000,0.001000,0.001000,0.001000
1015.788462,0.044656,0.001000,0.001000,0.001000,0.001000,0.001000
1015.807692,0.045190,0.001000,0.001000,0.001000,0.001000,0.001000
1015.826923,0.045696,0.001000,0.001000,0.001000,0.001000,0.001000
1015.846154,0.046176,0.001000,0.001000,0.001000,0.001000,0.001000
1015.865385,0.046628,0.001000,0.001000,0.001000,0.001000,0.001000
1015.884615,0.047053,0.001000,0.001000,0.001000,0.001000,0.001000
1015.903846,0.047450,0.001000,0.001000,0.001000,0.001000,0.001000
1015.923077,0.047819,0.001000,0.001000,0.001000,0.001000,0.001000
1015.942308,0.048160,0.001000,0.001000,0.001000,0.001000,0.001000
1015.961538,0.048473,0.001000,0.001000,0.001000,0.001000,0.001000
1015.980769,0.048756,0.001000,0.001000,0.001000,0.001000,0.001000
1016.000000,0.049011,0.001000,0.001000,0.001000,0.001000,0.001000
1016.019231,0.049237,0.001000,0.001000,0.001000,0.001000,0.001000
1016.038462,0.049434,0.001000,0.001000,0.001000,0.001000,0.001000
1016.057692,0.049602,0.001000,0.001000,0.001000,0.001000,0.001000
1016.076923,0.049740,0.001000,0.001000,0.001000,0.001000,0.001000
1016.096154,0.049849,0.001000,0.001000,0.001000,0.001000,0.001000
1016.115385,0.049929,0.001000,0.001000,0.001000,0.001000,0.001000
1016.134615,0.049979,0.001000,0.001000,0.001000,0.001000,0.001000
1016.153846,0.049999,0.001000,0.001000,0.001000,0.001000,0.001000
1016.173077,0.049990,0.001000,0.001000,0.001000,0.001000,0.001000
1016.192308,0.049952,0.001000,0.001000,0.001000,0.001000,0.001000
1016.211538,0.049884,0.001000,0.001000,0.001000,0.001000,0.001000
1016.230769,0.049786,0.001000,0.001000,0.001000,0.001000,0.001000
1016.250000,0.049660,0.001000,0.001000,0.001000,0.001000,0.001000
1016.269231,0.049503,0.001000,0.001000,0.001000,0.001000,0.001000
1016.288462,0.049318,0.001000,0.001000,0.001000,0.001000,0.001000
1016.307692,0.049103,0.001000,0.001000,0.001000,0.001000,0.001000
1016.326923,0.048860,0.001000,0.001000,0.001000,0.001000,0.001000
1016.346154,0.048587,0.001000,0.001000,0.001000,0.001000,0.001000
1016.365385,0.048286,0.001000,0.001000,0.001000,0.001000,0.001000
1016.384615,0.047957,0.001000,0.001000,0.001000,0.001000,0.001000
1016.403846,0.047599,0.001000,0.001000,0.001000,0.001000,0.001000
1016.423077,0.047212,0.001000,0.001000,0.001000,0.001000,0.001000
1016.442308,0.046798,0.001000,0.001000,0.001000,0.001000,0.001000
1016.461538,0.046357,0.001000,0.001000,0.001000,0.001000,0.001000
1016.480769,0.045888,0.001000,0.001000,0.001000,0.001000,0.001000
1016.500000,0.045392,0.001000,0.001000,0.001000,0.001000,0.001000
1016.519231,0.044869,0.001000,0.001000,0.001000,0.001000,0.001000
1016.538462,0.044319,0.001000,0.001000,0.001000,0.001000,0.001000
1016.557692,0.043744,0.001000,0.001000,0.001000,0.001000,0.001000
1016.576923,0.043142,0.001000,0.001000,0.001000,0.001000,0.001000
1016.596154,0.042515,0.001000,0.001000,0.001000,0.001000,0.001000
1016.615385,0.041863,0.001000,0.001000,0.001000,0.001000,0.001000
1016.634615,0.041187,0.001000,0.001000,0.001000,0.001000,0.001000
1016.653846,0.040485,0.001000,0.001000,0.001000,0.001000,0.001000
1016.673077,0.039760,0.001000,0.001000,0.001000,0.001000,0.001000
1016.692308,0.039012,0.001000,0.001000,0.001000,0.001000,0.001000
1016.711538,0.038240,0.001000,0.001000,0.001000,0.001000,0.001000
1016.730769,0.037446,0.001000,0.001000,0.001000,0.001000,0.001000
1016.750000,0.036630,0.001000,0.001000,0.001000,0.001000,0.001000
1016.769231,0.035792,0.001000,0.001000,0.001000,0.001000,0.001000
1016.788462,0.034933,0.001000,0.001000,0.001000,0.001000,0.001000
1016.807692,0.034053,0.001000,0.001000,0.001000,0.001000,0.001000
1016.826923,0.033154,0.001000,0.001000,0.001000,0.001000,0.001000
1016.846154,0.032234,0.001000,0.001000,0.001000,0.001000,0.001000
1016.865385,0.031296,0.001000,0.001000,0.001000,0.001000,0.001000
1016.884615,0.030339,0.001000,0.001000,0.001000,0.001000,0.001000
1016.903846,0.029364,0.001000,0.001000,0.001000,0.001000,0.001000
1016.923077,0.028372,0.001000,0.001000,0.001000,0.001000,0.001000
1016.942308,0.027363,0.001000,0.001000,0.001000,0.001000,0.001000
1016.961538,0.026338,0.001000,0.001000,0.001000,0.001000,0.001000
1016.980769,0.025298,0.001000,0.001000,0.001000,0.001000,0.001000
1017.000000,0.024242,0.001000,0.001000,0.001000,0.001000,0.001000
1017.019231,0.023172,0.001000,0.001000,0.001000,0.001000,0.001000
1017.038462,0.022089,0.001000,0.001000,0.001000,0.001000,0.001000
1017.057692,0.020992,0.001000,0.001000,0.001000,0.001000,0.001000
1017.076923,0.019883,0.001000,0.001000,0.001000,0.001000,0.001000
1017.096154,0.018762,0.001000,0.001000,0.001000,0.001000,0.001000
1017.115385,0.017630,0.001000,0.001000,0.001000,0.001000,0.001000
1017.134615,0.016488,0.001000,0.001000,0.001000,0.001000,0.001000
1017.153846,0.015336,0.001000,0.001000,0.001000,0.001000,0.001000
1017.173077,0.014175,0.001000,0.001000,0.001000,0.001000,0.001000
1017.192308,0.013006,0.001000,0.001000,0.001000,0.001000,0.001000
1017.211538,0.011828,0.001000,0.001000,0.001000,0.001000,0.001000
1017.230769,0.010644,0.001000,0.001000,0.001000,0.001000,0.001000
1017.250000,0.009454,0.001000,0.001000,0.001000,0.001000,0.001000
1017.269231,0.008258,0.001000,0.001000,0.001000,0.001000,0.001000
1017.288462,0.007057,0.001000,0.001000,0.001000,0.001000,0.001000
1017.307692,0.005852,0.001000,0.001000,0.001000,0.001000,0.001000
1017.326923,0.004644,0.001000,0.001000,0.001000,0.001000,0.001000
1017.346154,0.003432,0.001000,0.001000,0.001000,0.001000,0.001000
1017.365385,0.002219,0.001000,0.001000,0.001000,0.001000,0.001000
1017.384615,0.001005,0.001000,0.001000,0.001000,0.001000,0.001000
1017.403846,-0.000211,0.001000,0.001000,0.001000,0.001000,0.001000
1017.423077,-0.001426,0.001000,0.001000,0.001000,0.001000,0.001000
1017.442308,-0.002640,0.001000,0.001000,0.001000,0.001000,0.001000
1017.461538,-0.003852,0.001000,0.001000,0.001000,0.001000,0.001000
1017.480769,-0.005063,0.001000,0.001000,0.001000,0.001000,0.001000
1017.500000,-0.006270,0.001000,0.001000,0.001000,0.001000,0.001000
1017.519231,-0.007474,0.001000,0.001000,0.001000,0.001000,0.001000
1017.538462,-0.008673,0.001000,0.001000,0.001000,0.001000,0.001000
1017.557692,-0.009867,0.001000,0.001000,0.001000,0.001000,0.001000
1017.576923,-0.011055,0.001000,0.001000,0.001000,0.001000,0.001000
1017.596154,-0.012237,0.001000,0.001000,0.001000,0.001000,0.001000
1017.615385,-0.013412,0.001000,0.001000,0.001000,0.001000,0.001000
1017.634615,-0.014578,0.001000,0.001000,0.001000,0.001000,0.001000
1017.653846,-0.015736,0.001000,0.001000,0.001000,0.001000,0.001000
1017.673077,-0.016885,0.001000,0.001000,0.001000,0.001000,0.001000
1017.692308,-0.018024,0.001000,0.001000,0.001000,0.001000,0.001000
1017.711538,-0.019152,0.001000,0.001000,0.001000,0.001000,0.001000
1017.730769,-0.020268,0.001000,0.001000,0.001000,0.001000,0.001000
1017.750000,-0.021373,0.001000,0.001000,0.001000,0.001000,0.001000
1017.769231,-0.022465,0.001000,0.001000,0.001000,0.001000,0.001000
1017.788462,-0.023544,0.001000,0.001000,0.001000,0.001000,0.001000
1017.807692,-0.024609,0.001000,0.001000,0.001000,0.001000,0.001000
1017.826923,-0.025660,0.001000,0.001000,0.001000,0.001000,0.001000
1017.846154,-0.026695,0.001000,0.001000,0.001000,0.001000,0.001000
1017.865385,-0.027715,0.001000,0.001000,0.001000,0.001000,0.001000
1017.884615,-0.028718,0.001000,0.001000,0.001000,0.001000,0.001000
1017.903846,-0.029704,0.001000,0.001000,0.001000,0.001000,0.001000
1017.923077,-0.030673,0.001000,0.001000,0.001000,0.001000,0.001000
1017.942308,-0.031623,0.001000,0.001000,0.001000,0.001000,0.001000
1017.961538,-0.032555,0.001000,0.001000,0.001000,0.001000,0.001000
1017.980769,-0.033468,0.001000,0.001000,0.001000,0.001000,0.001000
1018.000000,-0.034361,0.001000,0.001000,0.001000,0.001000,0.001000
1018.019231,-0.035233,0.001000,0.001000,0.001000,0.001000,0.001000
1018.038462,-0.036085,0.001000,0.001000,0.001000,0.001000,0.001000
1018.057692,-0.036915,0.001000,0.001000,0.001000,0.001000,0.001000
1018.076923,-0.037724,0.001000,0.001000,0.001000,0.001000,0.001000
1018.096154,-0.038510,0.001000,0.001000,0.001000,0.001000,0.001000
1018.115385,-0.039274,0.001000,0.001000,0.001000,0.001000,0.001000
1018.134615,-0.040014,0.001000,0.001000,0.001000,0.001000,0.001000
1018.153846,-0.040731,0.001000,0.001000,0.001000,0.001000,0.001000
1018.173077,-0.041424,0.001000,0.001000,0.001000,0.001000,0.001000
1018.192308,-0.042092,0.001000,0.001000,0.001000,0.001000,0.001000
1018.211538,-0.042735,0.001000,0.001000,0.001000,0.001000,0.001000
1018.230769,-0.043354,0.001000,0.001000,0.001000,0.001000,0.001000
1018.250000,-0.043946,0.001000,0.001000,0.001000,0.001000,0.001000
1018.269231,-0.044513,0.001000,0.001000,0.001000,0.001000,0.001000
1018.288462,-0.045053,0.001000,0.001000,0.001000,0.001000,0.001000
1018.307692,-0.045567,0.001000,0.001000,0.001000,0.001000,0.001000
1018.326923,-0.046053,0.001000,0.001000,0.001000,0.001000,0.001000
1018.346154,-0.046513,0.001000,0.001000,0.001000,0.001000,0.001000
1018.365385,-0.046945,0.001000,0.001000,0.001000,0.001000,0.001000
1018.384615,-0.047349,0.001000,0.001000,0.001000,0.001000,0.001000
1018.403846,-0.047726,0.001000,0.001000,0.001000,0.001000,0.001000
1018.423077,-0.048074,0.001000,0.001000,0.001000,0.001000,0.001000
1018.442308,-0.048394,0.001000,0.001000,0.001000,0.001000,0.001000
1018.461538,-0.048685,0.001000,0.001000,0.001000,0.001000,0.001000
1018.480769,-0.048947,0.001000,0.001000,0.001000,0.001000,0.001000
1018.500000,-0.049181,0.001000,0.001000,0.001000,0.001000,0.001000
1018.519231,-0.049386,0.001000,0.001000,0.001000,0.001000,0.001000
1018.538462,-0.049561,0.001000,0.001000,0.001000,0.001000,0.001000
1018.557692,-0.049707,0.001000,0.001000,0.001000,0.001000,0.001000
1018.576923,-0.049824,0.001000,0.001000,0.001000,0.001000,0.001000
1018.596154,-0.049911,0.001000,0.001000,0.001000,0.001000,0.001000
1018.615385,-0.049969,0.001000,0.001000,0.001000,0.001000,0.001000
1018.634615,-0.049997,0.001000,0.001000,0.001000,0.001000,0.001000
1018.653846,-0.049996,0.001000,0.001000,0.001000,0.001000,0.001000
1018.673077,-0.049965,0.001000,0.001000,0.001000,0.001000,0.001000
1018.692308,-0.049905,0.001000,0.001000,0.001000,0.001000,0.001000
1018.711538,-0.049815,0.001000,0.001000,0.001000,0.001000,0.001000
1018.730769,-0.049696,0.001000,0.001000,0.001000,0.001000,0.001000
1018.750000,-0.049547,0.001000,0.001000,0.001000,0.001000,0.001000
1018.769231,-0.049369,0.001000,0.001000,0.001000,0.001000,0.001000
1018.788462,-0.049162,0.001000,0.001000,0.001000,0.001000,0.001000
1018.807692,-0.048926,0.001000,0.001000,0.001000,0.001000,0.001000
1018.826923,-0.048661,0.001000,0.001000,0.001000,0.001000,0.001000
1018.846154,-0.048368,0.001000,0.001000,0.001000,0.001000,0.001000
1018.865385,-0.048045,0.001000,0.001000,0.001000,0.001000,0.001000
1018.884615,-0.047695,0.001000,0.001000,0.001000,0.001000,0.001000
1018.903846,-0.047316,0.001000,0.001000,0.001000,0.001000,0.001000
1018.923077,-0.046909,0.001000,0.001000,0.001000,0.001000,0.001000
1018.942308,-0.046475,0.001000,0.001000,0.001000,0.001000,0.001000
1018.961538,-0.046013,0.001000,0.001000,0.001000,0.001000,0.001000
1018.980769,-0.045524,0.001000,0.001000,0.001000,0.001000,0.001000
1019.000000,-0.045008,0.001000,0.001000,0.001000,0.001000,0.001000
1019.019231,-0.044465,0.001000,0.001000,0.001000,0.001000,0.001000
1019.038462,-0.043896,0.001000,0.001000,0.001000,0.001000,0.001000
1019.057692,-0.043302,0.001000,0.001000,0.001000,0.001000,0.001000
1019.076923,-0.042681,0.001000,0.001000,0.001000,0.001000,0.001000
1019.096154,-0.042036,0.001000,0.001000,0.001000,0.001000,0.001000
1019.115385,-0.041366,0.001000,0.001000,0.001000,0.001000,0.001000
1019.134615,-0.040671,0.001000,0.001000,0.001000,0.001000,0.001000
1019.153846,-0.039952,0.001000,0.001000,0.001000,0.001000,0.001000
1019.173077,-0.039210,0.001000,0.001000,0.001000,0.001000,0.001000
1019.192308,-0.038444,0.001000,0.001000,0.001000,0.001000,0.001000
1019.211538,-0.037656,0.001000,0.001000,0.001000,0.001000,0.001000
1019.230769,-0.036845,0.001000,0.001000,0.001000,0.001000,0.001000
1019.250000,-0.036013,0.001000,0.001000,0.001000,0.001000,0.001000
1019.269231,-0.035159,0.001000,0.001000,0.001000,0.001000,0.001000
1019.288462,-0.034285,0.001000,0.001000,0.001000,0.001000,0.001000
1019.307692,-0.033390,0.001000,0.001000,0.001000,0.001000,0.001000
1019.326923,-0.032476,0.001000,0.001000,0.001000,0.001000,0.001000
1019.346154,-0.031543,0.001000,0.001000,0.001000,0.001000,0.001000
1019.365385,-0.030591,0.001000,0.001000,0.001000,0.001000,0.001000
1019.384615,-0.029620,0.001000,0.001000,0.001000,0.001000,0.001000
1019.403846,-0.028633,0.001000,0.001000,0.001000,0.001000,0.001000
1019.423077,-0.027628,0.001000,0.001000,0.001000,0.001000,0.001000
1019.442308,-0.026607,0.001000,0.001000,0.001000,0.001000,0.001000
1019.461538,-0.025571,0.001000,0.001000,0.001000,0.001000,0.001000
1019.480769,-0.024519,0.001000,0.001000,0.001000,0.001000,0.001000
1019.500000,-0.023453,0.001000,0.001000,0.001000,0.001000,0.001000
1019.519231,-0.022373,0.001000,0.001000,0.001000,0.001000,0.001000
1019.538462,-0.021279,0.001000,0.001000,0.001000,0.001000,0.001000
1019.557692,-0.020173,0.001000,0.001000,0.001000,0.001000,0.001000
1019.576923,-0.019056,0.001000,0.001000,0.001000,0.001000,0.001000
1019.596154,-0.017927,0.001000,0.001000,0.001000,0.001000,0.001000
1019.615385,-0.016787,0.001000,0.001000,0.001000,0.001000,0.001000
1019.634615,-0.015638,0.001000,0.001000,0.001000,0.001000,0.001000
1019.653846,-0.014479,0.001000,0.001000,0.001000,0.001000,0.001000
1019.673077,-0.013311,0.001000,0.001000,0.001000,0.001000,0.001000
1019.692308,-0.012136,0.001000,0.001000,0.001000,0.001000,0.001000
1019.711538,-0.010954,0.001000,0.001000,0.001000,0.001000,0.001000
1019.730769,-0.009765,0.001000,0.001000,0.001000,0.001000,0.001000
1019.750000,-0.008571,0.001000,0.001000,0.001000,0.001000,0.001000
1019.769231,-0.007371,0.001000,0.001000,0.001000,0.001000,0.001000
1019.788462,-0.006167,0.001000,0.001000,0.001000,0.001000,0.001000
1019.807692,-0.004959,0.001000,0.001000,0.001000,0.001000,0.001000
1019.826923,-0.003749,0.001000,0.001000,0.001000,0.001000,0.001000
1019.846154,-0.002536,0.001000,0.001000,0.001000,0.001000,0.001000
1019.865385,-0.001322,0.001000,0.001000,0.001000,0.001000,0.001000
1019.884615,-0.000107,0.001000,0.001000,0.001000,0.001000,0.001000
1019.903846,0.001109,0.001000,0.001000,0.001000,0.001000,0.001000
1019.923077,0.002323,0.001000,0.001000,0.001000,0.001000,0.001000
1019.942308,0.003536,0.001000,0.001000,0.001000,0.001000,0.001000
1019.961538,0.004747,0.001000,0.001000,0.001000,0.001000,0.001000
1019.980769,0.005955,0.001000,0.001000,0.001000,0.001000,0.001000
1020.000000,0.007160,0.001000,0.001000,0.001000,0.001000,0.001000
1020.019231,0.008360,0.001000,0.001000,0.001000,0.001000,0.001000
1020.038462,0.009556,0.001000,0.001000,0.001000,0.001000,0.001000
1020.057692,0.010746,0.001000,0.001000,0.001000,0.001000,0.001000
1020.076923,0.011929,0.001000,0.001000,0.001000,0.001000,0.001000
1020.096154,0.013106,0.001000,0.001000,0.001000,0.001000,0.001000
1020.115385,0.014275,0.001000,0.001000,0.001000,0.001000,0.001000
1020.134615,0.015435,0.001000,0.001000,0.001000,0.001000,0.001000
1020.153846,0.016586,0.001000,0.001000,0.001000,0.001000,0.001000
1020.173077,0.017727,0.001000,0.001000,0.001000,0.001000,0.001000
1020.192308,0.018858,0.001000,0.001000,0.001000,0.001000,0.001000
1020.211538,0.019978,0.001000,0.001000,0.001000,0.001000,0.001000
1020.230769,0.021086,0.001000,0.001000,0.001000,0.001000,0.001000
1020.250000,0.022182,0.001000,0.001000,0.001000,0.001000,0.001000
1020.269231,0.023264,0.001000,0.001000,0.001000,0.001000,0.001000
1020.288462,0.024333,0.001000,0.001000,0.001000,0.001000,0.001000
1020.307692,0.025387,0.001000,0.001000,0.001000,0.001000,0.001000
1020.326923,0.026426,0.001000,0.001000,0.001000,0.001000,0.001000
1020.346154,0.027450,0.001000,0.001000,0.001000,0.001000,0.001000
1020.365385,0.028458,0.001000,0.001000,0.001000,0.001000,0.001000
1020.384615,0.029448,0.001000,0.001000,0.001000,0.001000,0.001000
1020.403846,0.030422,0.001000,0.001000,0.001000,0.001000,0.001000
1020.423077,0.031377,0.001000,0.001000,0.001000,0.001000,0.001000
1020.442308,0.032314,0.001000,0.001000,0.001000,0.001000,0.001000
1020.461538,0.033231,0.001000,0.001000,0.001000,0.001000,0.001000
1020.480769,0.034129,0.001000,0.001000,0.001000,0.001000,0.001000
1020.500000,0.035007,0.001000,0.001000,0.001000,0.001000,0.001000
1020.519231,0.035865,0.001000,0.001000,0.001000,0.001000,0.001000
1020.538462,0.036701,0.001000,0.001000,0.001000,0.001000,0.001000
1020.557692,0.037515,0.001000,0.001000,0.001000,0.001000,0.001000
1020.576923,0.038307,0.001000,0.001000,0.001000,0.001000,0.001000
1020.596154,0.039077,0.001000,0.001000,0.001000,0.001000,0.001000
1020.615385,0.039823,0.001000,0.001000,0.001000,0.001000,0.001000
1020.634615,0.040546,0.001000,0.001000,0.001000,0.001000,0.001000
1020.653846,0.041245,0.001000,0.001000,0.001000,0.001000,0.001000
1020.673077,0.041920,0.001000,0.001000,0.001000,0.001000,0.001000
1020.692308,0.042570,0.001000,0.001000,0.001000,0.001000,0.001000
1020.711538,0.043195,0.001000,0.001000,0.001000,0.001000,0.001000
1020.730769,0.043794,0.001000,0.001000,0.001000,0.001000,0.001000
1020.750000,0.044367,0.001000,0.001000,0.001000,0.001000,0.001000
1020.769231,0.044915,0.001000,0.001000,0.001000,0.001000,0.001000
1020.788462,0.045435,0.001000,0.001000,0.001000,0.001000,0.001000
1020.807692,0.045929,0.001000,0.001000,0.001000,0.001000,0.001000
1020.826923,0.046396,0.001000,0.001000,0.001000,0.001000,0.001000
1020.846154,0.046835,0.001000,0.001000,0.001000,0.001000,0.001000
1020.865385,0.047247,0.001000,0.001000,0.001000,0.001000,0.001000
1020.884615,0.047630,0.001000,0.001000,0.001000,0.001000,0.001000
1020.903846,0.047986,0.001000,0.001000,0.001000,0.001000,0.001000
1020.923077,0.048313,0.001000,0.001000,0.001000,0.001000,0.001000
1020.942308,0.048612,0.001000,0.001000,0.001000,0.001000,0.001000
1020.961538,0.048882,0.001000,0.001000,0.001000,0.001000,0.001000
1020.980769,0.049123,0.001000,0.001000,0.001000,0.001000,0.001000
1021.000000,0.049335,0.001000,0.001000,0.001000,0.001000,0.001000
1021.019231,0.049518,0.001000,0.001000,0.001000,0.001000,0.001000
1021.038462,0.049672,0.001000,0.001000,0.001000,0.001000,0.001000
1021.057692,0.049796,0.001000,0.001000,0.001000,0.001000,0.001000
1021.076923,0.049891,0.001000,0.001000,0.001000,0.001000,0.001000
1021.096154,0.049956,0.001000,0.001000,0.001000,0.001000,0.001000
1021.115385,0.049992,0.001000,0.001000,0.001000,0.001000,0.001000
1021.134615,0.049999,0.001000,0.001000,0.001000,0.001000,0.001000
1021.153846,0.049976,0.001000,0.001000,0.001000,0.001000,0.001000
1021.173077,0.049923,0.001000,0.001000,0.001000,0.001000,0.001000
1021.192308,0.049841,0.001000,0.001000,0.001000,0.001000,0.001000
1021.211538,0.049730,0.001000,0.001000,0.001000,0.001000,0.001000
1021.230769,0.049589,0.001000,0.001000,0.001000,0.001000,0.001000
1021.250000,0.049418,0.001000,0.001000,0.001000,0.001000,0.001000
1021.269231,0.049219,0.001000,0.001000,0.001000,0.001000,0.001000
1021.288462,0.048991,0.001000,0.001000,0.001000,0.001000,0.001000
1021.307692,0.048733,0.001000,0.001000,0.001000,0.001000,0.001000
1021.326923,0.048447,0.001000,0.001000,0.001000,0.001000,0.001000
1021.346154,0.048132,0.001000,0.001000,0.001000,0.001000,0.001000
1021.365385,0.047789,0.001000,0.001000,0.001000,0.001000,0.001000
1021.384615,0.047417,0.001000,0.001000,0.001000,0.001000,0.001000
1021.403846,0.047018,0.001000,0.001000,0.001000,0.001000,0.001000
1021.423077,0.046591,0.001000,0.001000,0.001000,0.001000,0.001000
1021.442308,0.046136,0.001000,0.001000,0.001000,0.001000,0.001000
1021.461538,0.045654,0.001000,0.001000,0.001000,0.001000,0.001000
1021.480769,0.045145,0.001000,0.001000,0.001000,0.001000,0.001000
1021.500000,0.044609,0.001000,0.001000,0.001000,0.001000,0.001000
1021.519231,0.044047,0.001000,0.001000,0.001000,0.001000,0.001000
1021.538462,0.043459,0.001000,0.001000,0.001000,0.001000,0.001000
1021.557692,0.042846,0.001000,0.001000,0.001000,0.001000,0.001000
1021.576923,0.042207,0.001000,0.001000,0.001000,0.001000,0.001000
1021.596154,0.041543,0.001000,0.001000,0.001000,0.001000,0.001000
1021.615385,0.040854,0.001000,0.001000,0.001000,0.001000,0.001000
1021.634615,0.040142,0.001000,0.001000,0.001000,0.001000,0.001000
1021.653846,0.039406,0.001000,0.001000,0.001000,0.001000,0.001000
1021.673077,0.038646,0.001000,0.001000,0.001000,0.001000,0.001000
1021.692308,0.037864,0.001000,0.001000,0.001000,0.001000,0.001000
1021.711538,0.037059,0.001000,0.001000,0.001000,0.001000,0.001000
1021.730769,0.036232,0.001000,0.001000,0.001000,0.001000,0.001000
1021.750000,0.035384,0.001000,0.001000,0.001000,0.001000,0.001000
1021.769231,0.034515,0.001000,0.001000,0.001000,0.001000,0.001000
1021.788462,0.033626,0.001000,0.001000,0.001000,0.001000,0.001000
1021.807692,0.032717,0.001000,0.001000,0.001000,0.001000,0.001000
1021.826923,0.031788,0.001000,0.001000,0.001000,0.001000,0.001000
1021.846154,0.030841,0.001000,0.001000,0.001000,0.001000,0.001000
1021.865385,0.029875,0.001000,0.001000,0.001000,0.001000,0.001000
1021.884615,0.028892,0.001000,0.001000,0.001000,0.001000,0.001000
1021.903846,0.027892,0.001000,0.001000,0.001000,0.001000,0.001000
1021.923077,0.026875,0.001000,0.001000,0.001000,0.001000,0.001000
1021.942308,0.025843,0.001000,0.001000,0.001000,0.001000,0.001000
1021.961538,0.024795,0.001000,0.001000,0.001000,0.001000,0.001000
1021.980769,0.023732,0.001000,0.001000,0.001000,0.001000,0.001000
1022.000000,0.022656,0.001000,0.001000,0.001000,0.001000,0.001000
1022.019231,0.021566,0.001000,0.001000,0.001000,0.001000,0.001000
1022.038462,0.020463,0.001000,0.001000,0.001000,0.001000,0.001000
1022.057692,0.019348,0.001000,0.001000,0.001000,0.001000,0.001000
1022.076923,0.018222,0.001000,0.001000,0.001000,0.001000,0.001000
1022.096154,0.017085,0.001000,0.001000,0.001000,0.001000,0.001000
1022.115385,0.015938,0.001000,0.001000,0.001000,0.001000,0.001000
1022.134615,0.014782,0.001000,0.001000,0.001000,0.001000,0.001000
1022.153846,0.013617,0.001000,0.001000,0.001000,0.001000,0.001000
1022.173077,0.012444,0.001000,0.001000,0.001000,0.001000,0.001000
1022.192308,0.011263,0.001000,0.001000,0.001000,0.001000,0.001000
1022.211538,0.010076,0.001000,0.001000,0.001000,0.001000,0.001000
1022.230769,0.008883,0.001000,0.001000,0.001000,0.001000,0.001000
1022.250000,0.007684,0.001000,0.001000,0.001000,0.001000,0.001000
1022.269231,0.006482,0.001000,0.001000,0.001000,0.001000,0.001000
1022.288462,0.005275,0.001000,0.001000,0.001000,0.001000,0.001000
1022.307692,0.004065,0.001000,0.001000,0.001000,0.001000,0.001000
1022.326923,0.002853,0.001000,0.001000,0.001000,0.001000,0.001000
1022.346154,0.001639,0.001000,0.001000,0.001000,0.001000,0.001000
1022.365385,0.000424,0.001000,0.001000,0.001000,0.001000,0.001000
1022.384615,-0.000791,0.001000,0.001000,0.001000,0.001000,0.001000
1022.403846,-0.002006,0.001000,0.001000,0.001000,0.001000,0.001000
1022.423077,-0.003220,0.001000,0.001000,0.001000,0.001000,0.001000
1022.442308,-0.004431,0.001000,0.001000,0.001000,0.001000,0.001000
1022.461538,-0.005640,0.001000,0.001000,0.001000,0.001000,0.001000
1022.480769,-0.006846,0.001000,0.001000,0.001000,0.001000,0.001000
1022.500000,-0.008048,0.001000,0.001000,0.001000,0.001000,0.001000
1022.519231,-0.009244,0.001000,0.001000,0.001000,0.001000,0.001000
1022.538462,-0.010436,0.001000,0.001000,0.001000,0.001000,0.001000
1022.557692,-0.011621,0.001000,0.001000,0.001000,0.001000,0.001000
1022.576923,-0.012800,0.001000,0.001000,0.001000,0.001000,0.001000
1022.596154,-0.013970,0.001000,0.001000,0.001000,0.001000,0.001000
1022.615385,-0.015133,0.001000,0.001000,0.001000,0.001000,0.001000
1022.634615,-0.016287,0.001000,0.001000,0.001000,0.001000,0.001000
1022.653846,-0.017431,0.001000,0.001000,0.001000,0.001000,0.001000
1022.673077,-0.018564,0.001000,0.001000,0.001000,0.001000,0.001000
1022.692308,-0.019687,0.001000,0.001000,0.001000,0.001000,0.001000
1022.711538,-0.020798,0.001000,0.001000,0.001000,0.001000,0.001000
1022.730769,-0.021897,0.001000,0.001000,0.001000,0.001000,0.001000
1022.750000,-0.022983,0.001000,0.001000,0.001000,0.001000,0.001000
1022.769231,-0.024055,0.001000,0.001000,0.001000,0.001000,0.001000
1022.788462,-0.025113,0.001000,0.001000,0.001000,0.001000,0.001000
1022.807692,-0.026157,0.001000,0.001000,0.001000,0.001000,0.001000
1022.826923,-0.027184,0.001000,0.001000,0.001000,0.001000,0.001000
1022.846154,-0.028196,0.001000,0.001000,0.001000,0.001000,0.001000
1022.865385,-0.029191,0.001000,0.001000,0.001000,0.001000,0.001000
1022.884615,-0.030169,0.001000,0.001000,0.001000,0.001000,0.001000
1022.903846,-0.031129,0.001000,0.001000,0.001000,0.001000,0.001000
1022.923077,-0.032071,0.001000,0.001000,0.001000,0.001000,0.001000
1022.942308,-0.032994,0.001000,0.001000,0.001000,0.001000,0.001000
1022.961538,-0.033897,0.001000,0.001000,0.001000,0.001000,0.001000
1022.980769,-0.034780,0.001000,0.001000,0.001000,0.001000,0.001000
1023.000000,-0.035643,0.001000,0.001000,0.001000,0.001000,0.001000
1023.019231,-0.036485,0.001000,0.001000,0.001000,0.001000,0.001000
1023.038462,-0.037305,0.001000,0.001000,0.001000,0.001000,0.001000
1023.057692,-0.038103,0.001000,0.001000,0.001000,0.001000,0.001000
1023.076923,-0.038878,0.001000,0.001000,0.001000,0.001000,0.001000
1023.096154,-0.039631,0.001000,0.001000,0.001000,0.001000,0.001000
1023.115385,-0.040360,0.001000,0.001000,0.001000,0.001000,0.001000
1023.134615,-0.041065,0.001000,0.001000,0.001000,0.001000,0.001000
1023.153846,-0.041746,0.001000,0.001000,0.001000,0.001000,0.001000
1023.173077,-0.042403,0.001000,0.001000,0.001000,0.001000,0.001000
1023.192308,-0.043034,0.001000,0.001000,0.001000,0.001000,0.001000
1023.211538,-0.043640,0.001000,0.001000,0.001000,0.001000,0.001000
1023.230769,-0.044220,0.001000,0.001000,0.001000,0.001000,0.001000
1023.250000,-0.044774,0.001000,0.001000,0.001000,0.001000,0.001000
1023.269231,-0.045302,0.001000,0.001000,0.001000,0.001000,0.001000
1023.288462,-0.045803,0.001000,0.001000,0.001000,0.001000,0.001000
1023.307692,-0.046277,0.001000,0.001000,0.001000,0.001000,0.001000
1023.326923,-0.046723,0.001000,0.001000,0.001000,0.001000,0.001000
1023.346154,-0.047142,0.001000,0.001000,0.001000,0.001000,0.001000
1023.365385,-0.047533,0.001000,0.001000,0.001000,0.001000,0.001000
1023.384615,-0.047896,0.001000,0.001000,0.001000,0.001000,0.001000
1023.403846,-0.048230,0.001000,0.001000,0.001000,0.001000,0.001000
1023.423077,-0.048537,0.001000,0.001000,0.001000,0.001000,0.001000
1023.442308,-0.048814,0.001000,0.001000,0.001000,0.001000,0.001000
1023.461538,-0.049063,0.001000,0.001000,0.001000,0.001000,0.001000
1023.480769,-0.049282,0.001000,0.001000,0.001000,0.001000,0.001000
1023.500000,-0.049473,0.001000,0.001000,0.001000,0.001000,0.001000
1023.519231,-0.049634,0.001000,0.001000,0.001000,0.001000,0.001000
1023.538462,-0.049766,0.001000,0.001000,0.001000,0.001000,0.001000
1023.557692,-0.049869,0.001000,0.001000,0.001000,0.001000,0.001000
1023.576923,-0.049942,0.001000,0.001000,0.001000,0.001000,0.001000
1023.596154,-0.049986,0.001000,0.001000,0.001000,0.001000,0.001000
1023.615385,-0.050000,0.001000,0.001000,0.001000,0.001000,0.001000
1023.634615,-0.049985,0.001000,0.001000,0.001000,0.001000,0.001000
1023.653846,-0.049940,0.001000,0.001000,0.001000,0.001000,0.001000
1023.673077,-0.049865,0.001000,0.001000,0.001000,0.001000,0.001000
1023.692308,-0.049761,0.001000,0.001000,0.001000,0.001000,0.001000
1023.711538,-0.049628,0.001000,0.001000,0.001000,0.001000,0.001000
1023.730769,-0.049466,0.001000,0.001000,0.001000,0.001000,0.001000
1023.750000,-0.049274,0.001000,0.001000,0.001000,0.001000,0.001000
1023.769231,-0.049053,0.001000,0.001000,0.001000,0.001000,0.001000
1023.788462,-0.048803,0.001000,0.001000,0.001000,0.001000,0.001000
1023.807692,-0.048524,0.001000,0.001000,0.001000,0.001000,0.001000
1023.826923,-0.048217,0.001000,0.001000,0.001000,0.001000,0.001000
1023.846154,-0.047881,0.001000,0.001000,0.001000,0.001000,0.001000
1023.865385,-0.047517,0.001000,0.001000,0.001000,0.001000,0.001000
1023.884615,-0.047125,0.001000,0.001000,0.001000,0.001000,0.001000
1023.903846,-0.046705,0.001000,0.001000,0.001000,0.001000,0.001000
1023.923077,-0.046257,0.001000,0.001000,0.001000,0.001000,0.001000
1023.942308,-0.045782,0.001000,0.001000,0.001000,0.001000,0.001000
1023.961538,-0.045280,0.001000,0.001000,0.001000,0.001000,0.001000
1023.980769,-0.044752,0.001000,0.001000,0.001000,0.001000,0.001000
1024.000000,-0.044197,0.001000,0.001000,0.001000,0.001000,0.001000
1024.019231,-0.043615,0.001000,0.001000,0.001000,0.001000,0.001000
1024.038462,-0.043008,0.001000,0.001000,0.001000,0.001000,0.001000
1024.057692,-0.042376,0.001000,0.001000,0.001000,0.001000,0.001000
1024.076923,-0.041718,0.001000,0.001000,0.001000,0.001000,0.001000
1024.096154,-0.041036,0.001000,0.001000,0.001000,0.001000,0.001000
1024.115385,-0.040330,0.001000,0.001000,0.001000,0.001000,0.001000
1024.134615,-0.039600,0.001000,0.001000,0.001000,0.001000,0.001000
1024.153846,-0.038846,0.001000,0.001000,0.001000,0.001000,0.001000
1024.173077,-0.038070,0.001000,0.001000,0.001000,0.001000,0.001000
1024.192308,-0.037271,0.001000,0.001000,0.001000,0.001000,0.001000
1024.211538,-0.036450,0.001000,0.001000,0.001000,0.001000,0.001000
1024.230769,-0.035607,0.001000,0.001000,0.001000,0.001000,0.001000
1024.250000,-0.034744,0.001000,0.001000,0.001000,0.001000,0.001000
1024.269231,-0.033860,0.001000,0.001000,0.001000,0.001000,0.001000
1024.288462,-0.032956,0.001000,0.001000,0.001000,0.001000,0.001000
1024.307692,-0.032032,0.001000,0.001000,0.001000,0.001000,0.001000
1024.326923,-0.031090,0.001000,0.001000,0.001000,0.001000,0.001000
1024.346154,-0.030129,0.001000,0.001000,0.001000,0.001000,0.001000
1024.365385,-0.029150,0.001000,0.001000,0.001000,0.001000,0.001000
1024.384615,-0.028154,0.001000,0.001000,0.001000,0.001000,0.001000
1024.403846,-0.027142,0.001000,0.001000,0.001000,0.001000,0.001000
1024.423077,-0.026114,0.001000,0.001000,0.001000,0.001000,0.001000
1024.442308,-0.025070,0.001000,0.001000,0.001000,0.001000,0.001000
1024.461538,-0.024011,0.001000,0.001000,0.001000,0.001000,0.001000
1024.480769,-0.022938,0.001000,0.001000,0.001000,0.001000,0.001000
1024.500000,-0.021852,0.001000,0.001000,0.001000,0.001000,0.001000
1024.519231,-0.020752,0.001000,0.001000,0.001000,0.001000,0.001000
1024.538462,-0.019641,0.001000,0.001000,0.001000,0.001000,0.001000
1024.557692,-0.018517,0.001000,0.001000,0.001000,0.001000,0.001000
1024.576923,-0.017383,0.001000,0.001000,0.001000,0.001000,0.001000
1024.596154,-0.016239,0.001000,0.001000,0.001000,0.001000,0.001000
1024.615385,-0.015085,0.001000,0.001000,0.001000,0.001000,0.001000
1024.634615,-0.013922,0.001000,0.001000,0.001000,0.001000,0.001000
1024.653846,-0.012751,0.001000,0.001000,0.001000,0.001000,0.001000
1024.673077,-0.011572,0.001000,0.001000,0.001000,0.001000,0.001000
1024.692308,-0.010386,0.001000,0.001000,0.001000,0.001000,0.001000
1024.711538,-0.009195,0.001000,0.001000,0.001000,0.001000,0.001000
1024.730769,-0.007998,0.001000,0.001000,0.001000,0.001000,0.001000
1024.750000,-0.006796,0.001000,0.001000,0.001000,0.001000,0.001000
1024.769231,-0.005590,0.001000,0.001000,0.001000,0.001000,0.001000
1024.788462,-0.004381,0.001000,0.001000,0.001000,0.001000,0.001000
1024.807692,-0.003169,0.001000,0.001000,0.001000,0.001000,0.001000
1024.826923,-0.001956,0.001000,0.001000,0.001000,0.001000,0.001000
1024.846154,-0.000741,0.001000,0.001000,0.001000,0.001000,0.001000
1024.865385,0.000474,0.001000,0.001000,0.001000,0.001000,0.001000
1024.884615,0.001689,0.001000,0.001000,0.001000,0.001000,0.001000
1024.903846,0.002903,0.001000,0.001000,0.001000,0.001000,0.001000
1024.923077,0.004115,0.001000,0.001000,0.001000,0.001000,0.001000
1024.942308,0.005325,0.001000,0.001000,0.001000,0.001000,0.001000
1024.961538,0.006532,0.001000,0.001000,0.001000,0.001000,0.001000
1024.980769,0.007734,0.001000,0.001000,0.001000,0.001000,0.001000
1025.000000,0.008933,0.001000,0.001000,0.001000,0.001000,0.001000
1025.019231,0.010126,0.001000,0.001000,0.001000,0.001000,0.001000
1025.038462,0.011312,0.001000,0.001000,0.001000,0.001000,0.001000
1025.057692,0.012493,0.001000,0.001000,0.001000,0.001000,0.001000
1025.076923,0.013666,0.001000,0.001000,0.001000,0.001000,0.001000
1025.096154,0.014830,0.001000,0.001000,0.001000,0.001000,0.001000
1025.115385,0.015986,0.001000,0.001000,0.001000,0.001000,0.001000
1025.134615,0.017133,0.001000,0.001000,0.001000,0.001000,0.001000
1025.153846,0.018269,0.001000,0.001000,0.001000,0.001000,0.001000
1025.173077,0.019395,0.001000,0.001000,0.001000,0.001000,0.001000
1025.192308,0.020509,0.001000,0.001000,0.001000,0.001000,0.001000
1025.211538,0.021611,0.001000,0.001000,0.001000,0.001000,0.001000
1025.230769,0.022701,0.001000,0.001000,0.001000,0.001000,0.001000
1025.250000,0.023777,0.001000,0.001000,0.001000,0.001000,0.001000
1025.269231,0.024839,0.001000,0.001000,0.001000,0.001000,0.001000
1025.288462,0.025886,0.001000,0.001000,0.001000,0.001000,0.001000
1025.307692,0.026918,0.001000,0.001000,0.001000,0.001000,0.001000
1025.326923,0.027934,0.001000,0.001000,0.001000,0.001000,0.001000
1025.346154,0.028933,0.001000,0.001000,0.001000,0.001000,0.001000
1025.365385,0.029916,0.001000,0.001000,0.001000,0.001000,0.001000
1025.384615,0.030881,0.001000,0.001000,0.001000,0.001000,0.001000
1025.403846,0.031827,0.001000,0.001000,0.001000,0.001000,0.001000
1025.423077,0.032755,0.001000,0.001000,0.001000,0.001000,0.001000
1025.442308,0.033663,0.001000,0.001000,0.001000,0.001000,0.001000
1025.461538,0.034552,0.001000,0.001000,0.001000,0.001000,0.001000
1025.480769,0.035420,0.001000,0.001000,0.001000,0.001000,0.001000
1025.500000,0.036267,0.001000,0.001000,0.001000,0.001000,0.001000
1025.519231,0.037093,0.001000,0.001000,0.001000,0.001000,0.001000
1025.538462,0.037897,0.001000,0.001000,0.001000,0.001000,0.001000
1025.557692,0.038678,0.001000,0.001000,0.001000,0.001000,0.001000
1025.576923,0.039437,0.001000,0.001000,0.001000,0.001000,0.001000
1025.596154,0.040172,0.001000,0.001000,0.001000,0.001000,0.001000
1025.615385,0.040884,0.001000,0.001000,0.001000,0.001000,0.001000
1025.634615,0.041571,0.001000,0.001000,0.001000,0.001000,0.001000
1025.653846,0.042234,0.001000,0.001000,0.001000,0.001000,0.001000
1025.673077,0.042872,0.001000,0.001000,0.001000,0.001000,0.001000
1025.692308,0.043484,0.001000,0.001000,0.001000,0.001000,0.001000
1025.711538,0.044071,0.001000,0.001000,0.001000,0.001000,0.001000
1025.730769,0.044632,0.001000,0.001000,0.001000,0.001000,0.001000
1025.750000,0.045167,0.001000,0.001000,0.001000,0.001000,0.001000
1025.769231,0.045675,0.001000,0.001000,0.001000,0.001000,0.001000
1025.788462,0.046156,0.001000,0.001000,0.001000,0.001000,0.001000
1025.807692,0.046609,0.001000,0.001000,0.001000,0.001000,0.001000
1025.826923,0.047035,0.001000,0.001000,0.001000,0.001000,0.001000
1025.846154,0.047434,0.001000,0.001000,0.001000,0.001000,0.001000
1025.865385,0.047804,0.001000,0.001000,0.001000,0.001000,0.001000
1025.884615,0.048146,0.001000,0.001000,0.001000,0.001000,0.001000
1025.903846,0.048459,0.001000,0.001000,0.001000,0.001000,0.001000
1025.923077,0.048744,0.001000,0.001000,0.001000,0.001000,0.001000
1025.942308,0.049001,0.001000,0.001000,0.001000,0.001000,0.001000
1025.961538,0.049228,0.001000,0.001000,0.001000,0.001000,0.001000
1025.980769,0.049426,0.001000,0.001000,0.001000,0.001000,0.001000
1026.000000,0.049595,0.001000,0.001000,0.001000,0.001000,0.001000
1026.019231,0.049735,0.001000,0.001000,0.001000,0.001000,0.001000
1026.038462,0.049845,0.001000,0.001000,0.001000,0.001000,0.001000
1026.057692,0.049926,0.001000,0.001000,0.001000,0.001000,0.001000
1026.076923,0.049977,0.001000,0.001000,0.001000,0.001000,0.001000
1026.096154,0.049999,0.001000,0.001000,0.001000,0.001000,0.001000
1026.115385,0.049991,0.001000,0.001000,0.001000,0.001000,0.001000
1026.134615,0.049954,0.001000,0.001000,0.001000,0.001000,0.001000
1026.153846,0.049888,0.001000,0.001000,0.001000,0.001000,0.001000
1026.173077,0.049791,0.001000,0.001000,0.001000,0.001000,0.001000
1026.192308,0.049666,0.001000,0.001000,0.001000,0.001000,0.001000
1026.211538,0.049511,0.001000,0.001000,0.001000,0.001000,0.001000
1026.230769,0.049327,0.001000,0.001000,0.001000,0.001000,0.001000
1026.250000,0.049113,0.001000,0.001000,0.001000,0.001000,0.001000
1026.269231,0.048871,0.001000,0.001000,0.001000,0.001000,0.001000
1026.288462,0.048600,0.001000,0.001000,0.001000,0.001000,0.001000
1026.307692,0.048300,0.001000,0.001000,0.001000,0.001000,0.001000
1026.326923,0.047972,0.001000,0.001000,0.001000,0.001000,0.001000
1026.346154,0.047615,0.001000,0.001000,0.001000,0.001000,0.001000
1026.365385,0.047230,0.001000,0.001000,0.001000,0.001000,0.001000
1026.384615,0.046817,0.001000,0.001000,0.001000,0.001000,0.001000
1026.403846,0.046377,0.001000,0.001000,0.001000,0.001000,0.001000
1026.423077,0.045909,0.001000,0.001000,0.001000,0.001000,0.001000
1026.442308,0.045414,0.001000,0.001000,0.001000,0.001000,0.001000
1026.461538,0.044892,0.001000,0.001000,0.001000,0.001000,0.001000
1026.480769,0.044344,0.001000,0.001000,0.001000,0.001000,0.001000
1026.500000,0.043770,0.001000,0.001000,0.001000,0.001000,0.001000
1026.519231,0.043169,0.001000,0.001000,0.001000,0.001000,0.001000
1026.538462,0.042543,0.001000,0.001000,0.001000,0.001000,0.001000
1026.557692,0.041892,0.001000,0.001000,0.001000,0.001000,0.001000
1026.576923,0.041217,0.001000,0.001000,0.001000,0.001000,0.001000
1026.596154,0.040517,0.001000,0.001000,0.001000,0.001000,0.001000
1026.615385,0.039793,0.001000,0.001000,0.001000,0.001000,0.001000
1026.634615,0.039045,0.001000,0.001000,0.001000,0.001000,0.001000
1026.653846,0.038275,0.001000,0.001000,0.001000,0.001000,0.001000
1026.673077,0.037482,0.001000,0.001000,0.001000,0.001000,0.001000
1026.692308,0.036666,0.001000,0.001000,0.001000,0.001000,0.001000
1026.711538,0.035829,0.001000,0.001000,0.001000,0.001000,0.001000
1026.730769,0.034971,0.001000,0.001000,0.001000,0.001000,0.001000
1026.750000,0.034092,0.001000,0.001000,0.001000,0.001000,0.001000
1026.769231,0.033194,0.001000,0.001000,0.001000,0.001000,0.001000
1026.788462,0.032275,0.001000,0.001000,0.001000,0.001000,0.001000
1026.807692,0.031337,0.001000,0.001000,0.001000,0.001000,0.001000
1026.826923,0.030381,0.001000,0.001000,0.001000,0.001000,0.001000
1026.846154,0.029407,0.001000,0.001000,0.001000,0.001000,0.001000
1026.865385,0.028416,0.001000,0.001000,0.001000,0.001000,0.001000
1026.884615,0.027408,0.001000,0.001000,0.001000,0.001000,0.001000
1026.903846,0.026383,0.001000,0.001000,0.001000,0.001000,0.001000
1026.923077,0.025343,0.001000,0.001000,0.001000,0.001000,0.001000
1026.942308,0.024289,0.001000,0.001000,0.001000,0.001000,0.001000
1026.961538,0.023219,0.001000,0.001000,0.001000,0.001000,0.001000
1026.980769,0.022136,0.001000,0.001000,0.001000,0.001000,0.001000
1027.000000,0.021040,0.001000,0.001000,0.001000,0.001000,0.001000
1027.019231,0.019932,0.001000,0.001000,0.001000,0.001000,0.001000
1027.038462,0.018812,0.001000,0.001000,0.001000,0.001000,0.001000
1027.057692,0.017680,0.001000,0.001000,0.001000,0.001000,0.001000
1027.076923,0.016538,0.001000,0.001000,0.001000,0.001000,0.001000
1027.096154,0.015387,0.001000,0.001000,0.001000,0.001000,0.001000
1027.115385,0.014226,0.001000,0.001000,0.001000,0.001000,0.001000
1027.134615,0.013057,0.001000,0.001000,0.001000,0.001000,0.001000
1027.153846,0.011880,0.001000,0.001000,0.001000,0.001000,0.001000
1027.173077,0.010696,0.001000,0.001000,0.001000,0.001000,0.001000
1027.192308,0.009506,0.001000,0.001000,0.001000,0.001000,0.001000
1027.211538,0.008311,0.001000,0.001000,0.001000,0.001000,0.001000
1027.230769,0.007110,0.001000,0.001000,0.001000,0.001000,0.001000
1027.250000,0.005905,0.001000,0.001000,0.001000,0.001000,0.001000
1027.269231,0.004697,0.001000,0.001000,0.001000,0.001000,0.001000
1027.288462,0.003486,0.001000,0.001000,0.001000,0.001000,0.001000
1027.307692,0.002272,0.001000,0.001000,0.001000,0.001000,0.001000
1027.326923,0.001058,0.001000,0.001000,0.001000,0.001000,0.001000
1027.346154,-0.000157,0.001000,0.001000,0.001000,0.001000,0.001000
1027.365385,-0.001372,0.001000,0.001000,0.001000,0.001000,0.001000
1027.384615,-0.002586,0.001000,0.001000,0.001000,0.001000,0.001000
1027.403846,-0.003799,0.001000,0.001000,0.001000,0.001000,0.001000
1027.423077,-0.005010,0.001000,0.001000,0.001000,0.001000,0.001000
1027.442308,-0.006217,0.001000,0.001000,0.001000,0.001000,0.001000
1027.461538,-0.007421,0.001000,0.001000,0.001000,0.001000,0.001000
1027.480769,-0.008620,0.001000,0.001000,0.001000,0.001000,0.001000
1027.500000,-0.009815,0.001000,0.001000,0.001000,0.001000,0.001000
1027.519231,-0.011003,0.001000,0.001000,0.001000,0.001000,0.001000
1027.538462,-0.012185,0.001000,0.001000,0.001000,0.001000,0.001000
1027.557692,-0.013360,0.001000,0.001000,0.001000,0.001000,0.001000
1027.576923,-0.014527,0.001000,0.001000,0.001000,0.001000,0.001000
1027.596154,-0.015686,0.001000,0.001000,0.001000,0.001000,0.001000
1027.615385,-0.016835,0.001000,0.001000,0.001000,0.001000,0.001000
1027.634615,-0.017974,0.001000,0.001000,0.001000,0.001000,0.001000
1027.653846,-0.019102,0.001000,0.001000,0.001000,0.001000,0.001000
1027.673077,-0.020220,0.001000,0.001000,0.001000,0.001000,0.001000
1027.692308,-0.021325,0.001000,0.001000,0.001000,0.001000,0.001000
1027.711538,-0.022418,0.001000,0.001000,0.001000,0.001000,0.001000
1027.730769,-0.023497,0.001000,0.001000,0.001000,0.001000,0.001000
1027.750000,-0.024563,0.001000,0.001000,0.001000,0.001000,0.001000
1027.769231,-0.025614,0.001000,0.001000,0.001000,0.001000,0.001000
1027.788462,-0.026650,0.001000,0.001000,0.001000,0.001000,0.001000
1027.807692,-0.027670,0.001000,0.001000,0.001000,0.001000,0.001000
1027.826923,-0.028674,0.001000,0.001000,0.001000,0.001000,0.001000
1027.846154,-0.029661,0.001000,0.001000,0.001000,0.001000,0.001000
1027.865385,-0.030631,0.001000,0.001000,0.001000,0.001000,0.001000
1027.884615,-0.031582,0.001000,0.001000,0.001000,0.001000,0.001000
1027.903846,-0.032515,0.001000,0.001000,0.001000,0.001000,0.001000
1027.923077,-0.033428,0.001000,0.001000,0.001000,0.001000,0.001000
1027.942308,-0.034322,0.001000,0.001000,0.001000,0.001000,0.001000
1027.961538,-0.035195,0.001000,0.001000,0.001000,0.001000,0.001000
1027.980769,-0.036048,0.001000,0.001000,0.001000,0.001000,0.001000
1028.000000,-0.036879,0.001000,0.001000,0.001000,0.001000,0.001000
1028.019231,-0.037689,0.001000,0.001000,0.001000,0.001000,0.001000
1028.038462,-0.038476,0.001000,0.001000,0.001000,0.001000,0.001000
1028.057692,-0.039241,0.001000,0.001000,0.001000,0.001000,0.001000
1028.076923,-0.039982,0.001000,0.001000,0.001000,0.001000,0.001000
1028.096154,-0.040700,0.001000,0.001000,0.001000,0.001000,0.001000
1028.115385,-0.041394,0.001000,0.001000,0.001000,0.001000,0.001000
1028.134615,-0.042063,0.001000,0.001000,0.001000,0.001000,0.001000
1028.153846,-0.042708,0.001000,0.001000,0.001000,0.001000,0.001000
1028.173077,-0.043327,0.001000,0.001000,0.001000,0.001000,0.001000
1028.192308,-0.043921,0.001000,0.001000,0.001000,0.001000,0.001000
1028.211538,-0.044488,0.001000,0.001000,0.001000,0.001000,0.001000
1028.230769,-0.045030,0.001000,0.001000,0.001000,0.001000,0.001000
1028.250000,-0.045545,0.001000,0.001000,0.001000,0.001000,0.001000
1028.269231,-0.046033,0.001000,0.001000,0.001000,0.001000,0.001000
1028.288462,-0.046493,0.001000,0.001000,0.001000,0.001000,0.001000
1028.307692,-0.046927,0.001000,0.001000,0.001000,0.001000,0.001000
1028.326923,-0.047332,0.001000,0.001000,0.001000,0.001000,0.001000
1028.346154,-0.047710,0.001000,0.001000,0.001000,0.001000,0.001000
1028.365385,-0.048059,0.001000,0.001000,0.001000,0.001000,0.001000
1028.384615,-0.048380,0.001000,0.001000,0.001000,0.001000,0.001000
1028.403846,-0.048673,0.001000,0.001000,0.001000,0.001000,0.001000
1028.423077,-0.048937,0.001000,0.001000,0.001000,0.001000,0.001000
1028.442308,-0.049171,0.001000,0.001000,0.001000,0.001000,0.001000
1028.461538,-0.049377,0.001000,0.001000,0.001000,0.001000,0.001000
1028.480769,-0.049554,0.001000,0.001000,0.001000,0.001000,0.001000
1028.500000,-0.049701,0.001000,0.001000,0.001000,0.001000,0.001000
1028.519231,-0.049819,0.001000,0.001000,0.001000,0.001000,0.001000
1028.538462,-0.049908,0.001000,0.001000,0.001000,0.001000,0.001000
1028.557692,-0.049967,0.001000,0.001000,0.001000,0.001000,0.001000
1028.576923,-0.049996,0.001000,0.001000,0.001000,0.001000,0.001000
1028.596154,-0.049996,0.001000,0.001000,0.001000,0.001000,0.001000
1028.615385,-0.049967,0.001000,0.001000,0.001000,0.001000,0.001000
1028.634615,-0.049908,0.001000,0.001000,0.001000,0.001000,0.001000
1028.653846,-0.049819,0.001000,0.001000,0.001000,0.001000,0.001000
1028.673077,-0.049701,0.001000,0.001000,0.001000,0.001000,0.001000
1028.692308,-0.049554,0.001000,0.001000,0.001000,0.001000,0.001000
1028.711538,-0.049378,0.001000,0.001000,0.001000,0.001000,0.001000
1028.730769,-0.049172,0.001000,0.001000,0.001000,0.001000,0.001000
1028.750000,-0.048937,0.001000,0.001000,0.001000,0.001000,0.001000
1028.769231,-0.048673,0.001000,0.001000,0.001000,0.001000,0.001000
1028.788462,-0.048381,0.001000,0.001000,0.001000,0.001000,0.001000
1028.807692,-0.048060,0.001000,0.001000,0.001000,0.001000,0.001000
1028.826923,-0.047711,0.001000,0.001000,0.001000,0.001000,0.001000
1028.846154,-0.047333,0.001000,0.001000,0.001000,0.001000,0.001000
1028.865385,-0.046928,0.001000,0.001000,0.001000,0.001000,0.001000
1028.884615,-0.046494,0.001000,0.001000,0.001000,0.001000,0.001000
1028.903846,-0.046034,0.001000,0.001000,0.001000,0.001000,0.001000
1028.923077,-0.045546,0.001000,0.001000,0.001000,0.001000,0.001000
1028.942308,-0.045031,0.001000,0.001000,0.001000,0.001000,0.001000
1028.961538,-0.044490,0.001000,0.001000,0.001000,0.001000,0.001000
1028.980769,-0.043922,0.001000,0.001000,0.001000,0.001000,0.001000
1029.000000,-0.043328,0.001000,0.001000,0.001000,0.001000,0.001000
1029.019231,-0.042709,0.001000,0.001000,0.001000,0.001000,0.001000
1029.038462,-0.042065,0.001000,0.001000,0.001000,0.001000,0.001000
1029.057692,-0.041395,0.001000,0.001000,0.001000,0.001000,0.001000
1029.076923,-0.040702,0.001000,0.001000,0.001000,0.001000,0.001000
1029.096154,-0.039984,0.001000,0.001000,0.001000,0.001000,0.001000
1029.115385,-0.039243,0.001000,0.001000,0.001000,0.001000,0.001000
1029.134615,-0.038478,0.001000,0.001000,0.001000,0.001000,0.001000
1029.153846,-0.037691,0.001000,0.001000,0.001000,0.001000,0.001000
1029.173077,-0.036881,0.001000,0.001000,0.001000,0.001000,0.001000
1029.192308,-0.036050,0.001000,0.001000,0.001000,0.001000,0.001000
1029.211538,-0.035197,0.001000,0.001000,0.001000,0.001000,0.001000
1029.230769,-0.034324,0.001000,0.001000,0.001000,0.001000,0.001000
1029.250000,-0.033430,0.001000,0.001000,0.001000,0.001000,0.001000
1029.269231,-0.032517,0.001000,0.001000,0.001000,0.001000,0.001000
1029.288462,-0.031584,0.001000,0.001000,0.001000,0.001000,0.001000
1029.307692,-0.030633,0.001000,0.001000,0.001000,0.001000,0.001000
1029.326923,-0.029663,0.001000,0.001000,0.001000,0.001000,0.001000
1029.346154,-0.028676,0.001000,0.001000,0.001000,0.001000,0.001000
1029.365385,-0.027672,0.001000,0.001000,0.001000,0.001000,0.001000
1029.384615,-0.026652,0.001000,0.001000,0.001000,0.001000,0.001000
1029.403846,-0.025616,0.001000,0.001000,0.001000,0.001000,0.001000
1029.423077,-0.024565,0.001000,0.001000,0.001000,0.001000,0.001000
1029.442308,-0.023500,0.001000,0.001000,0.001000,0.001000,0.001000
1029.461538,-0.022420,0.001000,0.001000,0.001000,0.001000,0.001000
1029.480769,-0.021328,0.001000,0.001000,0.001000,0.001000,0.001000
1029.500000,-0.020222,0.001000,0.001000,0.001000,0.001000,0.001000
1029.519231,-0.019105,0.001000,0.001000,0.001000,0.001000,0.001000
1029.538462,-0.017976,0.001000,0.001000,0.001000,0.001000,0.001000
1029.557692,-0.016837,0.001000,0.001000,0.001000,0.001000,0.001000
1029.576923,-0.015688,0.001000,0.001000,0.001000,0.001000,0.001000
1029.596154,-0.014530,0.001000,0.001000,0.001000,0.001000,0.001000
1029.615385,-0.013363,0.001000,0.001000,0.001000,0.001000,0.001000
1029.634615,-0.012188,0.001000,0.001000,0.001000,0.001000,0.001000
1029.653846,-0.011006,0.001000,0.001000,0.001000,0.001000,0.001000
1029.673077,-0.009817,0.001000,0.001000,0.001000,0.001000,0.001000
1029.692308,-0.008623,0.001000,0.001000,0.001000,0.001000,0.001000
1029.711538,-0.007424,0.001000,0.001000,0.001000,0.001000,0.001000
1029.730769,-0.006220,0.001000,0.001000,0.001000,0.001000,0.001000
1029.750000,-0.005012,0.001000,0.001000,0.001000,0.001000,0.001000
1029.769231,-0.003802,0.001000,0.001000,0.001000,0.001000,0.001000
1029.788462,-0.002589,0.001000,0.001000,0.001000,0.001000,0.001000
1029.807692,-0.001375,0.001000,0.001000,0.001000,0.001000,0.001000
1029.826923,-0.000160,0.001000,0.001000,0.001000,0.001000,0.001000
1029.846154,0.001055,0.001000,0.001000,0.001000,0.001000,0.001000
1029.865385,0.002270,0.001000,0.001000,0.001000,0.001000,0.001000
1029.884615,0.003483,0.001000,0.001000,0.001000,0.001000,0.001000
1029.903846,0.004694,0.001000,0.001000,0.001000,0.001000,0.001000
1029.923077,0.005902,0.001000,0.001000,0.001000,0.001000,0.001000
1029.942308,0.007107,0.001000,0.001000,0.001000,0.001000,0.001000
1029.961538,0.008308,0.001000,0.001000,0.001000,0.001000,0.001000
1029.980769,0.009504,0.001000,0.001000,0.001000,0.001000,0.001000
1030.000000,0.000000,0.001000,0.001000,0.001000,0.001000,0.001000
1030.019231,0.001261,0.001000,0.001000,0.001000,0.001000,0.001000
1030.038462,0.002521,0.001000,0.001000,0.001000,0.001000,0.001000
1030.057692,0.003780,0.001000,0.001000,0.001000,0.001000,0.001000
1030.076923,0.005037,0.001000,0.001000,0.001000,0.001000,0.001000
1030.096154,0.006290,0.001000,0.001000,0.001000,0.001000,0.001000
1030.115385,0.007539,0.001000,0.001000,0.001000,0.001000,0.001000
1030.134615,0.008783,0.001000,0.001000,0.001000,0.001000,0.001000
1030.153846,0.010022,0.001000,0.001000,0.001000,0.001000,0.001000
1030.173077,0.011254,0.001000,0.001000,0.001000,0.001000,0.001000
1030.192308,0.012479,0.001000,0.001000,0.001000,0.001000,0.001000
1030.211538,0.013697,0.001000,0.001000,0.001000,0.001000,0.001000
1030.230769,0.014905,0.001000,0.001000,0.001000,0.001000,0.001000
1030.250000,0.016104,0.001000,0.001000,0.001000,0.001000,0.001000
1030.269231,0.017293,0.001000,0.001000,0.001000,0.001000,0.001000
1030.288462,0.018471,0.001000,0.001000,0.001000,0.001000,0.001000
1030.307692,0.019637,0.001000,0.001000,0.001000,0.001000,0.001000
1030.326923,0.020790,0.001000,0.001000,0.001000,0.001000,0.001000
1030.346154,0.021931,0.001000,0.001000,0.001000,0.001000,0.001000
1030.365385,0.023057,0.001000,0.001000,0.001000,0.001000,0.001000
1030.384615,0.024169,0.001000,0.001000,0.001000,0.001000,0.001000
1030.403846,0.025265,0.001000,0.001000,0.001000,0.001000,0.001000
1030.423077,0.026345,0.001000,0.001000,0.001000,0.001000,0.001000
1030.442308,0.027409,0.001000,0.001000,0.001000,0.001000,0.001000
1030.461538,0.028455,0.001000,0.001000,0.001000,0.001000,0.001000
1030.480769,0.029483,0.001000,0.001000,0.001000,0.001000,0.001000
1030.500000,0.030492,0.001000,0.001000,0.001000,0.001000,0.001000
1030.519231,0.031482,0.001000,0.001000,0.001000,0.001000,0.001000
1030.538462,0.032452,0.001000,0.001000,0.001000,0.001000,0.001000
1030.557692,0.033401,0.001000,0.001000,0.001000,0.001000,0.001000
1030.576923,0.034329,0.001000,0.001000,0.001000,0.001000,0.001000
1030.596154,0.035235,0.001000,0.001000,0.001000,0.001000,0.001000
1030.615385,0.036118,0.001000,0.001000,0.001000,0.001000,0.001000
1030.634615,0.036979,0.001000,0.001000,0.001000,0.001000,0.001000
1030.653846,0.037816,0.001000,0.001000,0.001000,0.001000,0.001000
1030.673077,0.038629,0.001000,0.001000,0.001000,0.001000,0.001000
1030.692308,0.039417,0.001000,0.001000,0.001000,0.001000,0.001000
1030.711538,0.040181,0.001000,0.001000,0.001000,0.001000,0.001000
1030.730769,0.040918,0.001000,0.001000,0.001000,0.001000,0.001000
1030.750000,0.041630,0.001000,0.001000,0.001000,0.001000,0.001000
1030.769231,0.042315,0.001000,0.001000,0.001000,0.001000,0.001000
1030.788462,0.042974,0.001000,0.001000,0.001000,0.001000,0.001000
1030.807692,0.043605,0.001000,0.001000,0.001000,0.001000,0.001000
1030.826923,0.044208,0.001000,0.001000,0.001000,0.001000,0.001000
1030.846154,0.044783,0.001000,0.001000,0.001000,0.001000,0.001000
1030.865385,0.045330,0.001000,0.001000,0.001000,0.001000,0.001000
1030.884615,0.045847,0.001000,0.001000,0.001000,0.001000,0.001000
1030.903846,0.046336,0.001000,0.001000,0.001000,0.001000,0.001000
1030.923077,0.046795,0.001000,0.001000,0.001000,0.001000,0.001000
1030.942308,0.047225,0.001000,0.001000,0.001000,0.001000,0.001000
1030.961538,0.047624,0.001000,0.001000,0.001000,0.001000,0.001000
1030.980769,0.047993,0.001000,0.001000,0.001000,0.001000,0.001000
1031.000000,0.048331,0.001000,0.001000,0.001000,0.001000,0.001000
1031.019231,0.048639,0.001000,0.001000,0.001000,0.001000,0.001000
1031.038462,0.048916,0.001000,0.001000,0.001000,0.001000,0.001000
1031.057692,0.049161,0.001000,0.001000,0.001000,0.001000,0.001000
1031.076923,0.049376,0.001000,0.001000,0.001000,0.001000,0.001000
1031.096154,0.049559,0.001000,0.001000,0.001000,0.001000,0.001000
1031.115385,0.049710,0.001000,0.001000,0.001000,0.001000,0.001000
1031.134615,0.049830,0.001000,0.001000,0.001000,0.001000,0.001000
1031.153846,0.049918,0.001000,0.001000,0.001000,0.001000,0.001000
1031.173077,0.049974,0.001000,0.001000,0.001000,0.001000,0.001000
1031.192308,0.049999,0.001000,0.001000,0.001000,0.001000,0.001000
1031.211538,0.049992,0.001000,0.001000,0.001000,0.001000,0.001000
1031.230769,0.049952,0.001000,0.001000,0.001000,0.001000,0.001000
1031.250000,0.049882,0.001000,0.001000,0.001000,0.001000,0.001000
1031.269231,0.049779,0.001000,0.001000,0.001000,0.001000,0.001000
1031.288462,0.049645,0.001000,0.001000,0.001000,0.001000,0.001000
1031.307692,0.049479,0.001000,0.001000,0.001000,0.001000,0.001000
1031.326923,0.049281,0.001000,0.001000,0.001000,0.001000,0.001000
1031.346154,0.049053,0.001000,0.001000,0.001000,0.001000,0.001000
1031.365385,0.048793,0.001000,0.001000,0.001000,0.001000,0.001000
1031.384615,0.048502,0.001000,0.001000,0.001000,0.001000,0.001000
1031.403846,0.048180,0.001000,0.001000,0.001000,0.001000,0.001000
1031.423077,0.047827,0.001000,0.001000,0.001000,0.001000,0.001000
1031.442308,0.047444,0.001000,0.001000,0.001000,0.001000,0.001000
1031.461538,0.047031,0.001000,0.001000,0.001000,0.001000,0.001000
1031.480769,0.046588,0.001000,0.001000,0.001000,0.001000,0.001000
1031.500000,0.046115,0.001000,0.001000,0.001000,0.001000,0.001000
1031.519231,0.045613,0.001000,0.001000,0.001000,0.001000,0.001000
1031.538462,0.045082,0.001000,0.001000,0.001000,0.001000,0.001000
1031.557692,0.044523,0.001000,0.001000,0.001000,0.001000,0.001000
1031.576923,0.043935,0.001000,0.001000,0.001000,0.001000,0.001000
1031.596154,0.043319,0.001000,0.001000,0.001000,0.001000,0.001000
1031.615385,0.042675,0.001000,0.001000,0.001000,0.001000,0.001000
1031.634615,0.042004,0.001000,0.001000,0.001000,0.001000,0.001000
1031.653846,0.041307,0.001000,0.001000,0.001000,0.001000,0.001000
1031.673077,0.040583,0.001000,0.001000,0.001000,0.001000,0.001000
1031.692308,0.039833,0.001000,0.001000,0.001000,0.001000,0.001000
1031.711538,0.039058,0.001000,0.001000,0.001000,0.001000,0.001000
1031.730769,0.038259,0.001000,0.001000,0.001000,0.001000,0.001000
1031.750000,0.037435,0.001000,0.001000,0.001000,0.001000,0.001000
1031.769231,0.036587,0.001000,0.001000,0.001000,0.001000,0.001000
1031.788462,0.035715,0.001000,0.001000,0.001000,0.001000,0.001000
1031.807692,0.034821,0.001000,0.001000,0.001000,0.001000,0.001000
1031.826923,0.033905,0.001000,0.001000,0.001000,0.001000,0.001000
1031.846154,0.032968,0.001000,0.001000,0.001000,0.001000,0.001000
1031.865385,0.032009,0.001000,0.001000,0.001000,0.001000,0.001000
1031.884615,0.031030,0.001000,0.001000,0.001000,0.001000,0.001000
1031.903846,0.030031,0.001000,0.001000,0.001000,0.001000,0.001000
1031.923077,0.029013,0.001000,0.001000,0.001000,0.001000,0.001000
1031.942308,0.027977,0.001000,0.001000,0.001000,0.001000,0.001000
1031.961538,0.026923,0.001000,0.001000,0.001000,0.001000,0.001000
1031.980769,0.025852,0.001000,0.001000,0.001000,0.001000,0.001000
1032.000000,0.024764,0.001000,0.001000,0.001000,0.001000,0.001000
1032.019231,0.023660,0.001000,0.001000,0.001000,0.001000,0.001000
1032.038462,0.022542,0.001000,0.001000,0.001000,0.001000,0.001000
1032.057692,0.021409,0.001000,0.001000,0.001000,0.001000,0.001000
1032.076923,0.020263,0.001000,0.001000,0.001000,0.001000,0.001000
1032.096154,0.019103,0.001000,0.001000,0.001000,0.001000,0.001000
1032.115385,0.017932,0.001000,0.001000,0.001000,0.001000,0.001000
1032.134615,0.016749,0.001000,0.001000,0.001000,0.001000,0.001000
1032.153846,0.015555,0.001000,0.001000,0.001000,0.001000,0.001000
1032.173077,0.014352,0.001000,0.001000,0.001000,0.001000,0.001000
1032.192308,0.013139,0.001000,0.001000,0.001000,0.001000,0.001000
1032.211538,0.011918,0.001000,0.001000,0.001000,0.001000,0.001000
1032.230769,0.010689,0.001000,0.001000,0.001000,0.001000,0.001000
1032.250000,0.009454,0.001000,0.001000,0.001000,0.001000,0.001000
1032.269231,0.008213,0.001000,0.001000,0.001000,0.001000,0.001000
1032.288462,0.006966,0.001000,0.001000,0.001000,0.001000,0.001000
1032.307692,0.005715,0.001000,0.001000,0.001000,0.001000,0.001000
1032.326923,0.004460,0.001000,0.001000,0.001000,0.001000,0.001000
1032.346154,0.003203,0.001000,0.001000,0.001000,0.001000,0.001000
1032.365385,0.001943,0.001000,0.001000,0.001000,0.001000,0.001000
1032.384615,0.000682,0.001000,0.001000,0.001000,0.001000,0.001000
1032.403846,-0.000579,0.001000,0.001000,0.001000,0.001000,0.001000
1032.423077,-0.001840,0.001000,0.001000,0.001000,0.001000,0.001000
1032.442308,-0.003099,0.001000,0.001000,0.001000,0.001000,0.001000
1032.461538,-0.004357,0.001000,0.001000,0.001000,0.001000,0.001000
1032.480769,-0.005612,0.001000,0.001000,0.001000,0.001000,0.001000
1032.500000,-0.006864,0.001000,0.001000,0.001000,0.001000,0.001000
1032.519231,-0.008111,0.001000,0.001000,0.001000,0.001000,0.001000
1032.538462,-0.009352,0.001000,0.001000,0.001000,0.001000,0.001000
1032.557692,-0.010588,0.001000,0.001000,0.001000,0.001000,0.001000
1032.576923,-0.011817,0.001000,0.001000,0.001000,0.001000,0.001000
1032.596154,-0.013039,0.001000,0.001000,0.001000,0.001000,0.001000
1032.615385,-0.014252,0.001000,0.001000,0.001000,0.001000,0.001000
1032.634615,-0.015457,0.001000,0.001000,0.001000,0.001000,0.001000
1032.653846,-0.016651,0.001000,0.001000,0.001000,0.001000,0.001000
1032.673077,-0.017835,0.001000,0.001000,0.001000,0.001000,0.001000
1032.692308,-0.019008,0.001000,0.001000,0.001000,0.001000,0.001000
1032.711538,-0.020168,0.001000,0.001000,0.001000,0.001000,0.001000
1032.730769,-0.021315,0.001000,0.001000,0.001000,0.001000,0.001000
1032.750000,-0.022450,0.001000,0.001000,0.001000,0.001000,0.001000
1032.769231,-0.023569,0.001000,0.001000,0.001000,0.001000,0.001000
1032.788462,-0.024674,0.001000,0.001000,0.001000,0.001000,0.001000
1032.807692,-0.025763,0.001000,0.001000,0.001000,0.001000,0.001000
1032.826923,-0.026836,0.001000,0.001000,0.001000,0.001000,0.001000
1032.846154,-0.027891,0.001000,0.001000,0.001000,0.001000,0.001000
1032.865385,-0.028929,0.001000,0.001000,0.001000,0.001000,0.001000
1032.884615,-0.029948,0.001000,0.001000,0.001000,0.001000,0.001000
1032.903846,-0.030949,0.001000,0.001000,0.001000,0.001000,0.001000
1032.923077,-0.031929,0.001000,0.001000,0.001000,0.001000,0.001000
1032.942308,-0.032890,0.001000,0.001000,0.001000,0.001000,0.001000
1032.961538,-0.033829,0.001000,0.001000,0.001000,0.001000,0.001000
1032.980769,-0.034747,0.001000,0.001000,0.001000,0.001000,0.001000
1033.000000,-0.035643,0.001000,0.001000,0.001000,0.001000,0.001000
1033.019231,-0.036516,0.001000,0.001000,0.001000,0.001000,0.001000
1033.038462,-0.037366,0.001000,0.001000,0.001000,0.001000,0.001000
1033.057692,-0.038192,0.001000,0.001000,0.001000,0.001000,0.001000
1033.076923,-0.038994,0.001000,0.001000,0.001000,0.001000,0.001000
1033.096154,-0.039771,0.001000,0.001000,0.001000,0.001000,0.001000
1033.115385,-0.040522,0.001000,0.001000,0.001000,0.001000,0.001000
1033.134615,-0.041248,0.001000,0.001000,0.001000,0.001000,0.001000
1033.153846,-0.041948,0.001000,0.001000,0.001000,0.001000,0.001000
1033.173077,-0.042621,0.001000,0.001000,0.001000,0.001000,0.001000
1033.192308,-0.043267,0.001000,0.001000,0.001000,0.001000,0.001000
1033.211538,-0.043885,0.001000,0.001000,0.001000,0.001000,0.001000
1033.230769,-0.044475,0.001000,0.001000,0.001000,0.001000,0.001000
1033.250000,-0.045038,0.001000,0.001000,0.001000,0.001000,0.001000
1033.269231,-0.045571,0.001000,0.001000,0.001000,0.001000,0.001000
1033.288462,-0.046075,0.001000,0.001000,0.001000,0.001000,0.001000
1033.307692,-0.046551,0.001000,0.001000,0.001000,0.001000,0.001000
1033.326923,-0.046996,0.001000,0.001000,0.001000,0.001000,0.001000
1033.346154,-0.047412,0.001000,0.001000,0.001000,0.001000,0.001000
1033.365385,-0.047797,0.001000,0.001000,0.001000,0.001000,0.001000
1033.384615,-0.048152,0.001000,0.001000,0.001000,0.001000,0.001000
1033.403846,-0.048476,0.001000,0.001000,0.001000,0.001000,0.001000
1033.423077,-0.048770,0.001000,0.001000,0.001000,0.001000,0.001000
1033.442308,-0.049032,0.001000,0.001000,0.001000,0.001000,0.001000
1033.461538,-0.049264,0.001000,0.001000,0.001000,0.001000,0.001000
1033.480769,-0.049464,0.001000,0.001000,0.001000,0.001000,0.001000
1033.500000,-0.049632,0.001000,0.001000,0.001000,0.001000,0.001000
1033.519231,-0.049769,0.001000,0.001000,0.001000,0.001000,0.001000
1033.538462,-0.049874,0.001000,0.001000,0.001000,0.001000,0.001000
1033.557692,-0.049948,0.001000,0.001000,0.001000,0.001000,0.001000
1033.576923,-0.049990,0.001000,0.001000,0.001000,0.001000,0.001000
1033.596154,-0.049999,0.001000,0.001000,0.001000,0.001000,0.001000
1033.615385,-0.049978,0.001000,0.001000,0.001000,0.001000,0.001000
1033.634615,-0.049924,0.001000,0.001000,0.001000,0.001000,0.001000
1033.653846,-0.049838,0.001000,0.001000,0.001000,0.001000,0.001000
1033.673077,-0.049721,0.001000,0.001000,0.001000,0.001000,0.001000
1033.692308,-0.049572,0.001000,0.001000,0.001000,0.001000,0.001000
1033.711538,-0.049392,0.001000,0.001000,0.001000,0.001000,0.001000
1033.730769,-0.049180,0.001000,0.001000,0.001000,0.001000,0.001000
1033.750000,-0.048937,0.001000,0.001000,0.001000,0.001000,0.001000
1033.769231,-0.048663,0.001000,0.001000,0.001000,0.001000,0.001000
1033.788462,-0.048358,0.001000,0.001000,0.001000,0.001000,0.001000
1033.807692,-0.048022,0.001000,0.001000,0.001000,0.001000,0.001000
1033.826923,-0.047655,0.001000,0.001000,0.001000,0.001000,0.001000
1033.846154,-0.047258,0.001000,0.001000,0.001000,0.001000,0.001000
1033.865385,-0.046832,0.001000,0.001000,0.001000,0.001000,0.001000
1033.884615,-0.046375,0.001000,0.001000,0.001000,0.001000,0.001000
1033.903846,-0.045889,0.001000,0.001000,0.001000,0.001000,0.001000
1033.923077,-0.045373,0.001000,0.001000,0.001000,0.001000,0.001000
1033.942308,-0.044829,0.001000,0.001000,0.001000,0.001000,0.001000
1033.961538,-0.044256,0.001000,0.001000,0.001000,0.001000,0.001000
1033.980769,-0.043655,0.001000,0.001000,0.001000,0.001000,0.001000
1034.000000,-0.043026,0.001000,0.001000,0.001000,0.001000,0.001000
1034.019231,-0.042370,0.001000,0.001000,0.001000,0.001000,0.001000
1034.038462,-0.041687,0.001000,0.001000,0.001000,0.001000,0.001000
1034.057692,-0.040978,0.001000,0.001000,0.001000,0.001000,0.001000
1034.076923,-0.040242,0.001000,0.001000,0.001000,0.001000,0.001000
1034.096154,-0.039481,0.001000,0.001000,0.001000,0.001000,0.001000
1034.115385,-0.038694,0.001000,0.001000,0.001000,0.001000,0.001000
1034.134615,-0.037883,0.001000,0.001000,0.001000,0.001000,0.001000
1034.153846,-0.037048,0.001000,0.001000,0.001000,0.001000,0.001000
1034.173077,-0.036190,0.001000,0.001000,0.001000,0.001000,0.001000
1034.192308,-0.035308,0.001000,0.001000,0.001000,0.001000,0.001000
1034.211538,-0.034404,0.001000,0.001000,0.001000,0.001000,0.001000
1034.230769,-0.033478,0.001000,0.001000,0.001000,0.001000,0.001000
1034.250000,-0.032530,0.001000,0.001000,0.001000,0.001000,0.001000
1034.269231,-0.031562,0.001000,0.001000,0.001000,0.001000,0.001000
1034.288462,-0.030574,0.001000,0.001000,0.001000,0.001000,0.001000
1034.307692,-0.029566,0.001000,0.001000,0.001000,0.001000,0.001000
1034.326923,-0.028540,0.001000,0.001000,0.001000,0.001000,0.001000
1034.346154,-0.027495,0.001000,0.001000,0.001000,0.001000,0.001000
1034.365385,-0.026433,0.001000,0.001000,0.001000,0.001000,0.001000
1034.384615,-0.025354,0.001000,0.001000,0.001000,0.001000,0.001000
1034.403846,-0.024259,0.001000,0.001000,0.001000,0.001000,0.001000
1034.423077,-0.023149,0.001000,0.001000,0.001000,0.001000,0.001000
1034.442308,-0.022024,0.001000,0.001000,0.001000,0.001000,0.001000
1034.461538,-0.020884,0.001000,0.001000,0.001000,0.001000,0.001000
1034.480769,-0.019732,0.001000,0.001000,0.001000,0.001000,0.001000
1034.500000,-0.018567,0.001000,0.001000,0.001000,0.001000,0.001000
1034.519231,-0.017390,0.001000,0.001000,0.001000,0.001000,0.001000
1034.538462,-0.016202,0.001000,0.001000,0.001000,0.001000,0.001000
1034.557692,-0.015004,0.001000,0.001000,0.001000,0.001000,0.001000
1034.576923,-0.013796,0.001000,0.001000,0.001000,0.001000,0.001000
1034.596154,-0.012579,0.001000,0.001000,0.001000,0.001000,0.001000
1034.615385,-0.011355,0.001000,0.001000,0.001000,0.001000,0.001000
1034.634615,-0.010123,0.001000,0.001000,0.001000,0.001000,0.001000
1034.653846,-0.008885,0.001000,0.001000,0.001000,0.001000,0.001000
1034.673077,-0.007641,0.001000,0.001000,0.001000,0.001000,0.001000
