timestamp,ax,ay,az,gx,gy,gz
1000.000000,0.000000,0.001000,0.001000,0.001000,0.001000,0.001000
1000.019231,0.001135,0.001000,0.001000,0.001000,0.001000,0.001000
1000.038462,0.002270,0.001000,0.001000,0.001000,0.001000,0.001000
1000.057692,0.003404,0.001000,0.001000,0.001000,0.001000,0.001000
1000.076923,0.004536,0.001000,0.001000,0.001000,0.001000,0.001000
1000.096154,0.005665,0.001000,0.001000,0.001000,0.001000,0.001000
1000.115385,0.006792,0.001000,0.001000,0.001000,0.001000,0.001000
1000.134615,0.007915,0.001000,0.001000,0.001000,0.001000,0.001000
1000.153846,0.009034,0.001000,0.001000,0.001000,0.001000,0.001000
1000.173077,0.010149,0.001000,0.001000,0.001000,0.001000,0.001000
1000.192308,0.011258,0.001000,0.001000,0.001000,0.001000,0.001000
1000.211538,0.012361,0.001000,0.001000,0.001000,0.001000,0.001000
1000.230769,0.013458,0.001000,0.001000,0.001000,0.001000,0.001000
1000.250000,0.014548,0.001000,0.001000,0.001000,0.001000,0.001000
1000.269231,0.015631,0.001000,0.001000,0.001000,0.001000,0.001000
1000.288462,0.016705,0.001000,0.001000,0.001000,0.001000,0.001000
1000.307692,0.017771,0.001000,0.001000,0.001000,0.001000,0.001000
1000.326923,0.018828,0.001000,0.001000,0.001000,0.001000,0.001000
1000.346154,0.019875,0.001000,0.001000,0.001000,0.001000,0.001000
1000.365385,0.020911,0.001000,0.001000,0.001000,0.001000,0.001000
1000.384615,0.021937,0.001000,0.001000,0.001000,0.001000,0.001000
1000.403846,0.022952,0.001000,0.001000,0.001000,0.001000,0.001000
1000.423077,0.023955,0.001000,0.001000,0.001000,0.001000,0.001000
1000.442308,0.024945,0.001000,0.001000,0.001000,0.001000,0.001000
1000.461538,0.025923,0.001000,0.001000,0.001000,0.001000,0.001000
1000.480769,0.026887,0.001000,0.001000,0.001000,0.001000,0.001000
1000.500000,0.027837,0.001000,0.001000,0.001000,0.001000,0.001000
1000.519231,0.028773,0.001000,0.001000,0.001000,0.001000,0.001000
1000.538462,0.029694,0.001000,0.001000,0.001000,0.001000,0.001000
1000.557692,0.030600,0.001000,0.001000,0.001000,0.001000,0.001000
1000.576923,0.031490,0.001000,0.001000,0.001000,0.001000,0.001000
1000.596154,0.032364,0.001000,0.001000,0.001000,0.001000,0.001000
1000.615385,0.033221,0.001000,0.001000,0.001000,0.001000,0.001000
1000.634615,0.034061,0.001000,0.001000,0.001000,0.001000,0.001000
1000.653846,0.034884,0.001000,0.001000,0.001000,0.001000,0.001000
1000.673077,0.035688,0.001000,0.001000,0.001000,0.001000,0.001000
1000.692308,0.036474,0.001000,0.001000,0.001000,0.001000,0.001000
1000.711538,0.037241,0.001000,0.001000,0.001000,0.001000,0.001000
1000.730769,0.037989,0.001000,0.001000,0.001000,0.001000,0.001000
1000.750000,0.038718,0.001000,0.001000,0.001000,0.001000,0.001000
1000.769231,0.039426,0.001000,0.001000,0.001000,0.001000,0.001000
1000.788462,0.040114,0.001000,0.001000,0.001000,0.001000,0.001000
1000.807692,0.040782,0.001000,0.001000,0.001000,0.001000,0.001000
1000.826923,0.041428,0.001000,0.001000,0.001000,0.001000,0.001000
1000.846154,0.042053,0.001000,0.001000,0.001000,0.001000,0.001000
1000.865385,0.042657,0.001000,0.001000,0.001000,0.001000,0.001000
1000.884615,0.043238,0.001000,0.001000,0.001000,0.001000,0.001000
1000.903846,0.043797,0.001000,0.001000,0.001000,0.001000,0.001000
1000.923077,0.044333,0.001000,0.001000,0.001000,0.001000,0.001000
1000.942308,0.044847,0.001000,0.001000,0.001000,0.001000,0.001000
1000.961538,0.045337,0.001000,0.001000,0.001000,0.001000,0.001000
1000.980769,0.045805,0.001000,0.001000,0.001000,0.001000,0.001000
1001.000000,0.046248,0.001000,0.001000,0.001000,0.001000,0.001000
1001.019231,0.046668,0.001000,0.001000,0.001000,0.001000,0.001000
1001.038462,0.047063,0.001000,0.001000,0.001000,0.001000,0.001000
1001.057692,0.047434,0.001000,0.001000,0.001000,0.001000,0.001000
1001.076923,0.047781,0.001000,0.001000,0.001000,0.001000,0.001000
1001.096154,0.048103,0.001000,0.001000,0.001000,0.001000,0.001000
1001.115385,0.048401,0.001000,0.001000,0.001000,0.001000,0.001000
1001.134615,0.048673,0.001000,0.001000,0.001000,0.001000,0.001000
1001.153846,0.048920,0.001000,0.001000,0.001000,0.001000,0.001000
1001.173077,0.049142,0.001000,0.001000,0.001000,0.001000,0.001000
1001.192308,0.049339,0.001000,0.001000,0.001000,0.001000,0.001000
1001.211538,0.049510,0.001000,0.001000,0.001000,0.001000,0.001000
1001.230769,0.049656,0.001000,0.001000,0.001000,0.001000,0.001000
1001.250000,0.049776,0.001000,0.001000,0.001000,0.001000,0.001000
1001.269231,0.049871,0.001000,0.001000,0.001000,0.001000,0.001000
1001.288462,0.049939,0.001000,0.001000,0.001000,0.001000,0.001000
1001.307692,0.049982,0.001000,0.001000,0.001000,0.001000,0.001000
1001.326923,0.050000,0.001000,0.001000,0.001000,0.001000,0.001000
1001.346154,0.049991,0.001000,0.001000,0.001000,0.001000,0.001000
1001.365385,0.049957,0.001000,0.001000,0.001000,0.001000,0.001000
1001.384615,0.049897,0.001000,0.001000,0.001000,0.001000,0.001000
1001.403846,0.049811,0.001000,0.001000,0.001000,0.001000,0.001000
1001.423077,0.049699,0.001000,0.001000,0.001000,0.001000,0.001000
1001.442308,0.049562,0.001000,0.001000,0.001000,0.001000,0.001000
1001.461538,0.049399,0.001000,0.001000,0.001000,0.001000,0.001000
1001.480769,0.049211,0.001000,0.001000,0.001000,0.001000,0.001000
1001.500000,0.048997,0.001000,0.001000,0.001000,0.001000,0.001000
1001.519231,0.048759,0.001000,0.001000,0.001000,0.001000,0.001000
1001.538462,0.048495,0.001000,0.001000,0.001000,0.001000,0.001000
1001.557692,0.048205,0.001000,0.001000,0.001000,0.001000,0.001000
1001.576923,0.047892,0.001000,0.001000,0.001000,0.001000,0.001000
1001.596154,0.047553,0.001000,0.001000,0.001000,0.001000,0.001000
1001.615385,0.047190,0.001000,0.001000,0.001000,0.001000,0.001000
1001.634615,0.046802,0.001000,0.001000,0.001000,0.001000,0.001000
1001.653846,0.046391,0.001000,0.001000,0.001000,0.001000,0.001000
1001.673077,0.045955,0.001000,0.001000,0.001000,0.001000,0.001000
1001.692308,0.045496,0.001000,0.001000,0.001000,0.001000,0.001000
1001.711538,0.045013,0.001000,0.001000,0.001000,0.001000,0.001000
1001.730769,0.044508,0.001000,0.001000,0.001000,0.001000,0.001000
1001.750000,0.043979,0.001000,0.001000,0.001000,0.001000,0.001000
1001.769231,0.043427,0.001000,0.001000,0.001000,0.001000,0.001000
1001.788462,0.042853,0.001000,0.001000,0.001000,0.001000,0.001000
1001.807692,0.042257,0.001000,0.001000,0.001000,0.001000,0.001000
1001.826923,0.041639,0.001000,0.001000,0.001000,0.001000,0.001000
1001.846154,0.041000,0.001000,0.001000,0.001000,0.001000,0.001000
1001.865385,0.040340,0.001000,0.001000,0.001000,0.001000,0.001000
1001.884615,0.039658,0.001000,0.001000,0.001000,0.001000,0.001000
1001.903846,0.038957,0.001000,0.001000,0.001000,0.001000,0.001000
1001.923077,0.038235,0.001000,0.001000,0.001000,0.001000,0.001000
1001.942308,0.037494,0.001000,0.001000,0.001000,0.001000,0.001000
1001.961538,0.036733,0.001000,0.001000,0.001000,0.001000,0.001000
1001.980769,0.035953,0.001000,0.001000,0.001000,0.001000,0.001000
1002.000000,0.035155,0.001000,0.001000,0.001000,0.001000,0.001000
1002.019231,0.034338,0.001000,0.001000,0.001000,0.001000,0.001000
1002.038462,0.033504,0.001000,0.001000,0.001000,0.001000,0.001000
1002.057692,0.032652,0.001000,0.001000,0.001000,0.001000,0.001000
1002.076923,0.031784,0.001000,0.001000,0.001000,0.001000,0.001000
1002.096154,0.030900,0.001000,0.001000,0.001000,0.001000,0.001000
1002.115385,0.029999,0.001000,0.001000,0.001000,0.001000,0.001000
1002.134615,0.029083,0.001000,0.001000,0.001000,0.001000,0.001000
1002.153846,0.028152,0.001000,0.001000,0.001000,0.001000,0.001000
1002.173077,0.027206,0.001000,0.001000,0.001000,0.001000,0.001000
1002.192308,0.026247,0.001000,0.001000,0.001000,0.001000,0.001000
1002.211538,0.025273,0.001000,0.001000,0.001000,0.001000,0.001000
1002.230769,0.024287,0.001000,0.001000,0.001000,0.001000,0.001000
1002.250000,0.023288,0.001000,0.001000,0.001000,0.001000,0.001000
1002.269231,0.022278,0.001000,0.001000,0.001000,0.001000,0.001000
1002.288462,0.021255,0.001000,0.001000,0.001000,0.001000,0.001000
1002.307692,0.020222,0.001000,0.001000,0.001000,0.001000,0.001000
1002.326923,0.019179,0.001000,0.001000,0.001000,0.001000,0.001000
1002.346154,0.018125,0.001000,0.001000,0.001000,0.001000,0.001000
1002.365385,0.017062,0.001000,0.001000,0.001000,0.001000,0.001000
1002.384615,0.015991,0.001000,0.001000,0.001000,0.001000,0.001000
1002.403846,0.014911,0.001000,0.001000,0.001000,0.001000,0.001000
1002.423077,0.013823,0.001000,0.001000,0.001000,0.001000,0.001000
1002.442308,0.012728,0.001000,0.001000,0.001000,0.001000,0.001000
1002.461538,0.011627,0.001000,0.001000,0.001000,0.001000,0.001000
1002.480769,0.010520,0.001000,0.001000,0.001000,0.001000,0.001000
1002.500000,0.009407,0.001000,0.001000,0.001000,0.001000,0.001000
1002.519231,0.008290,0.001000,0.001000,0.001000,0.001000,0.001000
1002.538462,0.007168,0.001000,0.001000,0.001000,0.001000,0.001000
1002.557692,0.006042,0.001000,0.001000,0.001000,0.001000,0.001000
1002.576923,0.004914,0.001000,0.001000,0.001000,0.001000,0.001000
1002.596154,0.003782,0.001000,0.001000,0.001000,0.001000,0.001000
1002.615385,0.002649,0.001000,0.001000,0.001000,0.001000,0.001000
1002.634615,0.001515,0.001000,0.001000,0.001000,0.001000,0.001000
1002.653846,0.000379,0.001000,0.001000,0.001000,0.001000,0.001000
1002.673077,-0.000756,0.001000,0.001000,0.001000,0.001000,0.001000
1002.692308,-0.001891,0.001000,0.001000,0.001000,0.001000,0.001000
1002.711538,-0.003025,0.001000,0.001000,0.001000,0.001000,0.001000
1002.730769,-0.004158,0.001000,0.001000,0.001000,0.001000,0.001000
1002.750000,-0.005288,0.001000,0.001000,0.001000,0.001000,0.001000
1002.769231,-0.006416,0.001000,0.001000,0.001000,0.001000,0.001000
1002.788462,-0.007540,0.001000,0.001000,0.001000,0.001000,0.001000
1002.807692,-0.008661,0.001000,0.001000,0.001000,0.001000,0.001000
1002.826923,-0.009777,0.001000,0.001000,0.001000,0.001000,0.001000
1002.846154,-0.010888,0.001000,0.001000,0.001000,0.001000,0.001000
1002.865385,-0.011993,0.001000,0.001000,0.001000,0.001000,0.001000
1002.884615,-0.013092,0.001000,0.001000,0.001000,0.001000,0.001000
1002.903846,-0.014185,0.001000,0.001000,0.001000,0.001000,0.001000
1002.923077,-0.015270,0.001000,0.001000,0.001000,0.001000,0.001000
1002.942308,-0.016347,0.001000,0.001000,0.001000,0.001000,0.001000
1002.961538,-0.017416,0.001000,0.001000,0.001000,0.001000,0.001000
1002.980769,-0.018476,0.001000,0.001000,0.001000,0.001000,0.001000
1003.000000,-0.019526,0.001000,0.001000,0.001000,0.001000,0.001000
1003.019231,-0.020566,0.001000,0.001000,0.001000,0.001000,0.001000
1003.038462,-0.021596,0.001000,0.001000,0.001000,0.001000,0.001000
1003.057692,-0.022614,0.001000,0.001000,0.001000,0.001000,0.001000
1003.076923,-0.023621,0.001000,0.001000,0.001000,0.001000,0.001000
1003.096154,-0.024616,0.001000,0.001000,0.001000,0.001000,0.001000
1003.115385,-0.025598,0.001000,0.001000,0.001000,0.001000,0.001000
1003.134615,-0.026566,0.001000,0.001000,0.001000,0.001000,0.001000
1003.153846,-0.027521,0.001000,0.001000,0.001000,0.001000,0.001000
1003.173077,-0.028462,0.001000,0.001000,0.001000,0.001000,0.001000
1003.192308,-0.029388,0.001000,0.001000,0.001000,0.001000,0.001000
1003.211538,-0.030299,0.001000,0.001000,0.001000,0.001000,0.001000
1003.230769,-0.031195,0.001000,0.001000,0.001000,0.001000,0.001000
1003.250000,-0.032074,0.001000,0.001000,0.001000,0.001000,0.001000
1003.269231,-0.032937,0.001000,0.001000,0.001000,0.001000,0.001000
1003.288462,-0.033782,0.001000,0.001000,0.001000,0.001000,0.001000
1003.307692,-0.034611,0.001000,0.001000,0.001000,0.001000,0.001000
1003.326923,-0.035421,0.001000,0.001000,0.001000,0.001000,0.001000
1003.346154,-0.036214,0.001000,0.001000,0.001000,0.001000,0.001000
1003.365385,-0.036987,0.001000,0.001000,0.001000,0.001000,0.001000
1003.384615,-0.037742,0.001000,0.001000,0.001000,0.001000,0.001000
1003.403846,-0.038477,0.001000,0.001000,0.001000,0.001000,0.001000
1003.423077,-0.039192,0.001000,0.001000,0.001000,0.001000,0.001000
1003.442308,-0.039887,0.001000,0.001000,0.001000,0.001000,0.001000
1003.461538,-0.040561,0.001000,0.001000,0.001000,0.001000,0.001000
1003.480769,-0.041215,0.001000,0.001000,0.001000,0.001000,0.001000
1003.500000,-0.041847,0.001000,0.001000,0.001000,0.001000,0.001000
1003.519231,-0.042457,0.001000,0.001000,0.001000,0.001000,0.001000
1003.538462,-0.043046,0.001000,0.001000,0.001000,0.001000,0.001000
1003.557692,-0.043613,0.001000,0.001000,0.001000,0.001000,0.001000
1003.576923,-0.044157,0.001000,0.001000,0.001000,0.001000,0.001000
1003.596154,-0.044678,0.001000,0.001000,0.001000,0.001000,0.001000
1003.615385,-0.045176,0.001000,0.001000,0.001000,0.001000,0.001000
1003.634615,-0.045651,0.001000,0.001000,0.001000,0.001000,0.001000
1003.653846,-0.046102,0.001000,0.001000,0.001000,0.001000,0.001000
1003.673077,-0.046530,0.001000,0.001000,0.001000,0.001000,0.001000
1003.692308,-0.046934,0.001000,0.001000,0.001000,0.001000,0.001000
1003.711538,-0.047313,0.001000,0.001000,0.001000,0.001000,0.001000
1003.730769,-0.047668,0.001000,0.001000,0.001000,0.001000,0.001000
1003.750000,-0.047998,0.001000,0.001000,0.001000,0.001000,0.001000
1003.769231,-0.048304,0.001000,0.001000,0.001000,0.001000,0.001000
1003.788462,-0.048585,0.001000,0.001000,0.001000,0.001000,0.001000
1003.807692,-0.048841,0.001000,0.001000,0.001000,0.001000,0.001000
1003.826923,-0.049071,0.001000,0.001000,0.001000,0.001000,0.001000
1003.846154,-0.049276,0.001000,0.001000,0.001000,0.001000,0.001000
1003.865385,-0.049456,0.001000,0.001000,0.001000,0.001000,0.001000
1003.884615,-0.049610,0.001000,0.001000,0.001000,0.001000,0.001000
1003.903846,-0.049739,0.001000,0.001000,0.001000,0.001000,0.001000
1003.923077,-0.049842,0.001000,0.001000,0.001000,0.001000,0.001000
1003.942308,-0.049919,0.001000,0.001000,0.001000,0.001000,0.001000
1003.961538,-0.049971,0.001000,0.001000,0.001000,0.001000,0.001000
1003.980769,-0.049997,0.001000,0.001000,0.001000,0.001000,0.001000
1004.000000,-0.049997,0.001000,0.001000,0.001000,0.001000,0.001000
1004.019231,-0.049971,0.001000,0.001000,0.001000,0.001000,0.001000
1004.038462,-0.049920,0.001000,0.001000,0.001000,0.001000,0.001000
1004.057692,-0.049842,0.001000,0.001000,0.001000,0.001000,0.001000
1004.076923,-0.049739,0.001000,0.001000,0.001000,0.001000,0.001000
1004.096154,-0.049611,0.001000,0.001000,0.001000,0.001000,0.001000
1004.115385,-0.049456,0.001000,0.001000,0.001000,0.001000,0.001000
1004.134615,-0.049277,0.001000,0.001000,0.001000,0.001000,0.001000
1004.153846,-0.049072,0.001000,0.001000,0.001000,0.001000,0.001000
1004.173077,-0.048841,0.001000,0.001000,0.001000,0.001000,0.001000
1004.192308,-0.048586,0.001000,0.001000,0.001000,0.001000,0.001000
1004.211538,-0.048305,0.001000,0.001000,0.001000,0.001000,0.001000
1004.230769,-0.047999,0.001000,0.001000,0.001000,0.001000,0.001000
1004.250000,-0.047669,0.001000,0.001000,0.001000,0.001000,0.001000
1004.269231,-0.047314,0.001000,0.001000,0.001000,0.001000,0.001000
1004.288462,-0.046935,0.001000,0.001000,0.001000,0.001000,0.001000
1004.307692,-0.046531,0.001000,0.001000,0.001000,0.001000,0.001000
1004.326923,-0.046104,0.001000,0.001000,0.001000,0.001000,0.001000
1004.346154,-0.045652,0.001000,0.001000,0.001000,0.001000,0.001000
1004.365385,-0.045177,0.001000,0.001000,0.001000,0.001000,0.001000
1004.384615,-0.044679,0.001000,0.001000,0.001000,0.001000,0.001000
1004.403846,-0.044158,0.001000,0.001000,0.001000,0.001000,0.001000
1004.423077,-0.043614,0.001000,0.001000,0.001000,0.001000,0.001000
1004.442308,-0.043048,0.001000,0.001000,0.001000,0.001000,0.001000
1004.461538,-0.042459,0.001000,0.001000,0.001000,0.001000,0.001000
1004.480769,-0.041848,0.001000,0.001000,0.001000,0.001000,0.001000
1004.500000,-0.041216,0.001000,0.001000,0.001000,0.001000,0.001000
1004.519231,-0.040563,0.001000,0.001000,0.001000,0.001000,0.001000
1004.538462,-0.039888,0.001000,0.001000,0.001000,0.001000,0.001000
1004.557692,-0.039194,0.001000,0.001000,0.001000,0.001000,0.001000
1004.576923,-0.038478,0.001000,0.001000,0.001000,0.001000,0.001000
1004.596154,-0.037743,0.001000,0.001000,0.001000,0.001000,0.001000
1004.615385,-0.036989,0.001000,0.001000,0.001000,0.001000,0.001000
1004.634615,-0.036216,0.001000,0.001000,0.001000,0.001000,0.001000
1004.653846,-0.035423,0.001000,0.001000,0.001000,0.001000,0.001000
1004.673077,-0.034613,0.001000,0.001000,0.001000,0.001000,0.001000
1004.692308,-0.033785,0.001000,0.001000,0.001000,0.001000,0.001000
1004.711538,-0.032939,0.001000,0.001000,0.001000,0.001000,0.001000
1004.730769,-0.032076,0.001000,0.001000,0.001000,0.001000,0.001000
1004.750000,-0.031197,0.001000,0.001000,0.001000,0.001000,0.001000
1004.769231,-0.030302,0.001000,0.001000,0.001000,0.001000,0.001000
1004.788462,-0.029391,0.001000,0.001000,0.001000,0.001000,0.001000
1004.807692,-0.028465,0.001000,0.001000,0.001000,0.001000,0.001000
1004.826923,-0.027524,0.001000,0.001000,0.001000,0.001000,0.001000
1004.846154,-0.026569,0.001000,0.001000,0.001000,0.001000,0.001000
1004.865385,-0.025600,0.001000,0.001000,0.001000,0.001000,0.001000
1004.884615,-0.024618,0.001000,0.001000,0.001000,0.001000,0.001000
1004.903846,-0.023624,0.001000,0.001000,0.001000,0.001000,0.001000
1004.923077,-0.022617,0.001000,0.001000,0.001000,0.001000,0.001000
1004.942308,-0.021598,0.001000,0.001000,0.001000,0.001000,0.001000
1004.961538,-0.020569,0.001000,0.001000,0.001000,0.001000,0.001000
1004.980769,-0.019529,0.001000,0.001000,0.001000,0.001000,0.001000
1005.000000,-0.018478,0.001000,0.001000,0.001000,0.001000,0.001000
1005.019231,-0.017419,0.001000,0.001000,0.001000,0.001000,0.001000
1005.038462,-0.016350,0.001000,0.001000,0.001000,0.001000,0.001000
1005.057692,-0.015273,0.001000,0.001000,0.001000,0.001000,0.001000
1005.076923,-0.014187,0.001000,0.001000,0.001000,0.001000,0.001000
1005.096154,-0.013095,0.001000,0.001000,0.001000,0.001000,0.001000
1005.115385,-0.011996,0.001000,0.001000,0.001000,0.001000,0.001000
1005.134615,-0.010891,0.001000,0.001000,0.001000,0.001000,0.001000
1005.153846,-0.009780,0.001000,0.001000,0.001000,0.001000,0.001000
1005.173077,-0.008664,0.001000,0.001000,0.001000,0.001000,0.001000
1005.192308,-0.007543,0.001000,0.001000,0.001000,0.001000,0.001000
1005.211538,-0.006419,0.001000,0.001000,0.001000,0.001000,0.001000
1005.230769,-0.005291,0.001000,0.001000,0.001000,0.001000,0.001000
1005.250000,-0.004161,0.001000,0.001000,0.001000,0.001000,0.001000
1005.269231,-0.003028,0.001000,0.001000,0.001000,0.001000,0.001000
1005.288462,-0.001894,0.001000,0.001000,0.001000,0.001000,0.001000
1005.307692,-0.000759,0.001000,0.001000,0.001000,0.001000,0.001000
1005.326923,0.000377,0.001000,0.001000,0.001000,0.001000,0.001000
1005.346154,0.001512,0.001000,0.001000,0.001000,0.001000,0.001000
1005.365385,0.002646,0.001000,0.001000,0.001000,0.001000,0.001000
1005.384615,0.003779,0.001000,0.001000,0.001000,0.001000,0.001000
1005.403846,0.004911,0.001000,0.001000,0.001000,0.001000,0.001000
1005.423077,0.006039,0.001000,0.001000,0.001000,0.001000,0.001000
1005.442308,0.007165,0.001000,0.001000,0.001000,0.001000,0.001000
1005.461538,0.008287,0.001000,0.001000,0.001000,0.001000,0.001000
1005.480769,0.009404,0.001000,0.001000,0.001000,0.001000,0.001000
1005.500000,0.010517,0.001000,0.001000,0.001000,0.001000,0.001000
1005.519231,0.011624,0.001000,0.001000,0.001000,0.001000,0.001000
1005.538462,0.012726,0.001000,0.001000,0.001000,0.001000,0.001000
1005.557692,0.013820,0.001000,0.001000,0.001000,0.001000,0.001000
1005.576923,0.014908,0.001000,0.001000,0.001000,0.001000,0.001000
1005.596154,0.015988,0.001000,0.001000,0.001000,0.001000,0.001000
1005.615385,0.017060,0.001000,0.001000,0.001000,0.001000,0.001000
1005.634615,0.018122,0.001000,0.001000,0.001000,0.001000,0.001000
1005.653846,0.019176,0.001000,0.001000,0.001000,0.001000,0.001000
1005.673077,0.020220,0.001000,0.001000,0.001000,0.001000,0.001000
1005.692308,0.021253,0.001000,0.001000,0.001000,0.001000,0.001000
1005.711538,0.022275,0.001000,0.001000,0.001000,0.001000,0.001000
1005.730769,0.023286,0.001000,0.001000,0.001000,0.001000,0.001000
1005.750000,0.024285,0.001000,0.001000,0.001000,0.001000,0.001000
1005.769231,0.025271,0.001000,0.001000,0.001000,0.001000,0.001000
1005.788462,0.026244,0.001000,0.001000,0.001000,0.001000,0.001000
1005.807692,0.027204,0.001000,0.001000,0.001000,0.001000,0.001000
1005.826923,0.028149,0.001000,0.001000,0.001000,0.001000,0.001000
1005.846154,0.029080,0.001000,0.001000,0.001000,0.001000,0.001000
1005.865385,0.029997,0.001000,0.001000,0.001000,0.001000,0.001000
1005.884615,0.030897,0.001000,0.001000,0.001000,0.001000,0.001000
1005.903846,0.031782,0.001000,0.001000,0.001000,0.001000,0.001000
1005.923077,0.032650,0.001000,0.001000,0.001000,0.001000,0.001000
1005.942308,0.033502,0.001000,0.001000,0.001000,0.001000,0.001000
1005.961538,0.034336,0.001000,0.001000,0.001000,0.001000,0.001000
1005.980769,0.035152,0.001000,0.001000,0.001000,0.001000,0.001000
1006.000000,0.035951,0.001000,0.001000,0.001000,0.001000,0.001000
1006.019231,0.036731,0.001000,0.001000,0.001000,0.001000,0.001000
1006.038462,0.037492,0.001000,0.001000,0.001000,0.001000,0.001000
1006.057692,0.038233,0.001000,0.001000,0.001000,0.001000,0.001000
1006.076923,0.038955,0.001000,0.001000,0.001000,0.001000,0.001000
1006.096154,0.039657,0.001000,0.001000,0.001000,0.001000,0.001000
1006.115385,0.040338,0.001000,0.001000,0.001000,0.001000,0.001000
1006.134615,0.040998,0.001000,0.001000,0.001000,0.001000,0.001000
1006.153846,0.041638,0.001000,0.001000,0.001000,0.001000,0.001000
1006.173077,0.042256,0.001000,0.001000,0.001000,0.001000,0.001000
1006.192308,0.042852,0.001000,0.001000,0.001000,0.001000,0.001000
1006.211538,0.043426,0.001000,0.001000,0.001000,0.001000,0.001000
1006.230769,0.043977,0.001000,0.001000,0.001000,0.001000,0.001000
1006.250000,0.044506,0.001000,0.001000,0.001000,0.001000,0.001000
1006.269231,0.045012,0.001000,0.001000,0.001000,0.001000,0.001000
1006.288462,0.045495,0.001000,0.001000,0.001000,0.001000,0.001000
1006.307692,0.045954,0.001000,0.001000,0.001000,0.001000,0.001000
1006.326923,0.046390,0.001000,0.001000,0.001000,0.001000,0.001000
1006.346154,0.046801,0.001000,0.001000,0.001000,0.001000,0.001000
1006.365385,0.047189,0.001000,0.001000,0.001000,0.001000,0.001000
1006.384615,0.047552,0.001000,0.001000,0.001000,0.001000,0.001000
1006.403846,0.047891,0.001000,0.001000,0.001000,0.001000,0.001000
1006.423077,0.048205,0.001000,0.001000,0.001000,0.001000,0.001000
1006.442308,0.048494,0.001000,0.001000,0.001000,0.001000,0.001000
1006.461538,0.048758,0.001000,0.001000,0.001000,0.001000,0.001000
1006.480769,0.048997,0.001000,0.001000,0.001000,0.001000,0.001000
1006.500000,0.049210,0.001000,0.001000,0.001000,0.001000,0.001000
1006.519231,0.049399,0.001000,0.001000,0.001000,0.001000,0.001000
1006.538462,0.049562,0.001000,0.001000,0.001000,0.001000,0.001000
1006.557692,0.049699,0.001000,0.001000,0.001000,0.001000,0.001000
1006.576923,0.049810,0.001000,0.001000,0.001000,0.001000,0.001000
1006.596154,0.049896,0.001000,0.001000,0.001000,0.001000,0.001000
1006.615385,0.049957,0.001000,0.001000,0.001000,0.001000,0.001000
1006.634615,0.049991,0.001000,0.001000,0.001000,0.001000,0.001000
1006.653846,0.050000,0.001000,0.001000,0.001000,0.001000,0.001000
1006.673077,0.049983,0.001000,0.001000,0.001000,0.001000,0.001000
1006.692308,0.049940,0.001000,0.001000,0.001000,0.001000,0.001000
1006.711538,0.049871,0.001000,0.001000,0.001000,0.001000,0.001000
1006.730769,0.049777,0.001000,0.001000,0.001000,0.001000,0.001000
1006.750000,0.049656,0.001000,0.001000,0.001000,0.001000,0.001000
1006.769231,0.049511,0.001000,0.001000,0.001000,0.001000,0.001000
1006.788462,0.049340,0.001000,0.001000,0.001000,0.001000,0.001000
1006.807692,0.049143,0.001000,0.001000,0.001000,0.001000,0.001000
1006.826923,0.048921,0.001000,0.001000,0.001000,0.001000,0.001000
1006.846154,0.048674,0.001000,0.001000,0.001000,0.001000,0.001000
1006.865385,0.048401,0.001000,0.001000,0.001000,0.001000,0.001000
1006.884615,0.048104,0.001000,0.001000,0.001000,0.001000,0.001000
1006.903846,0.047782,0.001000,0.001000,0.001000,0.001000,0.001000
1006.923077,0.047435,0.001000,0.001000,0.001000,0.001000,0.001000
1006.942308,0.047064,0.001000,0.001000,0.001000,0.001000,0.001000
1006.961538,0.046669,0.001000,0.001000,0.001000,0.001000,0.001000
1006.980769,0.046249,0.001000,0.001000,0.001000,0.001000,0.001000
1007.000000,0.045806,0.001000,0.001000,0.001000,0.001000,0.001000
1007.019231,0.045339,0.001000,0.001000,0.001000,0.001000,0.001000
1007.038462,0.044848,0.001000,0.001000,0.001000,0.001000,0.001000
1007.057692,0.044335,0.001000,0.001000,0.001000,0.001000,0.001000
1007.076923,0.043798,0.001000,0.001000,0.001000,0.001000,0.001000
1007.096154,0.043239,0.001000,0.001000,0.001000,0.001000,0.001000
1007.115385,0.042658,0.001000,0.001000,0.001000,0.001000,0.001000
1007.134615,0.042055,0.001000,0.001000,0.001000,0.001000,0.001000
1007.153846,0.041430,0.001000,0.001000,0.001000,0.001000,0.001000
1007.173077,0.040783,0.001000,0.001000,0.001000,0.001000,0.001000
1007.192308,0.040116,0.001000,0.001000,0.001000,0.001000,0.001000
1007.211538,0.039428,0.001000,0.001000,0.001000,0.001000,0.001000
1007.230769,0.038720,0.001000,0.001000,0.001000,0.001000,0.001000
1007.250000,0.037991,0.001000,0.001000,0.001000,0.001000,0.001000
1007.269231,0.037243,0.001000,0.001000,0.001000,0.001000,0.001000
1007.288462,0.036476,0.001000,0.001000,0.001000,0.001000,0.001000
1007.307692,0.035690,0.001000,0.001000,0.001000,0.001000,0.001000
1007.326923,0.034886,0.001000,0.001000,0.001000,0.001000,0.001000
1007.346154,0.034063,0.001000,0.001000,0.001000,0.001000,0.001000
1007.365385,0.033223,0.001000,0.001000,0.001000,0.001000,0.001000
1007.384615,0.032366,0.001000,0.001000,0.001000,0.001000,0.001000
1007.403846,0.031493,0.001000,0.001000,0.001000,0.001000,0.001000
1007.423077,0.030603,0.001000,0.001000,0.001000,0.001000,0.001000
1007.442308,0.029697,0.001000,0.001000,0.001000,0.001000,0.001000
1007.461538,0.028776,0.001000,0.001000,0.001000,0.001000,0.001000
1007.480769,0.027840,0.001000,0.001000,0.001000,0.001000,0.001000
1007.500000,0.026889,0.001000,0.001000,0.001000,0.001000,0.001000
1007.519231,0.025925,0.001000,0.001000,0.001000,0.001000,0.001000
1007.538462,0.024948,0.001000,0.001000,0.001000,0.001000,0.001000
1007.557692,0.023957,0.001000,0.001000,0.001000,0.001000,0.001000
1007.576923,0.022955,0.001000,0.001000,0.001000,0.001000,0.001000
1007.596154,0.021940,0.001000,0.001000,0.001000,0.001000,0.001000
1007.615385,0.020914,0.001000,0.001000,0.001000,0.001000,0.001000
1007.634615,0.019877,0.001000,0.001000,0.001000,0.001000,0.001000
1007.653846,0.018830,0.001000,0.001000,0.001000,0.001000,0.001000
1007.673077,0.017774,0.001000,0.001000,0.001000,0.001000,0.001000
1007.692308,0.016708,0.001000,0.001000,0.001000,0.001000,0.001000
1007.711538,0.015633,0.001000,0.001000,0.001000,0.001000,0.001000
1007.730769,0.014551,0.001000,0.001000,0.001000,0.001000,0.001000
1007.750000,0.013461,0.001000,0.001000,0.001000,0.001000,0.001000
1007.769231,0.012364,0.001000,0.001000,0.001000,0.001000,0.001000
1007.788462,0.011261,0.001000,0.001000,0.001000,0.001000,0.001000
1007.807692,0.010151,0.001000,0.001000,0.001000,0.001000,0.001000
1007.826923,0.009037,0.001000,0.001000,0.001000,0.001000,0.001000
1007.846154,0.007918,0.001000,0.001000,0.001000,0.001000,0.001000
1007.865385,0.006795,0.001000,0.001000,0.001000,0.001000,0.001000
1007.884615,0.005668,0.001000,0.001000,0.001000,0.001000,0.001000
1007.903846,0.004539,0.001000,0.001000,0.001000,0.001000,0.001000
1007.923077,0.003407,0.001000,0.001000,0.001000,0.001000,0.001000
1007.942308,0.002273,0.001000,0.001000,0.001000,0.001000,0.001000
1007.961538,0.001138,0.001000,0.001000,0.001000,0.001000,0.001000
1007.980769,0.000003,0.001000,0.001000,0.001000,0.001000,0.001000
1008.000000,-0.001132,0.001000,0.001000,0.001000,0.001000,0.001000
1008.019231,-0.002267,0.001000,0.001000,0.001000,0.001000,0.001000
1008.038462,-0.003401,0.001000,0.001000,0.001000,0.001000,0.001000
1008.057692,-0.004533,0.001000,0.001000,0.001000,0.001000,0.001000
1008.076923,-0.005662,0.001000,0.001000,0.001000,0.001000,0.001000
1008.096154,-0.006789,0.001000,0.001000,0.001000,0.001000,0.001000
1008.115385,-0.007912,0.001000,0.001000,0.001000,0.001000,0.001000
1008.134615,-0.009031,0.001000,0.001000,0.001000,0.001000,0.001000
1008.153846,-0.010146,0.001000,0.001000,0.001000,0.001000,0.001000
1008.173077,-0.011255,0.001000,0.001000,0.001000,0.001000,0.001000
1008.192308,-0.012358,0.001000,0.001000,0.001000,0.001000,0.001000
1008.211538,-0.013455,0.001000,0.001000,0.001000,0.001000,0.001000
1008.230769,-0.014545,0.001000,0.001000,0.001000,0.001000,0.001000
1008.250000,-0.015628,0.001000,0.001000,0.001000,0.001000,0.001000
1008.269231,-0.016702,0.001000,0.001000,0.001000,0.001000,0.001000
1008.288462,-0.017768,0.001000,0.001000,0.001000,0.001000,0.001000
1008.307692,-0.018825,0.001000,0.001000,0.001000,0.001000,0.001000
1008.326923,-0.019872,0.001000,0.001000,0.001000,0.001000,0.001000
1008.346154,-0.020909,0.001000,0.001000,0.001000,0.001000,0.001000
1008.365385,-0.021935,0.001000,0.001000,0.001000,0.001000,0.001000
1008.384615,-0.022949,0.001000,0.001000,0.001000,0.001000,0.001000
1008.403846,-0.023952,0.001000,0.001000,0.001000,0.001000,0.001000
1008.423077,-0.024943,0.001000,0.001000,0.001000,0.001000,0.001000
1008.442308,-0.025920,0.001000,0.001000,0.001000,0.001000,0.001000
1008.461538,-0.026885,0.001000,0.001000,0.001000,0.001000,0.001000
1008.480769,-0.027835,0.001000,0.001000,0.001000,0.001000,0.001000
1008.500000,-0.028771,0.001000,0.001000,0.001000,0.001000,0.001000
1008.519231,-0.029692,0.001000,0.001000,0.001000,0.001000,0.001000
1008.538462,-0.030598,0.001000,0.001000,0.001000,0.001000,0.001000
1008.557692,-0.031488,0.001000,0.001000,0.001000,0.001000,0.001000
1008.576923,-0.032362,0.001000,0.001000,0.001000,0.001000,0.001000
1008.596154,-0.033219,0.001000,0.001000,0.001000,0.001000,0.001000
1008.615385,-0.034059,0.001000,0.001000,0.001000,0.001000,0.001000
1008.634615,-0.034882,0.001000,0.001000,0.001000,0.001000,0.001000
1008.653846,-0.035686,0.001000,0.001000,0.001000,0.001000,0.001000
1008.673077,-0.036472,0.001000,0.001000,0.001000,0.001000,0.001000
1008.692308,-0.037239,0.001000,0.001000,0.001000,0.001000,0.001000
1008.711538,-0.037987,0.001000,0.001000,0.001000,0.001000,0.001000
1008.730769,-0.038716,0.001000,0.001000,0.001000,0.001000,0.001000
1008.750000,-0.039424,0.001000,0.001000,0.001000,0.001000,0.001000
1008.769231,-0.040113,0.001000,0.001000,0.001000,0.001000,0.001000
1008.788462,-0.040780,0.001000,0.001000,0.001000,0.001000,0.001000
1008.807692,-0.041427,0.001000,0.001000,0.001000,0.001000,0.001000
1008.826923,-0.042052,0.001000,0.001000,0.001000,0.001000,0.001000
1008.846154,-0.042655,0.001000,0.001000,0.001000,0.001000,0.001000
1008.865385,-0.043236,0.001000,0.001000,0.001000,0.001000,0.001000
1008.884615,-0.043796,0.001000,0.001000,0.001000,0.001000,0.001000
1008.903846,-0.044332,0.001000,0.001000,0.001000,0.001000,0.001000
1008.923077,-0.044846,0.001000,0.001000,0.001000,0.001000,0.001000
1008.942308,-0.045336,0.001000,0.001000,0.001000,0.001000,0.001000
1008.961538,-0.045803,0.001000,0.001000,0.001000,0.001000,0.001000
1008.980769,-0.046247,0.001000,0.001000,0.001000,0.001000,0.001000
1009.000000,-0.046667,0.001000,0.001000,0.001000,0.001000,0.001000
1009.019231,-0.047062,0.001000,0.001000,0.001000,0.001000,0.001000
1009.038462,-0.047433,0.001000,0.001000,0.001000,0.001000,0.001000
1009.057692,-0.047780,0.001000,0.001000,0.001000,0.001000,0.001000
1009.076923,-0.048103,0.001000,0.001000,0.001000,0.001000,0.001000
1009.096154,-0.048400,0.001000,0.001000,0.001000,0.001000,0.001000
1009.115385,-0.048672,0.001000,0.001000,0.001000,0.001000,0.001000
1009.134615,-0.048920,0.001000,0.001000,0.001000,0.001000,0.001000
1009.153846,-0.049142,0.001000,0.001000,0.001000,0.001000,0.001000
1009.173077,-0.049339,0.001000,0.001000,0.001000,0.001000,0.001000
1009.192308,-0.049510,0.001000,0.001000,0.001000,0.001000,0.001000
1009.211538,-0.049656,0.001000,0.001000,0.001000,0.001000,0.001000
1009.230769,-0.049776,0.001000,0.001000,0.001000,0.001000,0.001000
1009.250000,-0.049871,0.001000,0.001000,0.001000,0.001000,0.001000
1009.269231,-0.049939,0.001000,0.001000,0.001000,0.001000,0.001000
1009.288462,-0.049982,0.001000,0.001000,0.001000,0.001000,0.001000
1009.307692,-0.050000,0.001000,0.001000,0.001000,0.001000,0.001000
1009.326923,-0.049991,0.001000,0.001000,0.001000,0.001000,0.001000
1009.346154,-0.049957,0.001000,0.001000,0.001000,0.001000,0.001000
1009.365385,-0.049897,0.001000,0.001000,0.001000,0.001000,0.001000
1009.384615,-0.049811,0.001000,0.001000,0.001000,0.001000,0.001000
1009.403846,-0.049699,0.001000,0.001000,0.001000,0.001000,0.001000
1009.423077,-0.049562,0.001000,0.001000,0.001000,0.001000,0.001000
1009.442308,-0.049400,0.001000,0.001000,0.001000,0.001000,0.001000
1009.461538,-0.049212,0.001000,0.001000,0.001000,0.001000,0.001000
1009.480769,-0.048998,0.001000,0.001000,0.001000,0.001000,0.001000
1009.500000,-0.048759,0.001000,0.001000,0.001000,0.001000,0.001000
1009.519231,-0.048495,0.001000,0.001000,0.001000,0.001000,0.001000
1009.538462,-0.048206,0.001000,0.001000,0.001000,0.001000,0.001000
1009.557692,-0.047892,0.001000,0.001000,0.001000,0.001000,0.001000
1009.576923,-0.047554,0.001000,0.001000,0.001000,0.001000,0.001000
1009.596154,-0.047191,0.001000,0.001000,0.001000,0.001000,0.001000
1009.615385,-0.046803,0.001000,0.001000,0.001000,0.001000,0.001000
1009.634615,-0.046392,0.001000,0.001000,0.001000,0.001000,0.001000
1009.653846,-0.045957,0.001000,0.001000,0.001000,0.001000,0.001000
1009.673077,-0.045497,0.001000,0.001000,0.001000,0.001000,0.001000
1009.692308,-0.045015,0.001000,0.001000,0.001000,0.001000,0.001000
1009.711538,-0.044509,0.001000,0.001000,0.001000,0.001000,0.001000
1009.730769,-0.043980,0.001000,0.001000,0.001000,0.001000,0.001000
1009.750000,-0.043429,0.001000,0.001000,0.001000,0.001000,0.001000
1009.769231,-0.042855,0.001000,0.001000,0.001000,0.001000,0.001000
1009.788462,-0.042259,0.001000,0.001000,0.001000,0.001000,0.001000
1009.807692,-0.041641,0.001000,0.001000,0.001000,0.001000,0.001000
1009.826923,-0.041002,0.001000,0.001000,0.001000,0.001000,0.001000
1009.846154,-0.040341,0.001000,0.001000,0.001000,0.001000,0.001000
1009.865385,-0.039660,0.001000,0.001000,0.001000,0.001000,0.001000
1009.884615,-0.038959,0.001000,0.001000,0.001000,0.001000,0.001000
1009.903846,-0.038237,0.001000,0.001000,0.001000,0.001000,0.001000
1009.923077,-0.037495,0.001000,0.001000,0.001000,0.001000,0.001000
1009.942308,-0.036735,0.001000,0.001000,0.001000,0.001000,0.001000
1009.961538,-0.035955,0.001000,0.001000,0.001000,0.001000,0.001000
1009.980769,-0.035157,0.001000,0.001000,0.001000,0.001000,0.001000
1010.000000,-0.034340,0.001000,0.001000,0.001000,0.001000,0.001000
1010.019231,-0.033506,0.001000,0.001000,0.001000,0.001000,0.001000
1010.038462,-0.032655,0.001000,0.001000,0.001000,0.001000,0.001000
1010.057692,-0.031786,0.001000,0.001000,0.001000,0.001000,0.001000
1010.076923,-0.030902,0.001000,0.001000,0.001000,0.001000,0.001000
1010.096154,-0.030001,0.001000,0.001000,0.001000,0.001000,0.001000
1010.115385,-0.029085,0.001000,0.001000,0.001000,0.001000,0.001000
1010.134615,-0.028154,0.001000,0.001000,0.001000,0.001000,0.001000
1010.153846,-0.027209,0.001000,0.001000,0.001000,0.001000,0.001000
1010.173077,-0.026249,0.001000,0.001000,0.001000,0.001000,0.001000
1010.192308,-0.025276,0.001000,0.001000,0.001000,0.001000,0.001000
1010.211538,-0.024290,0.001000,0.001000,0.001000,0.001000,0.001000
1010.230769,-0.023291,0.001000,0.001000,0.001000,0.001000,0.001000
1010.250000,-0.022280,0.001000,0.001000,0.001000,0.001000,0.001000
1010.269231,-0.021258,0.001000,0.001000,0.001000,0.001000,0.001000
1010.288462,-0.020225,0.001000,0.001000,0.001000,0.001000,0.001000
1010.307692,-0.019181,0.001000,0.001000,0.001000,0.001000,0.001000
1010.326923,-0.018128,0.001000,0.001000,0.001000,0.001000,0.001000
1010.346154,-0.017065,0.001000,0.001000,0.001000,0.001000,0.001000
1010.365385,-0.015993,0.001000,0.001000,0.001000,0.001000,0.001000
1010.384615,-0.014914,0.001000,0.001000,0.001000,0.001000,0.001000
1010.403846,-0.013826,0.001000,0.001000,0.001000,0.001000,0.001000
1010.423077,-0.012731,0.001000,0.001000,0.001000,0.001000,0.001000
1010.442308,-0.011630,0.001000,0.001000,0.001000,0.001000,0.001000
1010.461538,-0.010523,0.001000,0.001000,0.001000,0.001000,0.001000
1010.480769,-0.009410,0.001000,0.001000,0.001000,0.001000,0.001000
1010.500000,-0.008292,0.001000,0.001000,0.001000,0.001000,0.001000
1010.519231,-0.007171,0.001000,0.001000,0.001000,0.001000,0.001000
1010.538462,-0.006045,0.001000,0.001000,0.001000,0.001000,0.001000
1010.557692,-0.004916,0.001000,0.001000,0.001000,0.001000,0.001000
1010.576923,-0.003785,0.001000,0.001000,0.001000,0.001000,0.001000
1010.596154,-0.002652,0.001000,0.001000,0.001000,0.001000,0.001000
1010.615385,-0.001518,0.001000,0.001000,0.001000,0.001000,0.001000
1010.634615,-0.000382,0.001000,0.001000,0.001000,0.001000,0.001000
1010.653846,0.000753,0.001000,0.001000,0.001000,0.001000,0.001000
1010.673077,0.001888,0.001000,0.001000,0.001000,0.001000,0.001000
1010.692308,0.003022,0.001000,0.001000,0.001000,0.001000,0.001000
1010.711538,0.004155,0.001000,0.001000,0.001000,0.001000,0.001000
1010.730769,0.005285,0.001000,0.001000,0.001000,0.001000,0.001000
1010.750000,0.006413,0.001000,0.001000,0.001000,0.001000,0.001000
1010.769231,0.007537,0.001000,0.001000,0.001000,0.001000,0.001000
1010.788462,0.008658,0.001000,0.001000,0.001000,0.001000,0.001000
1010.807692,0.009774,0.001000,0.001000,0.001000,0.001000,0.001000
1010.826923,0.010885,0.001000,0.001000,0.001000,0.001000,0.001000
1010.846154,0.011990,0.001000,0.001000,0.001000,0.001000,0.001000
1010.865385,0.013089,0.001000,0.001000,0.001000,0.001000,0.001000
1010.884615,0.014182,0.001000,0.001000,0.001000,0.001000,0.001000
1010.903846,0.015267,0.001000,0.001000,0.001000,0.001000,0.001000
1010.923077,0.016344,0.001000,0.001000,0.001000,0.001000,0.001000
1010.942308,0.017413,0.001000,0.001000,0.001000,0.001000,0.001000
1010.961538,0.018473,0.001000,0.001000,0.001000,0.001000,0.001000
1010.980769,0.019523,0.001000,0.001000,0.001000,0.001000,0.001000
1011.000000,0.020563,0.001000,0.001000,0.001000,0.001000,0.001000
1011.019231,0.021593,0.001000,0.001000,0.001000,0.001000,0.001000
1011.038462,0.022612,0.001000,0.001000,0.001000,0.001000,0.001000
1011.057692,0.023618,0.001000,0.001000,0.001000,0.001000,0.001000
1011.076923,0.024613,0.001000,0.001000,0.001000,0.001000,0.001000
1011.096154,0.025595,0.001000,0.001000,0.001000,0.001000,0.001000
1011.115385,0.026564,0.001000,0.001000,0.001000,0.001000,0.001000
1011.134615,0.027519,0.001000,0.001000,0.001000,0.001000,0.001000
1011.153846,0.028460,0.001000,0.001000,0.001000,0.001000,0.001000
1011.173077,0.029386,0.001000,0.001000,0.001000,0.001000,0.001000
1011.192308,0.030297,0.001000,0.001000,0.001000,0.001000,0.001000
1011.211538,0.031192,0.001000,0.001000,0.001000,0.001000,0.001000
1011.230769,0.032072,0.001000,0.001000,0.001000,0.001000,0.001000
1011.250000,0.032935,0.001000,0.001000,0.001000,0.001000,0.001000
1011.269231,0.033780,0.001000,0.001000,0.001000,0.001000,0.001000
1011.288462,0.034609,0.001000,0.001000,0.001000,0.001000,0.001000
1011.307692,0.035419,0.001000,0.001000,0.001000,0.001000,0.001000
1011.326923,0.036212,0.001000,0.001000,0.001000,0.001000,0.001000
1011.346154,0.036985,0.001000,0.001000,0.001000,0.001000,0.001000
1011.365385,0.037740,0.001000,0.001000,0.001000,0.001000,0.001000
1011.384615,0.038475,0.001000,0.001000,0.001000,0.001000,0.001000
1011.403846,0.039190,0.001000,0.001000,0.001000,0.001000,0.001000
1011.423077,0.039885,0.001000,0.001000,0.001000,0.001000,0.001000
1011.442308,0.040559,0.001000,0.001000,0.001000,0.001000,0.001000
1011.461538,0.041213,0.001000,0.001000,0.001000,0.001000,0.001000
1011.480769,0.041845,0.001000,0.001000,0.001000,0.001000,0.001000
1011.500000,0.042456,0.001000,0.001000,0.001000,0.001000,0.001000
1011.519231,0.043045,0.001000,0.001000,0.001000,0.001000,0.001000
1011.538462,0.043611,0.001000,0.001000,0.001000,0.001000,0.001000
1011.557692,0.044155,0.001000,0.001000,0.001000,0.001000,0.001000
1011.576923,0.044677,0.001000,0.001000,0.001000,0.001000,0.001000
1011.596154,0.045175,0.001000,0.001000,0.001000,0.001000,0.001000
1011.615385,0.045650,0.001000,0.001000,0.001000,0.001000,0.001000
1011.634615,0.046101,0.001000,0.001000,0.001000,0.001000,0.001000
1011.653846,0.046529,0.001000,0.001000,0.001000,0.001000,0.001000
1011.673077,0.046933,0.001000,0.001000,0.001000,0.001000,0.001000
1011.692308,0.047312,0.001000,0.001000,0.001000,0.001000,0.001000
1011.711538,0.047667,0.001000,0.001000,0.001000,0.001000,0.001000
1011.730769,0.047998,0.001000,0.001000,0.001000,0.001000,0.001000
1011.750000,0.048303,0.001000,0.001000,0.001000,0.001000,0.001000
1011.769231,0.048584,0.001000,0.001000,0.001000,0.001000,0.001000
1011.788462,0.048840,0.001000,0.001000,0.001000,0.001000,0.001000
1011.807692,0.049070,0.001000,0.001000,0.001000,0.001000,0.001000
1011.826923,0.049276,0.001000,0.001000,0.001000,0.001000,0.001000
1011.846154,0.049456,0.001000,0.001000,0.001000,0.001000,0.001000
1011.865385,0.049610,0.001000,0.001000,0.001000,0.001000,0.001000
1011.884615,0.049739,0.001000,0.001000,0.001000,0.001000,0.001000
1011.903846,0.049842,0.001000,0.001000,0.001000,0.001000,0.001000
1011.923077,0.049919,0.001000,0.001000,0.001000,0.001000,0.001000
1011.942308,0.049971,0.001000,0.001000,0.001000,0.001000,0.001000
1011.961538,0.049997,0.001000,0.001000,0.001000,0.001000,0.001000
1011.980769,0.049997,0.001000,0.001000,0.001000,0.001000,0.001000
1012.000000,0.049971,0.001000,0.001000,0.001000,0.001000,0.001000
1012.019231,0.049920,0.001000,0.001000,0.001000,0.001000,0.001000
1012.038462,0.049842,0.001000,0.001000,0.001000,0.001000,0.001000
1012.057692,0.049740,0.001000,0.001000,0.001000,0.001000,0.001000
1012.076923,0.049611,0.001000,0.001000,0.001000,0.001000,0.001000
1012.096154,0.049457,0.001000,0.001000,0.001000,0.001000,0.001000
1012.115385,0.049277,0.001000,0.001000,0.001000,0.001000,0.001000
1012.134615,0.049072,0.001000,0.001000,0.001000,0.001000,0.001000
1012.153846,0.048842,0.001000,0.001000,0.001000,0.001000,0.001000
1012.173077,0.048586,0.001000,0.001000,0.001000,0.001000,0.001000
1012.192308,0.048306,0.001000,0.001000,0.001000,0.001000,0.001000
1012.211538,0.048000,0.001000,0.001000,0.001000,0.001000,0.001000
1012.230769,0.047670,0.001000,0.001000,0.001000,0.001000,0.001000
1012.250000,0.047315,0.001000,0.001000,0.001000,0.001000,0.001000
1012.269231,0.046936,0.001000,0.001000,0.001000,0.001000,0.001000
1012.288462,0.046532,0.001000,0.001000,0.001000,0.001000,0.001000
1012.307692,0.046105,0.001000,0.001000,0.001000,0.001000,0.001000
1012.326923,0.045653,0.001000,0.001000,0.001000,0.001000,0.001000
1012.346154,0.045179,0.001000,0.001000,0.001000,0.001000,0.001000
1012.365385,0.044681,0.001000,0.001000,0.001000,0.001000,0.001000
1012.384615,0.044159,0.001000,0.001000,0.001000,0.001000,0.001000
1012.403846,0.043615,0.001000,0.001000,0.001000,0.001000,0.001000
1012.423077,0.043049,0.001000,0.001000,0.001000,0.001000,0.001000
1012.442308,0.042460,0.001000,0.001000,0.001000,0.001000,0.001000
1012.461538,0.041850,0.001000,0.001000,0.001000,0.001000,0.001000
1012.480769,0.041218,0.001000,0.001000,0.001000,0.001000,0.001000
1012.500000,0.040564,0.001000,0.001000,0.001000,0.001000,0.001000
1012.519231,0.039890,0.001000,0.001000,0.001000,0.001000,0.001000
1012.538462,0.039195,0.001000,0.001000,0.001000,0.001000,0.001000
1012.557692,0.038480,0.001000,0.001000,0.001000,0.001000,0.001000
1012.576923,0.037745,0.001000,0.001000,0.001000,0.001000,0.001000
1012.596154,0.036991,0.001000,0.001000,0.001000,0.001000,0.001000
1012.615385,0.036218,0.001000,0.001000,0.001000,0.001000,0.001000
1012.634615,0.035425,0.001000,0.001000,0.001000,0.001000,0.001000
1012.653846,0.034615,0.001000,0.001000,0.001000,0.001000,0.001000
1012.673077,0.033787,0.001000,0.001000,0.001000,0.001000,0.001000
1012.692308,0.032941,0.001000,0.001000,0.001000,0.001000,0.001000
1012.711538,0.032078,0.001000,0.001000,0.001000,0.001000,0.001000
1012.730769,0.031199,0.001000,0.001000,0.001000,0.001000,0.001000
1012.750000,0.030304,0.001000,0.001000,0.001000,0.001000,0.001000
1012.769231,0.029393,0.001000,0.001000,0.001000,0.001000,0.001000
1012.788462,0.028467,0.001000,0.001000,0.001000,0.001000,0.001000
1012.807692,0.027526,0.001000,0.001000,0.001000,0.001000,0.001000
1012.826923,0.026571,0.001000,0.001000,0.001000,0.001000,0.001000
1012.846154,0.025603,0.001000,0.001000,0.001000,0.001000,0.001000
1012.865385,0.024621,0.001000,0.001000,0.001000,0.001000,0.001000
1012.884615,0.023626,0.001000,0.001000,0.001000,0.001000,0.001000
1012.903846,0.022619,0.001000,0.001000,0.001000,0.001000,0.001000
1012.923077,0.021601,0.001000,0.001000,0.001000,0.001000,0.001000
1012.942308,0.020571,0.001000,0.001000,0.001000,0.001000,0.001000
1012.961538,0.019531,0.001000,0.001000,0.001000,0.001000,0.001000
1012.980769,0.018481,0.001000,0.001000,0.001000,0.001000,0.001000
1013.000000,0.017421,0.001000,0.001000,0.001000,0.001000,0.001000
1013.019231,0.016352,0.001000,0.001000,0.001000,0.001000,0.001000
1013.038462,0.015275,0.001000,0.001000,0.001000,0.001000,0.001000
1013.057692,0.014190,0.001000,0.001000,0.001000,0.001000,0.001000
1013.076923,0.013098,0.001000,0.001000,0.001000,0.001000,0.001000
1013.096154,0.011999,0.001000,0.001000,0.001000,0.001000,0.001000
1013.115385,0.010893,0.001000,0.001000,0.001000,0.001000,0.001000
1013.134615,0.009782,0.001000,0.001000,0.001000,0.001000,0.001000
1013.153846,0.008666,0.001000,0.001000,0.001000,0.001000,0.001000
1013.173077,0.007546,0.001000,0.001000,0.001000,0.001000,0.001000
1013.192308,0.006422,0.001000,0.001000,0.001000,0.001000,0.001000
1013.211538,0.005294,0.001000,0.001000,0.001000,0.001000,0.001000
1013.230769,0.004164,0.001000,0.001000,0.001000,0.001000,0.001000
1013.250000,0.003031,0.001000,0.001000,0.001000,0.001000,0.001000
1013.269231,0.001897,0.001000,0.001000,0.001000,0.001000,0.001000
1013.288462,0.000762,0.001000,0.001000,0.001000,0.001000,0.001000
1013.307692,-0.000374,0.001000,0.001000,0.001000,0.001000,0.001000
1013.326923,-0.001509,0.001000,0.001000,0.001000,0.001000,0.001000
1013.346154,-0.002643,0.001000,0.001000,0.001000,0.001000,0.001000
1013.365385,-0.003777,0.001000,0.001000,0.001000,0.001000,0.001000
1013.384615,-0.004908,0.001000,0.001000,0.001000,0.001000,0.001000
1013.403846,-0.006036,0.001000,0.001000,0.001000,0.001000,0.001000
1013.423077,-0.007162,0.001000,0.001000,0.001000,0.001000,0.001000
1013.442308,-0.008284,0.001000,0.001000,0.001000,0.001000,0.001000
1013.461538,-0.009401,0.001000,0.001000,0.001000,0.001000,0.001000
1013.480769,-0.010514,0.001000,0.001000,0.001000,0.001000,0.001000
1013.500000,-0.011621,0.001000,0.001000,0.001000,0.001000,0.001000
1013.519231,-0.012723,0.001000,0.001000,0.001000,0.001000,0.001000
1013.538462,-0.013818,0.001000,0.001000,0.001000,0.001000,0.001000
1013.557692,-0.014905,0.001000,0.001000,0.001000,0.001000,0.001000
1013.576923,-0.015985,0.001000,0.001000,0.001000,0.001000,0.001000
1013.596154,-0.017057,0.001000,0.001000,0.001000,0.001000,0.001000
1013.615385,-0.018120,0.001000,0.001000,0.001000,0.001000,0.001000
1013.634615,-0.019173,0.001000,0.001000,0.001000,0.001000,0.001000
1013.653846,-0.020217,0.001000,0.001000,0.001000,0.001000,0.001000
1013.673077,-0.021250,0.001000,0.001000,0.001000,0.001000,0.001000
1013.692308,-0.022272,0.001000,0.001000,0.001000,0.001000,0.001000
1013.711538,-0.023283,0.001000,0.001000,0.001000,0.001000,0.001000
1013.730769,-0.024282,0.001000,0.001000,0.001000,0.001000,0.001000
1013.750000,-0.025268,0.001000,0.001000,0.001000,0.001000,0.001000
1013.769231,-0.026242,0.001000,0.001000,0.001000,0.001000,0.001000
1013.788462,-0.027201,0.001000,0.001000,0.001000,0.001000,0.001000
1013.807692,-0.028147,0.001000,0.001000,0.001000,0.001000,0.001000
1013.826923,-0.029078,0.001000,0.001000,0.001000,0.001000,0.001000
1013.846154,-0.029994,0.001000,0.001000,0.001000,0.001000,0.001000
1013.865385,-0.030895,0.001000,0.001000,0.001000,0.001000,0.001000
1013.884615,-0.031780,0.001000,0.001000,0.001000,0.001000,0.001000
1013.903846,-0.032648,0.001000,0.001000,0.001000,0.001000,0.001000
1013.923077,-0.033500,0.001000,0.001000,0.001000,0.001000,0.001000
1013.942308,-0.034334,0.001000,0.001000,0.001000,0.001000,0.001000
1013.961538,-0.035150,0.001000,0.001000,0.001000,0.001000,0.001000
1013.980769,-0.035949,0.001000,0.001000,0.001000,0.001000,0.001000
1014.000000,-0.036729,0.001000,0.001000,0.001000,0.001000,0.001000
1014.019231,-0.037490,0.001000,0.001000,0.001000,0.001000,0.001000
1014.038462,-0.038231,0.001000,0.001000,0.001000,0.001000,0.001000
1014.057692,-0.038953,0.001000,0.001000,0.001000,0.001000,0.001000
1014.076923,-0.039655,0.001000,0.001000,0.001000,0.001000,0.001000
1014.096154,-0.040336,0.001000,0.001000,0.001000,0.001000,0.001000
1014.115385,-0.040997,0.001000,0.001000,0.001000,0.001000,0.001000
1014.134615,-0.041636,0.001000,0.001000,0.001000,0.001000,0.001000
1014.153846,-0.042254,0.001000,0.001000,0.001000,0.001000,0.001000
1014.173077,-0.042850,0.001000,0.001000,0.001000,0.001000,0.001000
1014.192308,-0.043424,0.001000,0.001000,0.001000,0.001000,0.001000
1014.211538,-0.043976,0.001000,0.001000,0.001000,0.001000,0.001000
1014.230769,-0.044505,0.001000,0.001000,0.001000,0.001000,0.001000
1014.250000,-0.045011,0.001000,0.001000,0.001000,0.001000,0.001000
1014.269231,-0.045494,0.001000,0.001000,0.001000,0.001000,0.001000
1014.288462,-0.045953,0.001000,0.001000,0.001000,0.001000,0.001000
1014.307692,-0.046389,0.001000,0.001000,0.001000,0.001000,0.001000
1014.326923,-0.046800,0.001000,0.001000,0.001000,0.001000,0.001000
1014.346154,-0.047188,0.001000,0.001000,0.001000,0.001000,0.001000
1014.365385,-0.047551,0.001000,0.001000,0.001000,0.001000,0.001000
1014.384615,-0.047890,0.001000,0.001000,0.001000,0.001000,0.001000
1014.403846,-0.048204,0.001000,0.001000,0.001000,0.001000,0.001000
1014.423077,-0.048493,0.001000,0.001000,0.001000,0.001000,0.001000
1014.442308,-0.048757,0.001000,0.001000,0.001000,0.001000,0.001000
1014.461538,-0.048996,0.001000,0.001000,0.001000,0.001000,0.001000
1014.480769,-0.049210,0.001000,0.001000,0.001000,0.001000,0.001000
1014.500000,-0.049398,0.001000,0.001000,0.001000,0.001000,0.001000
1014.519231,-0.049561,0.001000,0.001000,0.001000,0.001000,0.001000
1014.538462,-0.049699,0.001000,0.001000,0.001000,0.001000,0.001000
1014.557692,-0.049810,0.001000,0.001000,0.001000,0.001000,0.001000
1014.576923,-0.049896,0.001000,0.001000,0.001000,0.001000,0.001000
1014.596154,-0.049956,0.001000,0.001000,0.001000,0.001000,0.001000
1014.615385,-0.049991,0.001000,0.001000,0.001000,0.001000,0.001000
1014.634615,-0.050000,0.001000,0.001000,0.001000,0.001000,0.001000
1014.653846,-0.049983,0.001000,0.001000,0.001000,0.001000,0.001000
1014.673077,-0.049940,0.001000,0.001000,0.001000,0.001000,0.001000
1014.692308,-0.049871,0.001000,0.001000,0.001000,0.001000,0.001000
1014.711538,-0.049777,0.001000,0.001000,0.001000,0.001000,0.001000
1014.730769,-0.049657,0.001000,0.001000,0.001000,0.001000,0.001000
1014.750000,-0.049511,0.001000,0.001000,0.001000,0.001000,0.001000
1014.769231,-0.049340,0.001000,0.001000,0.001000,0.001000,0.001000
1014.788462,-0.049144,0.001000,0.001000,0.001000,0.001000,0.001000
1014.807692,-0.048922,0.001000,0.001000,0.001000,0.001000,0.001000
1014.826923,-0.048674,0.001000,0.001000,0.001000,0.001000,0.001000
1014.846154,-0.048402,0.001000,0.001000,0.001000,0.001000,0.001000
1014.865385,-0.048105,0.001000,0.001000,0.001000,0.001000,0.001000
1014.884615,-0.047783,0.001000,0.001000,0.001000,0.001000,0.001000
1014.903846,-0.047436,0.001000,0.001000,0.001000,0.001000,0.001000
1014.923077,-0.047065,0.001000,0.001000,0.001000,0.001000,0.001000
1014.942308,-0.046670,0.001000,0.001000,0.001000,0.001000,0.001000
1014.961538,-0.046250,0.001000,0.001000,0.001000,0.001000,0.001000
1014.980769,-0.045807,0.001000,0.001000,0.001000,0.001000,0.001000
1015.000000,-0.045340,0.001000,0.001000,0.001000,0.001000,0.001000
1015.019231,-0.044850,0.001000,0.001000,0.001000,0.001000,0.001000
1015.038462,-0.044336,0.001000,0.001000,0.001000,0.001000,0.001000
1015.057692,-0.043800,0.001000,0.001000,0.001000,0.001000,0.001000
1015.076923,-0.043241,0.001000,0.001000,0.001000,0.001000,0.001000
1015.096154,-0.042660,0.001000,0.001000,0.001000,0.001000,0.001000
1015.115385,-0.042056,0.001000,0.001000,0.001000,0.001000,0.001000
1015.134615,-0.041431,0.001000,0.001000,0.001000,0.001000,0.001000
1015.153846,-0.040785,0.001000,0.001000,0.001000,0.001000,0.001000
1015.173077,-0.040118,0.001000,0.001000,0.001000,0.001000,0.001000
1015.192308,-0.039430,0.001000,0.001000,0.001000,0.001000,0.001000
1015.211538,-0.038722,0.001000,0.001000,0.001000,0.001000,0.001000
1015.230769,-0.037993,0.001000,0.001000,0.001000,0.001000,0.001000
1015.250000,-0.037245,0.001000,0.001000,0.001000,0.001000,0.001000
1015.269231,-0.036478,0.001000,0.001000,0.001000,0.001000,0.001000
1015.288462,-0.035692,0.001000,0.001000,0.001000,0.001000,0.001000
1015.307692,-0.034888,0.001000,0.001000,0.001000,0.001000,0.001000
1015.326923,-0.034066,0.001000,0.001000,0.001000,0.001000,0.001000
1015.346154,-0.033226,0.001000,0.001000,0.001000,0.001000,0.001000
1015.365385,-0.032369,0.001000,0.001000,0.001000,0.001000,0.001000
1015.384615,-0.031495,0.001000,0.001000,0.001000,0.001000,0.001000
1015.403846,-0.030605,0.001000,0.001000,0.001000,0.001000,0.001000
1015.423077,-0.029699,0.001000,0.001000,0.001000,0.001000,0.001000
1015.442308,-0.028778,0.001000,0.001000,0.001000,0.001000,0.001000
1015.461538,-0.027842,0.001000,0.001000,0.001000,0.001000,0.001000
1015.480769,-0.026892,0.001000,0.001000,0.001000,0.001000,0.001000
1015.500000,-0.025928,0.001000,0.001000,0.001000,0.001000,0.001000
1015.519231,-0.024950,0.001000,0.001000,0.001000,0.001000,0.001000
1015.538462,-0.023960,0.001000,0.001000,0.001000,0.001000,0.001000
1015.557692,-0.022957,0.001000,0.001000,0.001000,0.001000,0.001000
1015.576923,-0.021943,0.001000,0.001000,0.001000,0.001000,0.001000
1015.596154,-0.020917,0.001000,0.001000,0.001000,0.001000,0.001000
1015.615385,-0.019880,0.001000,0.001000,0.001000,0.001000,0.001000
1015.634615,-0.018833,0.001000,0.001000,0.001000,0.001000,0.001000
1015.653846,-0.017776,0.001000,0.001000,0.001000,0.001000,0.001000
1015.673077,-0.016711,0.001000,0.001000,0.001000,0.001000,0.001000
1015.692308,-0.015636,0.001000,0.001000,0.001000,0.001000,0.001000
1015.711538,-0.014554,0.001000,0.001000,0.001000,0.001000,0.001000
1015.730769,-0.013464,0.001000,0.001000,0.001000,0.001000,0.001000
1015.750000,-0.012367,0.001000,0.001000,0.001000,0.001000,0.001000
1015.769231,-0.011263,0.001000,0.001000,0.001000,0.001000,0.001000
1015.788462,-0.010154,0.001000,0.001000,0.001000,0.001000,0.001000
1015.807692,-0.009040,0.001000,0.001000,0.001000,0.001000,0.001000
1015.826923,-0.007921,0.001000,0.001000,0.001000,0.001000,0.001000
1015.846154,-0.006798,0.001000,0.001000,0.001000,0.001000,0.001000
1015.865385,-0.005671,0.001000,0.001000,0.001000,0.001000,0.001000
1015.884615,-0.004542,0.001000,0.001000,0.001000,0.001000,0.001000
1015.903846,-0.003410,0.001000,0.001000,0.001000,0.001000,0.001000
1015.923077,-0.002276,0.001000,0.001000,0.001000,0.001000,0.001000
1015.942308,-0.001141,0.001000,0.001000,0.001000,0.001000,0.001000
1015.961538,-0.000006,0.001000,0.001000,0.001000,0.001000,0.001000
1015.980769,0.001130,0.001000,0.001000,0.001000,0.001000,0.001000
1016.000000,0.002264,0.001000,0.001000,0.001000,0.001000,0.001000
1016.019231,0.003398,0.001000,0.001000,0.001000,0.001000,0.001000
1016.038462,0.004530,0.001000,0.001000,0.001000,0.001000,0.001000
1016.057692,0.005660,0.001000,0.001000,0.001000,0.001000,0.001000
1016.076923,0.006786,0.001000,0.001000,0.001000,0.001000,0.001000
1016.096154,0.007909,0.001000,0.001000,0.001000,0.001000,0.001000
1016.115385,0.009028,0.001000,0.001000,0.001000,0.001000,0.001000
1016.134615,0.010143,0.001000,0.001000,0.001000,0.001000,0.001000
1016.153846,0.011252,0.001000,0.001000,0.001000,0.001000,0.001000
1016.173077,0.012355,0.001000,0.001000,0.001000,0.001000,0.001000
1016.192308,0.013452,0.001000,0.001000,0.001000,0.001000,0.001000
1016.211538,0.014542,0.001000,0.001000,0.001000,0.001000,0.001000
1016.230769,0.015625,0.001000,0.001000,0.001000,0.001000,0.001000
1016.250000,0.016700,0.001000,0.001000,0.001000,0.001000,0.001000
1016.269231,0.017765,0.001000,0.001000,0.001000,0.001000,0.001000
1016.288462,0.018822,0.001000,0.001000,0.001000,0.001000,0.001000
1016.307692,0.019869,0.001000,0.001000,0.001000,0.001000,0.001000
1016.326923,0.020906,0.001000,0.001000,0.001000,0.001000,0.001000
1016.346154,0.021932,0.001000,0.001000,0.001000,0.001000,0.001000
1016.365385,0.022947,0.001000,0.001000,0.001000,0.001000,0.001000
1016.384615,0.023950,0.001000,0.001000,0.001000,0.001000,0.001000
1016.403846,0.024940,0.001000,0.001000,0.001000,0.001000,0.001000
1016.423077,0.025918,0.001000,0.001000,0.001000,0.001000,0.001000
1016.442308,0.026882,0.001000,0.001000,0.001000,0.001000,0.001000
1016.461538,0.027832,0.001000,0.001000,0.001000,0.001000,0.001000
1016.480769,0.028769,0.001000,0.001000,0.001000,0.001000,0.001000
1016.500000,0.029690,0.001000,0.001000,0.001000,0.001000,0.001000
1016.519231,0.030596,0.001000,0.001000,0.001000,0.001000,0.001000
1016.538462,0.031486,0.001000,0.001000,0.001000,0.001000,0.001000
1016.557692,0.032360,0.001000,0.001000,0.001000,0.001000,0.001000
1016.576923,0.033217,0.001000,0.001000,0.001000,0.001000,0.001000
1016.596154,0.034057,0.001000,0.001000,0.001000,0.001000,0.001000
1016.615385,0.034880,0.001000,0.001000,0.001000,0.001000,0.001000
1016.634615,0.035684,0.001000,0.001000,0.001000,0.001000,0.001000
1016.653846,0.036470,0.001000,0.001000,0.001000,0.001000,0.001000
1016.673077,0.037237,0.001000,0.001000,0.001000,0.001000,0.001000
1016.692308,0.037986,0.001000,0.001000,0.001000,0.001000,0.001000
1016.711538,0.038714,0.001000,0.001000,0.001000,0.001000,0.001000
1016.730769,0.039423,0.001000,0.001000,0.001000,0.001000,0.001000
1016.750000,0.040111,0.001000,0.001000,0.001000,0.001000,0.001000
1016.769231,0.040778,0.001000,0.001000,0.001000,0.001000,0.001000
1016.788462,0.041425,0.001000,0.001000,0.001000,0.001000,0.001000
1016.807692,0.042050,0.001000,0.001000,0.001000,0.001000,0.001000
1016.826923,0.042653,0.001000,0.001000,0.001000,0.001000,0.001000
1016.846154,0.043235,0.001000,0.001000,0.001000,0.001000,0.001000
1016.865385,0.043794,0.001000,0.001000,0.001000,0.001000,0.001000
1016.884615,0.044331,0.001000,0.001000,0.001000,0.001000,0.001000
1016.903846,0.044844,0.001000,0.001000,0.001000,0.001000,0.001000
1016.923077,0.045335,0.001000,0.001000,0.001000,0.001000,0.001000
1016.942308,0.045802,0.001000,0.001000,0.001000,0.001000,0.001000
1016.961538,0.046246,0.001000,0.001000,0.001000,0.001000,0.001000
1016.980769,0.046665,0.001000,0.001000,0.001000,0.001000,0.001000
1017.000000,0.047061,0.001000,0.001000,0.001000,0.001000,0.001000
1017.019231,0.047433,0.001000,0.001000,0.001000,0.001000,0.001000
1017.038462,0.047779,0.001000,0.001000,0.001000,0.001000,0.001000
1017.057692,0.048102,0.001000,0.001000,0.001000,0.001000,0.001000
1017.076923,0.048399,0.001000,0.001000,0.001000,0.001000,0.001000
1017.096154,0.048672,0.001000,0.001000,0.001000,0.001000,0.001000
1017.115385,0.048919,0.001000,0.001000,0.001000,0.001000,0.001000
1017.134615,0.049141,0.001000,0.001000,0.001000,0.001000,0.001000
1017.153846,0.049338,0.001000,0.001000,0.001000,0.001000,0.001000
1017.173077,0.049510,0.001000,0.001000,0.001000,0.001000,0.001000
1017.192308,0.049655,0.001000,0.001000,0.001000,0.001000,0.001000
1017.211538,0.049776,0.001000,0.001000,0.001000,0.001000,0.001000
1017.230769,0.049870,0.001000,0.001000,0.001000,0.001000,0.001000
1017.250000,0.049939,0.001000,0.001000,0.001000,0.001000,0.001000
1017.269231,0.049982,0.001000,0.001000,0.001000,0.001000,0.001000
1017.288462,0.050000,0.001000,0.001000,0.001000,0.001000,0.001000
1017.307692,0.049991,0.001000,0.001000,0.001000,0.001000,0.001000
1017.326923,0.049957,0.001000,0.001000,0.001000,0.001000,0.001000
1017.346154,0.049897,0.001000,0.001000,0.001000,0.001000,0.001000
1017.365385,0.049811,0.001000,0.001000,0.001000,0.001000,0.001000
1017.384615,0.049700,0.001000,0.001000,0.001000,0.001000,0.001000
1017.403846,0.049563,0.001000,0.001000,0.001000,0.001000,0.001000
1017.423077,0.049400,0.001000,0.001000,0.001000,0.001000,0.001000
1017.442308,0.049212,0.001000,0.001000,0.001000,0.001000,0.001000
1017.461538,0.048999,0.001000,0.001000,0.001000,0.001000,0.001000
1017.480769,0.048760,0.001000,0.001000,0.001000,0.001000,0.001000
1017.500000,0.048496,0.001000,0.001000,0.001000,0.001000,0.001000
1017.519231,0.048207,0.001000,0.001000,0.001000,0.001000,0.001000
1017.538462,0.047893,0.001000,0.001000,0.001000,0.001000,0.001000
1017.557692,0.047555,0.001000,0.001000,0.001000,0.001000,0.001000
1017.576923,0.047192,0.001000,0.001000,0.001000,0.001000,0.001000
1017.596154,0.046805,0.001000,0.001000,0.001000,0.001000,0.001000
1017.615385,0.046393,0.001000,0.001000,0.001000,0.001000,0.001000
1017.634615,0.045958,0.001000,0.001000,0.001000,0.001000,0.001000
1017.653846,0.045499,0.001000,0.001000,0.001000,0.001000,0.001000
1017.673077,0.045016,0.001000,0.001000,0.001000,0.001000,0.001000
1017.692308,0.044510,0.001000,0.001000,0.001000,0.001000,0.001000
1017.711538,0.043982,0.001000,0.001000,0.001000,0.001000,0.001000
1017.730769,0.043430,0.001000,0.001000,0.001000,0.001000,0.001000
1017.750000,0.042856,0.001000,0.001000,0.001000,0.001000,0.001000
1017.769231,0.042260,0.001000,0.001000,0.001000,0.001000,0.001000
1017.788462,0.041643,0.001000,0.001000,0.001000,0.001000,0.001000
1017.807692,0.041004,0.001000,0.001000,0.001000,0.001000,0.001000
1017.826923,0.040343,0.001000,0.001000,0.001000,0.001000,0.001000
1017.846154,0.039662,0.001000,0.001000,0.001000,0.001000,0.001000
1017.865385,0.038960,0.001000,0.001000,0.001000,0.001000,0.001000
1017.884615,0.038239,0.001000,0.001000,0.001000,0.001000,0.001000
1017.903846,0.037497,0.001000,0.001000,0.001000,0.001000,0.001000
1017.923077,0.036737,0.001000,0.001000,0.001000,0.001000,0.001000
1017.942308,0.035957,0.001000,0.001000,0.001000,0.001000,0.001000
1017.961538,0.035159,0.001000,0.001000,0.001000,0.001000,0.001000
1017.980769,0.034342,0.001000,0.001000,0.001000,0.001000,0.001000
1018.000000,0.033508,0.001000,0.001000,0.001000,0.001000,0.001000
1018.019231,0.032657,0.001000,0.001000,0.001000,0.001000,0.001000
1018.038462,0.031789,0.001000,0.001000,0.001000,0.001000,0.001000
1018.057692,0.030904,0.001000,0.001000,0.001000,0.001000,0.001000
1018.076923,0.030004,0.001000,0.001000,0.001000,0.001000,0.001000
1018.096154,0.029088,0.001000,0.001000,0.001000,0.001000,0.001000
1018.115385,0.028157,0.001000,0.001000,0.001000,0.001000,0.001000
1018.134615,0.027211,0.001000,0.001000,0.001000,0.001000,0.001000
1018.153846,0.026252,0.001000,0.001000,0.001000,0.001000,0.001000
1018.173077,0.025278,0.001000,0.001000,0.001000,0.001000,0.001000
1018.192308,0.024292,0.001000,0.001000,0.001000,0.001000,0.001000
1018.211538,0.023294,0.001000,0.001000,0.001000,0.001000,0.001000
1018.230769,0.022283,0.001000,0.001000,0.001000,0.001000,0.001000
1018.250000,0.021261,0.001000,0.001000,0.001000,0.001000,0.001000
1018.269231,0.020228,0.001000,0.001000,0.001000,0.001000,0.001000
1018.288462,0.019184,0.001000,0.001000,0.001000,0.001000,0.001000
1018.307692,0.018131,0.001000,0.001000,0.001000,0.001000,0.001000
1018.326923,0.017068,0.001000,0.001000,0.001000,0.001000,0.001000
1018.346154,0.015996,0.001000,0.001000,0.001000,0.001000,0.001000
1018.365385,0.014916,0.001000,0.001000,0.001000,0.001000,0.001000
1018.384615,0.013829,0.001000,0.001000,0.001000,0.001000,0.001000
1018.403846,0.012734,0.001000,0.001000,0.001000,0.001000,0.001000
1018.423077,0.011633,0.001000,0.001000,0.001000,0.001000,0.001000
1018.442308,0.010526,0.001000,0.001000,0.001000,0.001000,0.001000
1018.461538,0.009413,0.001000,0.001000,0.001000,0.001000,0.001000
1018.480769,0.008295,0.001000,0.001000,0.001000,0.001000,0.001000
1018.500000,0.007174,0.001000,0.001000,0.001000,0.001000,0.001000
1018.519231,0.006048,0.001000,0.001000,0.001000,0.001000,0.001000
1018.538462,0.004919,0.001000,0.001000,0.001000,0.001000,0.001000
1018.557692,0.003788,0.001000,0.001000,0.001000,0.001000,0.001000
1018.576923,0.002655,0.001000,0.001000,0.001000,0.001000,0.001000
1018.596154,0.001521,0.001000,0.001000,0.001000,0.001000,0.001000
1018.615385,0.000385,0.001000,0.001000,0.001000,0.001000,0.001000
1018.634615,-0.000750,0.001000,0.001000,0.001000,0.001000,0.001000
1018.653846,-0.001885,0.001000,0.001000,0.001000,0.001000,0.001000
1018.673077,-0.003019,0.001000,0.001000,0.001000,0.001000,0.001000
1018.692308,-0.004152,0.001000,0.001000,0.001000,0.001000,0.001000
1018.711538,-0.005282,0.001000,0.001000,0.001000,0.001000,0.001000
1018.730769,-0.006410,0.001000,0.001000,0.001000,0.001000,0.001000
1018.750000,-0.007534,0.001000,0.001000,0.001000,0.001000,0.001000
1018.769231,-0.008655,0.001000,0.001000,0.001000,0.001000,0.001000
1018.788462,-0.009771,0.001000,0.001000,0.001000,0.001000,0.001000
1018.807692,-0.010882,0.001000,0.001000,0.001000,0.001000,0.001000
1018.826923,-0.011987,0.001000,0.001000,0.001000,0.001000,0.001000
1018.846154,-0.013087,0.001000,0.001000,0.001000,0.001000,0.001000
1018.865385,-0.014179,0.001000,0.001000,0.001000,0.001000,0.001000
1018.884615,-0.015264,0.001000,0.001000,0.001000,0.001000,0.001000
1018.903846,-0.016341,0.001000,0.001000,0.001000,0.001000,0.001000
1018.923077,-0.017410,0.001000,0.001000,0.001000,0.001000,0.001000
1018.942308,-0.018470,0.001000,0.001000,0.001000,0.001000,0.001000
1018.961538,-0.019520,0.001000,0.001000,0.001000,0.001000,0.001000
1018.980769,-0.020561,0.001000,0.001000,0.001000,0.001000,0.001000
1019.000000,-0.021590,0.001000,0.001000,0.001000,0.001000,0.001000
1019.019231,-0.022609,0.001000,0.001000,0.001000,0.001000,0.001000
1019.038462,-0.023616,0.001000,0.001000,0.001000,0.001000,0.001000
1019.057692,-0.024611,0.001000,0.001000,0.001000,0.001000,0.001000
1019.076923,-0.025593,0.001000,0.001000,0.001000,0.001000,0.001000
1019.096154,-0.026561,0.001000,0.001000,0.001000,0.001000,0.001000
1019.115385,-0.027516,0.001000,0.001000,0.001000,0.001000,0.001000
1019.134615,-0.028457,0.001000,0.001000,0.001000,0.001000,0.001000
1019.153846,-0.029384,0.001000,0.001000,0.001000,0.001000,0.001000
1019.173077,-0.030295,0.001000,0.001000,0.001000,0.001000,0.001000
1019.192308,-0.031190,0.001000,0.001000,0.001000,0.001000,0.001000
1019.211538,-0.032069,0.001000,0.001000,0.001000,0.001000,0.001000
1019.230769,-0.032932,0.001000,0.001000,0.001000,0.001000,0.001000
1019.250000,-0.033778,0.001000,0.001000,0.001000,0.001000,0.001000
1019.269231,-0.034607,0.001000,0.001000,0.001000,0.001000,0.001000
1019.288462,-0.035417,0.001000,0.001000,0.001000,0.001000,0.001000
1019.307692,-0.036210,0.001000,0.001000,0.001000,0.001000,0.001000
1019.326923,-0.036983,0.001000,0.001000,0.001000,0.001000,0.001000
1019.346154,-0.037738,0.001000,0.001000,0.001000,0.001000,0.001000
1019.365385,-0.038473,0.001000,0.001000,0.001000,0.001000,0.001000
1019.384615,-0.039188,0.001000,0.001000,0.001000,0.001000,0.001000
1019.403846,-0.039883,0.001000,0.001000,0.001000,0.001000,0.001000
1019.423077,-0.040558,0.001000,0.001000,0.001000,0.001000,0.001000
1019.442308,-0.041211,0.001000,0.001000,0.001000,0.001000,0.001000
1019.461538,-0.041844,0.001000,0.001000,0.001000,0.001000,0.001000
1019.480769,-0.042454,0.001000,0.001000,0.001000,0.001000,0.001000
1019.500000,-0.043043,0.001000,0.001000,0.001000,0.001000,0.001000
1019.519231,-0.043610,0.001000,0.001000,0.001000,0.001000,0.001000
1019.538462,-0.044154,0.001000,0.001000,0.001000,0.001000,0.001000
1019.557692,-0.044675,0.001000,0.001000,0.001000,0.001000,0.001000
1019.576923,-0.045174,0.001000,0.001000,0.001000,0.001000,0.001000
1019.596154,-0.045649,0.001000,0.001000,0.001000,0.001000,0.001000
1019.615385,-0.046100,0.001000,0.001000,0.001000,0.001000,0.001000
1019.634615,-0.046528,0.001000,0.001000,0.001000,0.001000,0.001000
1019.653846,-0.046932,0.001000,0.001000,0.001000,0.001000,0.001000
1019.673077,-0.047311,0.001000,0.001000,0.001000,0.001000,0.001000
1019.692308,-0.047666,0.001000,0.001000,0.001000,0.001000,0.001000
1019.711538,-0.047997,0.001000,0.001000,0.001000,0.001000,0.001000
1019.730769,-0.048303,0.001000,0.001000,0.001000,0.001000,0.001000
1019.750000,-0.048583,0.001000,0.001000,0.001000,0.001000,0.001000
1019.769231,-0.048839,0.001000,0.001000,0.001000,0.001000,0.001000
1019.788462,-0.049070,0.001000,0.001000,0.001000,0.001000,0.001000
1019.807692,-0.049275,0.001000,0.001000,0.001000,0.001000,0.001000
1019.826923,-0.049455,0.001000,0.001000,0.001000,0.001000,0.001000
1019.846154,-0.049610,0.001000,0.001000,0.001000,0.001000,0.001000
1019.865385,-0.049738,0.001000,0.001000,0.001000,0.001000,0.001000
1019.884615,-0.049842,0.001000,0.001000,0.001000,0.001000,0.001000
1019.903846,-0.049919,0.001000,0.001000,0.001000,0.001000,0.001000
1019.923077,-0.049971,0.001000,0.001000,0.001000,0.001000,0.001000
1019.942308,-0.049997,0.001000,0.001000,0.001000,0.001000,0.001000
1019.961538,-0.049997,0.001000,0.001000,0.001000,0.001000,0.001000
1019.980769,-0.049971,0.001000,0.001000,0.001000,0.001000,0.001000
1020.000000,-0.049920,0.001000,0.001000,0.001000,0.001000,0.001000
1020.019231,-0.049843,0.001000,0.001000,0.001000,0.001000,0.001000
1020.038462,-0.049740,0.001000,0.001000,0.001000,0.001000,0.001000
1020.057692,-0.049611,0.001000,0.001000,0.001000,0.001000,0.001000
1020.076923,-0.049457,0.001000,0.001000,0.001000,0.001000,0.001000
1020.096154,-0.049278,0.001000,0.001000,0.001000,0.001000,0.001000
1020.115385,-0.049073,0.001000,0.001000,0.001000,0.001000,0.001000
1020.134615,-0.048842,0.001000,0.001000,0.001000,0.001000,0.001000
1020.153846,-0.048587,0.001000,0.001000,0.001000,0.001000,0.001000
1020.173077,-0.048306,0.001000,0.001000,0.001000,0.001000,0.001000
1020.192308,-0.048001,0.001000,0.001000,0.001000,0.001000,0.001000
1020.211538,-0.047671,0.001000,0.001000,0.001000,0.001000,0.001000
1020.230769,-0.047316,0.001000,0.001000,0.001000,0.001000,0.001000
1020.250000,-0.046937,0.001000,0.001000,0.001000,0.001000,0.001000
1020.269231,-0.046533,0.001000,0.001000,0.001000,0.001000,0.001000
1020.288462,-0.046106,0.001000,0.001000,0.001000,0.001000,0.001000
1020.307692,-0.045655,0.001000,0.001000,0.001000,0.001000,0.001000
1020.326923,-0.045180,0.001000,0.001000,0.001000,0.001000,0.001000
1020.346154,-0.044682,0.001000,0.001000,0.001000,0.001000,0.001000
1020.365385,-0.044161,0.001000,0.001000,0.001000,0.001000,0.001000
1020.384615,-0.043617,0.001000,0.001000,0.001000,0.001000,0.001000
1020.403846,-0.043051,0.001000,0.001000,0.001000,0.001000,0.001000
1020.423077,-0.042462,0.001000,0.001000,0.001000,0.001000,0.001000
1020.442308,-0.041852,0.001000,0.001000,0.001000,0.001000,0.001000
1020.461538,-0.041219,0.001000,0.001000,0.001000,0.001000,0.001000
1020.480769,-0.040566,0.001000,0.001000,0.001000,0.001000,0.001000
1020.500000,-0.039892,0.001000,0.001000,0.001000,0.001000,0.001000
1020.519231,-0.039197,0.001000,0.001000,0.001000,0.001000,0.001000
1020.538462,-0.038482,0.001000,0.001000,0.001000,0.001000,0.001000
1020.557692,-0.037747,0.001000,0.001000,0.001000,0.001000,0.001000
1020.576923,-0.036993,0.001000,0.001000,0.001000,0.001000,0.001000
1020.596154,-0.036220,0.001000,0.001000,0.001000,0.001000,0.001000
1020.615385,-0.035428,0.001000,0.001000,0.001000,0.001000,0.001000
1020.634615,-0.034617,0.001000,0.001000,0.001000,0.001000,0.001000
1020.653846,-0.033789,0.001000,0.001000,0.001000,0.001000,0.001000
1020.673077,-0.032943,0.001000,0.001000,0.001000,0.001000,0.001000
1020.692308,-0.032081,0.001000,0.001000,0.001000,0.001000,0.001000
1020.711538,-0.031202,0.001000,0.001000,0.001000,0.001000,0.001000
1020.730769,-0.030306,0.001000,0.001000,0.001000,0.001000,0.001000
1020.750000,-0.029395,0.001000,0.001000,0.001000,0.001000,0.001000
1020.769231,-0.028469,0.001000,0.001000,0.001000,0.001000,0.001000
1020.788462,-0.027529,0.001000,0.001000,0.001000,0.001000,0.001000
1020.807692,-0.026574,0.001000,0.001000,0.001000,0.001000,0.001000
1020.826923,-0.025605,0.001000,0.001000,0.001000,0.001000,0.001000
1020.846154,-0.024623,0.001000,0.001000,0.001000,0.001000,0.001000
1020.865385,-0.023629,0.001000,0.001000,0.001000,0.001000,0.001000
1020.884615,-0.022622,0.001000,0.001000,0.001000,0.001000,0.001000
1020.903846,-0.021604,0.001000,0.001000,0.001000,0.001000,0.001000
1020.923077,-0.020574,0.001000,0.001000,0.001000,0.001000,0.001000
1020.942308,-0.019534,0.001000,0.001000,0.001000,0.001000,0.001000
1020.961538,-0.018484,0.001000,0.001000,0.001000,0.001000,0.001000
1020.980769,-0.017424,0.001000,0.001000,0.001000,0.001000,0.001000
1021.000000,-0.016355,0.001000,0.001000,0.001000,0.001000,0.001000
1021.019231,-0.015278,0.001000,0.001000,0.001000,0.001000,0.001000
1021.038462,-0.014193,0.001000,0.001000,0.001000,0.001000,0.001000
1021.057692,-0.013101,0.001000,0.001000,0.001000,0.001000,0.001000
1021.076923,-0.012002,0.001000,0.001000,0.001000,0.001000,0.001000
1021.096154,-0.010896,0.001000,0.001000,0.001000,0.001000,0.001000
1021.115385,-0.009785,0.001000,0.001000,0.001000,0.001000,0.001000
1021.134615,-0.008669,0.001000,0.001000,0.001000,0.001000,0.001000
1021.153846,-0.007549,0.001000,0.001000,0.001000,0.001000,0.001000
1021.173077,-0.006425,0.001000,0.001000,0.001000,0.001000,0.001000
1021.192308,-0.005297,0.001000,0.001000,0.001000,0.001000,0.001000
1021.211538,-0.004167,0.001000,0.001000,0.001000,0.001000,0.001000
1021.230769,-0.003034,0.001000,0.001000,0.001000,0.001000,0.001000
1021.250000,-0.001900,0.001000,0.001000,0.001000,0.001000,0.001000
1021.269231,-0.000765,0.001000,0.001000,0.001000,0.001000,0.001000
1021.288462,0.000371,0.001000,0.001000,0.001000,0.001000,0.001000
1021.307692,0.001506,0.001000,0.001000,0.001000,0.001000,0.001000
1021.326923,0.002640,0.001000,0.001000,0.001000,0.001000,0.001000
1021.346154,0.003774,0.001000,0.001000,0.001000,0.001000,0.001000
1021.365385,0.004905,0.001000,0.001000,0.001000,0.001000,0.001000
1021.384615,0.006033,0.001000,0.001000,0.001000,0.001000,0.001000
1021.403846,0.007159,0.001000,0.001000,0.001000,0.001000,0.001000
1021.423077,0.008281,0.001000,0.001000,0.001000,0.001000,0.001000
1021.442308,0.009399,0.001000,0.001000,0.001000,0.001000,0.001000
1021.461538,0.010511,0.001000,0.001000,0.001000,0.001000,0.001000
1021.480769,0.011619,0.001000,0.001000,0.001000,0.001000,0.001000
1021.500000,0.012720,0.001000,0.001000,0.001000,0.001000,0.001000
1021.519231,0.013815,0.001000,0.001000,0.001000,0.001000,0.001000
1021.538462,0.014902,0.001000,0.001000,0.001000,0.001000,0.001000
1021.557692,0.015982,0.001000,0.001000,0.001000,0.001000,0.001000
1021.576923,0.017054,0.001000,0.001000,0.001000,0.001000,0.001000
1021.596154,0.018117,0.001000,0.001000,0.001000,0.001000,0.001000
1021.615385,0.019171,0.001000,0.001000,0.001000,0.001000,0.001000
1021.634615,0.020214,0.001000,0.001000,0.001000,0.001000,0.001000
1021.653846,0.021248,0.001000,0.001000,0.001000,0.001000,0.001000
1021.673077,0.022270,0.001000,0.001000,0.001000,0.001000,0.001000
1021.692308,0.023281,0.001000,0.001000,0.001000,0.001000,0.001000
1021.711538,0.024279,0.001000,0.001000,0.001000,0.001000,0.001000
1021.730769,0.025266,0.001000,0.001000,0.001000,0.001000,0.001000
1021.750000,0.026239,0.001000,0.001000,0.001000,0.001000,0.001000
1021.769231,0.027199,0.001000,0.001000,0.001000,0.001000,0.001000
1021.788462,0.028144,0.001000,0.001000,0.001000,0.001000,0.001000
1021.807692,0.029076,0.001000,0.001000,0.001000,0.001000,0.001000
1021.826923,0.029992,0.001000,0.001000,0.001000,0.001000,0.001000
1021.846154,0.030893,0.001000,0.001000,0.001000,0.001000,0.001000
1021.865385,0.031777,0.001000,0.001000,0.001000,0.001000,0.001000
1021.884615,0.032646,0.001000,0.001000,0.001000,0.001000,0.001000
1021.903846,0.033497,0.001000,0.001000,0.001000,0.001000,0.001000
1021.923077,0.034332,0.001000,0.001000,0.001000,0.001000,0.001000
1021.942308,0.035148,0.001000,0.001000,0.001000,0.001000,0.001000
1021.961538,0.035947,0.001000,0.001000,0.001000,0.001000,0.001000
1021.980769,0.036727,0.001000,0.001000,0.001000,0.001000,0.001000
1022.000000,0.037488,0.001000,0.001000,0.001000,0.001000,0.001000
1022.019231,0.038229,0.001000,0.001000,0.001000,0.001000,0.001000
1022.038462,0.038951,0.001000,0.001000,0.001000,0.001000,0.001000
1022.057692,0.039653,0.001000,0.001000,0.001000,0.001000,0.001000
1022.076923,0.040335,0.001000,0.001000,0.001000,0.001000,0.001000
1022.096154,0.040995,0.001000,0.001000,0.001000,0.001000,0.001000
1022.115385,0.041635,0.001000,0.001000,0.001000,0.001000,0.001000
1022.134615,0.042253,0.001000,0.001000,0.001000,0.001000,0.001000
1022.153846,0.042849,0.001000,0.001000,0.001000,0.001000,0.001000
1022.173077,0.043423,0.001000,0.001000,0.001000,0.001000,0.001000
1022.192308,0.043975,0.001000,0.001000,0.001000,0.001000,0.001000
1022.211538,0.044504,0.001000,0.001000,0.001000,0.001000,0.001000
1022.230769,0.045010,0.001000,0.001000,0.001000,0.001000,0.001000
1022.250000,0.045492,0.001000,0.001000,0.001000,0.001000,0.001000
1022.269231,0.045952,0.001000,0.001000,0.001000,0.001000,0.001000
1022.288462,0.046388,0.001000,0.001000,0.001000,0.001000,0.001000
1022.307692,0.046799,0.001000,0.001000,0.001000,0.001000,0.001000
1022.326923,0.047187,0.001000,0.001000,0.001000,0.001000,0.001000
1022.346154,0.047550,0.001000,0.001000,0.001000,0.001000,0.001000
1022.365385,0.047889,0.001000,0.001000,0.001000,0.001000,0.001000
1022.384615,0.048203,0.001000,0.001000,0.001000,0.001000,0.001000
1022.403846,0.048492,0.001000,0.001000,0.001000,0.001000,0.001000
1022.423077,0.048757,0.001000,0.001000,0.001000,0.001000,0.001000
1022.442308,0.048996,0.001000,0.001000,0.001000,0.001000,0.001000
1022.461538,0.049209,0.001000,0.001000,0.001000,0.001000,0.001000
1022.480769,0.049398,0.001000,0.001000,0.001000,0.001000,0.001000
1022.500000,0.049561,0.001000,0.001000,0.001000,0.001000,0.001000
1022.519231,0.049698,0.001000,0.001000,0.001000,0.001000,0.001000
1022.538462,0.049810,0.001000,0.001000,0.001000,0.001000,0.001000
1022.557692,0.049896,0.001000,0.001000,0.001000,0.001000,0.001000
1022.576923,0.049956,0.001000,0.001000,0.001000,0.001000,0.001000
1022.596154,0.049991,0.001000,0.001000,0.001000,0.001000,0.001000
1022.615385,0.050000,0.001000,0.001000,0.001000,0.001000,0.001000
1022.634615,0.049983,0.001000,0.001000,0.001000,0.001000,0.001000
1022.653846,0.049940,0.001000,0.001000,0.001000,0.001000,0.001000
1022.673077,0.049871,0.001000,0.001000,0.001000,0.001000,0.001000
1022.692308,0.049777,0.001000,0.001000,0.001000,0.001000,0.001000
1022.711538,0.049657,0.001000,0.001000,0.001000,0.001000,0.001000
1022.730769,0.049512,0.001000,0.001000,0.001000,0.001000,0.001000
1022.750000,0.049341,0.001000,0.001000,0.001000,0.001000,0.001000
1022.769231,0.049144,0.001000,0.001000,0.001000,0.001000,0.001000
1022.788462,0.048922,0.001000,0.001000,0.001000,0.001000,0.001000
1022.807692,0.048675,0.001000,0.001000,0.001000,0.001000,0.001000
1022.826923,0.048403,0.001000,0.001000,0.001000,0.001000,0.001000
1022.846154,0.048106,0.001000,0.001000,0.001000,0.001000,0.001000
1022.865385,0.047784,0.001000,0.001000,0.001000,0.001000,0.001000
1022.884615,0.047437,0.001000,0.001000,0.001000,0.001000,0.001000
1022.903846,0.047066,0.001000,0.001000,0.001000,0.001000,0.001000
1022.923077,0.046671,0.001000,0.001000,0.001000,0.001000,0.001000
1022.942308,0.046251,0.001000,0.001000,0.001000,0.001000,0.001000
1022.961538,0.045808,0.001000,0.001000,0.001000,0.001000,0.001000
1022.980769,0.045341,0.001000,0.001000,0.001000,0.001000,0.001000
1023.000000,0.044851,0.001000,0.001000,0.001000,0.001000,0.001000
1023.019231,0.044337,0.001000,0.001000,0.001000,0.001000,0.001000
1023.038462,0.043801,0.001000,0.001000,0.001000,0.001000,0.001000
1023.057692,0.043242,0.001000,0.001000,0.001000,0.001000,0.001000
1023.076923,0.042661,0.001000,0.001000,0.001000,0.001000,0.001000
1023.096154,0.042058,0.001000,0.001000,0.001000,0.001000,0.001000
1023.115385,0.041433,0.001000,0.001000,0.001000,0.001000,0.001000
1023.134615,0.040787,0.001000,0.001000,0.001000,0.001000,0.001000
1023.153846,0.040120,0.001000,0.001000,0.001000,0.001000,0.001000
1023.173077,0.039432,0.001000,0.001000,0.001000,0.001000,0.001000
1023.192308,0.038723,0.001000,0.001000,0.001000,0.001000,0.001000
1023.211538,0.037995,0.001000,0.001000,0.001000,0.001000,0.001000
1023.230769,0.037247,0.001000,0.001000,0.001000,0.001000,0.001000
1023.250000,0.036480,0.001000,0.001000,0.001000,0.001000,0.001000
1023.269231,0.035694,0.001000,0.001000,0.001000,0.001000,0.001000
1023.288462,0.034890,0.001000,0.001000,0.001000,0.001000,0.001000
1023.307692,0.034068,0.001000,0.001000,0.001000,0.001000,0.001000
1023.326923,0.033228,0.001000,0.001000,0.001000,0.001000,0.001000
1023.346154,0.032371,0.001000,0.001000,0.001000,0.001000,0.001000
1023.365385,0.031497,0.001000,0.001000,0.001000,0.001000,0.001000
1023.384615,0.030607,0.001000,0.001000,0.001000,0.001000,0.001000
1023.403846,0.029702,0.001000,0.001000,0.001000,0.001000,0.001000
1023.423077,0.028781,0.001000,0.001000,0.001000,0.001000,0.001000
1023.442308,0.027845,0.001000,0.001000,0.001000,0.001000,0.001000
1023.461538,0.026894,0.001000,0.001000,0.001000,0.001000,0.001000
1023.480769,0.025930,0.001000,0.001000,0.001000,0.001000,0.001000
1023.500000,0.024953,0.001000,0.001000,0.001000,0.001000,0.001000
1023.519231,0.023962,0.001000,0.001000,0.001000,0.001000,0.001000
1023.538462,0.022960,0.001000,0.001000,0.001000,0.001000,0.001000
1023.557692,0.021945,0.001000,0.001000,0.001000,0.001000,0.001000
1023.576923,0.020919,0.001000,0.001000,0.001000,0.001000,0.001000
1023.596154,0.019883,0.001000,0.001000,0.001000,0.001000,0.001000
1023.615385,0.018836,0.001000,0.001000,0.001000,0.001000,0.001000
1023.634615,0.017779,0.001000,0.001000,0.001000,0.001000,0.001000
1023.653846,0.016713,0.001000,0.001000,0.001000,0.001000,0.001000
1023.673077,0.015639,0.001000,0.001000,0.001000,0.001000,0.001000
1023.692308,0.014557,0.001000,0.001000,0.001000,0.001000,0.001000
1023.711538,0.013467,0.001000,0.001000,0.001000,0.001000,0.001000
1023.730769,0.012370,0.001000,0.001000,0.001000,0.001000,0.001000
1023.750000,0.011266,0.001000,0.001000,0.001000,0.001000,0.001000
1023.769231,0.010157,0.001000,0.001000,0.001000,0.001000,0.001000
1023.788462,0.009043,0.001000,0.001000,0.001000,0.001000,0.001000
1023.807692,0.007924,0.001000,0.001000,0.001000,0.001000,0.001000
1023.826923,0.006801,0.001000,0.001000,0.001000,0.001000,0.001000
1023.846154,0.005674,0.001000,0.001000,0.001000,0.001000,0.001000
1023.865385,0.004545,0.001000,0.001000,0.001000,0.001000,0.001000
1023.884615,0.003413,0.001000,0.001000,0.001000,0.001000,0.001000
1023.903846,0.002279,0.001000,0.001000,0.001000,0.001000,0.001000
1023.923077,0.001144,0.001000,0.001000,0.001000,0.001000,0.001000
1023.942308,0.000009,0.001000,0.001000,0.001000,0.001000,0.001000
1023.961538,-0.001127,0.001000,0.001000,0.001000,0.001000,0.001000
1023.980769,-0.002261,0.001000,0.001000,0.001000,0.001000,0.001000
1024.000000,-0.003395,0.001000,0.001000,0.001000,0.001000,0.001000
1024.019231,-0.004527,0.001000,0.001000,0.001000,0.001000,0.001000
1024.038462,-0.005657,0.001000,0.001000,0.001000,0.001000,0.001000
1024.057692,-0.006783,0.001000,0.001000,0.001000,0.001000,0.001000
1024.076923,-0.007906,0.001000,0.001000,0.001000,0.001000,0.001000
1024.096154,-0.009026,0.001000,0.001000,0.001000,0.001000,0.001000
1024.115385,-0.010140,0.001000,0.001000,0.001000,0.001000,0.001000
1024.134615,-0.011249,0.001000,0.001000,0.001000,0.001000,0.001000
1024.153846,-0.012353,0.001000,0.001000,0.001000,0.001000,0.001000
1024.173077,-0.013450,0.001000,0.001000,0.001000,0.001000,0.001000
1024.192308,-0.014540,0.001000,0.001000,0.001000,0.001000,0.001000
1024.211538,-0.015622,0.001000,0.001000,0.001000,0.001000,0.001000
1024.230769,-0.016697,0.001000,0.001000,0.001000,0.001000,0.001000
1024.250000,-0.017763,0.001000,0.001000,0.001000,0.001000,0.001000
1024.269231,-0.018820,0.001000,0.001000,0.001000,0.001000,0.001000
1024.288462,-0.019867,0.001000,0.001000,0.001000,0.001000,0.001000
1024.307692,-0.020903,0.001000,0.001000,0.001000,0.001000,0.001000
1024.326923,-0.021929,0.001000,0.001000,0.001000,0.001000,0.001000
1024.346154,-0.022944,0.001000,0.001000,0.001000,0.001000,0.001000
1024.365385,-0.023947,0.001000,0.001000,0.001000,0.001000,0.001000
1024.384615,-0.024938,0.001000,0.001000,0.001000,0.001000,0.001000
1024.403846,-0.025915,0.001000,0.001000,0.001000,0.001000,0.001000
1024.423077,-0.026880,0.001000,0.001000,0.001000,0.001000,0.001000
1024.442308,-0.027830,0.001000,0.001000,0.001000,0.001000,0.001000
1024.461538,-0.028766,0.001000,0.001000,0.001000,0.001000,0.001000
1024.480769,-0.029687,0.001000,0.001000,0.001000,0.001000,0.001000
1024.500000,-0.030593,0.001000,0.001000,0.001000,0.001000,0.001000
1024.519231,-0.031484,0.001000,0.001000,0.001000,0.001000,0.001000
1024.538462,-0.032357,0.001000,0.001000,0.001000,0.001000,0.001000
1024.557692,-0.033215,0.001000,0.001000,0.001000,0.001000,0.001000
1024.576923,-0.034055,0.001000,0.001000,0.001000,0.001000,0.001000
1024.596154,-0.034877,0.001000,0.001000,0.001000,0.001000,0.001000
1024.615385,-0.035682,0.001000,0.001000,0.001000,0.001000,0.001000
1024.634615,-0.036468,0.001000,0.001000,0.001000,0.001000,0.001000
1024.653846,-0.037236,0.001000,0.001000,0.001000,0.001000,0.001000
1024.673077,-0.037984,0.001000,0.001000,0.001000,0.001000,0.001000
1024.692308,-0.038712,0.001000,0.001000,0.001000,0.001000,0.001000
1024.711538,-0.039421,0.001000,0.001000,0.001000,0.001000,0.001000
1024.730769,-0.040109,0.001000,0.001000,0.001000,0.001000,0.001000
1024.750000,-0.040777,0.001000,0.001000,0.001000,0.001000,0.001000
1024.769231,-0.041423,0.001000,0.001000,0.001000,0.001000,0.001000
1024.788462,-0.042048,0.001000,0.001000,0.001000,0.001000,0.001000
1024.807692,-0.042652,0.001000,0.001000,0.001000,0.001000,0.001000
1024.826923,-0.043233,0.001000,0.001000,0.001000,0.001000,0.001000
1024.846154,-0.043793,0.001000,0.001000,0.001000,0.001000,0.001000
1024.865385,-0.044329,0.001000,0.001000,0.001000,0.001000,0.001000
1024.884615,-0.044843,0.001000,0.001000,0.001000,0.001000,0.001000
1024.903846,-0.045334,0.001000,0.001000,0.001000,0.001000,0.001000
1024.923077,-0.045801,0.001000,0.001000,0.001000,0.001000,0.001000
1024.942308,-0.046245,0.001000,0.001000,0.001000,0.001000,0.001000
1024.961538,-0.046664,0.001000,0.001000,0.001000,0.001000,0.001000
1024.980769,-0.047060,0.001000,0.001000,0.001000,0.001000,0.001000
1025.000000,-0.047432,0.001000,0.001000,0.001000,0.001000,0.001000
1025.019231,-0.047779,0.001000,0.001000,0.001000,0.001000,0.001000
1025.038462,-0.048101,0.001000,0.001000,0.001000,0.001000,0.001000
1025.057692,-0.048398,0.001000,0.001000,0.001000,0.001000,0.001000
1025.076923,-0.048671,0.001000,0.001000,0.001000,0.001000,0.001000
1025.096154,-0.048919,0.001000,0.001000,0.001000,0.001000,0.001000
1025.115385,-0.049141,0.001000,0.001000,0.001000,0.001000,0.001000
1025.134615,-0.049338,0.001000,0.001000,0.001000,0.001000,0.001000
1025.153846,-0.049509,0.001000,0.001000,0.001000,0.001000,0.001000
1025.173077,-0.049655,0.001000,0.001000,0.001000,0.001000,0.001000
1025.192308,-0.049775,0.001000,0.001000,0.001000,0.001000,0.001000
1025.211538,-0.049870,0.001000,0.001000,0.001000,0.001000,0.001000
1025.230769,-0.049939,0.001000,0.001000,0.001000,0.001000,0.001000
1025.250000,-0.049982,0.001000,0.001000,0.001000,0.001000,0.001000
1025.269231,-0.050000,0.001000,0.001000,0.001000,0.001000,0.001000
1025.288462,-0.049991,0.001000,0.001000,0.001000,0.001000,0.001000
1025.307692,-0.049957,0.001000,0.001000,0.001000,0.001000,0.001000
1025.326923,-0.049897,0.001000,0.001000,0.001000,0.001000,0.001000
1025.346154,-0.049811,0.001000,0.001000,0.001000,0.001000,0.001000
1025.365385,-0.049700,0.001000,0.001000,0.001000,0.001000,0.001000
1025.384615,-0.049563,0.001000,0.001000,0.001000,0.001000,0.001000
1025.403846,-0.049401,0.001000,0.001000,0.001000,0.001000,0.001000
1025.423077,-0.049213,0.001000,0.001000,0.001000,0.001000,0.001000
1025.442308,-0.048999,0.001000,0.001000,0.001000,0.001000,0.001000
1025.461538,-0.048760,0.001000,0.001000,0.001000,0.001000,0.001000
1025.480769,-0.048497,0.001000,0.001000,0.001000,0.001000,0.001000
1025.500000,-0.048208,0.001000,0.001000,0.001000,0.001000,0.001000
1025.519231,-0.047894,0.001000,0.001000,0.001000,0.001000,0.001000
1025.538462,-0.047556,0.001000,0.001000,0.001000,0.001000,0.001000
1025.557692,-0.047193,0.001000,0.001000,0.001000,0.001000,0.001000
1025.576923,-0.046806,0.001000,0.001000,0.001000,0.001000,0.001000
1025.596154,-0.046394,0.001000,0.001000,0.001000,0.001000,0.001000
1025.615385,-0.045959,0.001000,0.001000,0.001000,0.001000,0.001000
1025.634615,-0.045500,0.001000,0.001000,0.001000,0.001000,0.001000
1025.653846,-0.045017,0.001000,0.001000,0.001000,0.001000,0.001000
1025.673077,-0.044512,0.001000,0.001000,0.001000,0.001000,0.001000
1025.692308,-0.043983,0.001000,0.001000,0.001000,0.001000,0.001000
1025.711538,-0.043432,0.001000,0.001000,0.001000,0.001000,0.001000
1025.730769,-0.042858,0.001000,0.001000,0.001000,0.001000,0.001000
1025.750000,-0.042262,0.001000,0.001000,0.001000,0.001000,0.001000
1025.769231,-0.041644,0.001000,0.001000,0.001000,0.001000,0.001000
1025.788462,-0.041005,0.001000,0.001000,0.001000,0.001000,0.001000
1025.807692,-0.040345,0.001000,0.001000,0.001000,0.001000,0.001000
1025.826923,-0.039664,0.001000,0.001000,0.001000,0.001000,0.001000
1025.846154,-0.038962,0.001000,0.001000,0.001000,0.001000,0.001000
1025.865385,-0.038241,0.001000,0.001000,0.001000,0.001000,0.001000
1025.884615,-0.037499,0.001000,0.001000,0.001000,0.001000,0.001000
1025.903846,-0.036739,0.001000,0.001000,0.001000,0.001000,0.001000
1025.923077,-0.035959,0.001000,0.001000,0.001000,0.001000,0.001000
1025.942308,-0.035161,0.001000,0.001000,0.001000,0.001000,0.001000
1025.961538,-0.034344,0.001000,0.001000,0.001000,0.001000,0.001000
1025.980769,-0.033510,0.001000,0.001000,0.001000,0.001000,0.001000
1026.000000,-0.032659,0.001000,0.001000,0.001000,0.001000,0.001000
1026.019231,-0.031791,0.001000,0.001000,0.001000,0.001000,0.001000
1026.038462,-0.030906,0.001000,0.001000,0.001000,0.001000,0.001000
1026.057692,-0.030006,0.001000,0.001000,0.001000,0.001000,0.001000
1026.076923,-0.029090,0.001000,0.001000,0.001000,0.001000,0.001000
1026.096154,-0.028159,0.001000,0.001000,0.001000,0.001000,0.001000
1026.115385,-0.027214,0.001000,0.001000,0.001000,0.001000,0.001000
1026.134615,-0.026254,0.001000,0.001000,0.001000,0.001000,0.001000
1026.153846,-0.025281,0.001000,0.001000,0.001000,0.001000,0.001000
1026.173077,-0.024295,0.001000,0.001000,0.001000,0.001000,0.001000
1026.192308,-0.023296,0.001000,0.001000,0.001000,0.001000,0.001000
1026.211538,-0.022286,0.001000,0.001000,0.001000,0.001000,0.001000
1026.230769,-0.021263,0.001000,0.001000,0.001000,0.001000,0.001000
1026.250000,-0.020230,0.001000,0.001000,0.001000,0.001000,0.001000
1026.269231,-0.019187,0.001000,0.001000,0.001000,0.001000,0.001000
1026.288462,-0.018133,0.001000,0.001000,0.001000,0.001000,0.001000
1026.307692,-0.017071,0.001000,0.001000,0.001000,0.001000,0.001000
1026.326923,-0.015999,0.001000,0.001000,0.001000,0.001000,0.001000
1026.346154,-0.014919,0.001000,0.001000,0.001000,0.001000,0.001000
1026.365385,-0.013832,0.001000,0.001000,0.001000,0.001000,0.001000
1026.384615,-0.012737,0.001000,0.001000,0.001000,0.001000,0.001000
1026.403846,-0.011636,0.001000,0.001000,0.001000,0.001000,0.001000
1026.423077,-0.010528,0.001000,0.001000,0.001000,0.001000,0.001000
1026.442308,-0.009416,0.001000,0.001000,0.001000,0.001000,0.001000
1026.461538,-0.008298,0.001000,0.001000,0.001000,0.001000,0.001000
1026.480769,-0.007176,0.001000,0.001000,0.001000,0.001000,0.001000
1026.500000,-0.006051,0.001000,0.001000,0.001000,0.001000,0.001000
1026.519231,-0.004922,0.001000,0.001000,0.001000,0.001000,0.001000
1026.538462,-0.003791,0.001000,0.001000,0.001000,0.001000,0.001000
1026.557692,-0.002658,0.001000,0.001000,0.001000,0.001000,0.001000
1026.576923,-0.001524,0.001000,0.001000,0.001000,0.001000,0.001000
1026.596154,-0.000388,0.001000,0.001000,0.001000,0.001000,0.001000
1026.615385,0.000747,0.001000,0.001000,0.001000,0.001000,0.001000
1026.634615,0.001882,0.001000,0.001000,0.001000,0.001000,0.001000
1026.653846,0.003016,0.001000,0.001000,0.001000,0.001000,0.001000
1026.673077,0.004149,0.001000,0.001000,0.001000,0.001000,0.001000
1026.692308,0.005279,0.001000,0.001000,0.001000,0.001000,0.001000
1026.711538,0.006407,0.001000,0.001000,0.001000,0.001000,0.001000
1026.730769,0.007532,0.001000,0.001000,0.001000,0.001000,0.001000
1026.750000,0.008652,0.001000,0.001000,0.001000,0.001000,0.001000
1026.769231,0.009768,0.001000,0.001000,0.001000,0.001000,0.001000
1026.788462,0.010879,0.001000,0.001000,0.001000,0.001000,0.001000
1026.807692,0.011984,0.001000,0.001000,0.001000,0.001000,0.001000
1026.826923,0.013084,0.001000,0.001000,0.001000,0.001000,0.001000
1026.846154,0.014176,0.001000,0.001000,0.001000,0.001000,0.001000
1026.865385,0.015261,0.001000,0.001000,0.001000,0.001000,0.001000
1026.884615,0.016339,0.001000,0.001000,0.001000,0.001000,0.001000
1026.903846,0.017408,0.001000,0.001000,0.001000,0.001000,0.001000
1026.923077,0.018467,0.001000,0.001000,0.001000,0.001000,0.001000
1026.942308,0.019518,0.001000,0.001000,0.001000,0.001000,0.001000
1026.961538,0.020558,0.001000,0.001000,0.001000,0.001000,0.001000
1026.980769,0.021588,0.001000,0.001000,0.001000,0.001000,0.001000
1027.000000,0.022606,0.001000,0.001000,0.001000,0.001000,0.001000
1027.019231,0.023613,0.001000,0.001000,0.001000,0.001000,0.001000
1027.038462,0.024608,0.001000,0.001000,0.001000,0.001000,0.001000
1027.057692,0.025590,0.001000,0.001000,0.001000,0.001000,0.001000
1027.076923,0.026559,0.001000,0.001000,0.001000,0.001000,0.001000
1027.096154,0.027514,0.001000,0.001000,0.001000,0.001000,0.001000
1027.115385,0.028455,0.001000,0.001000,0.001000,0.001000,0.001000
1027.134615,0.029381,0.001000,0.001000,0.001000,0.001000,0.001000
1027.153846,0.030292,0.001000,0.001000,0.001000,0.001000,0.001000
1027.173077,0.031188,0.001000,0.001000,0.001000,0.001000,0.001000
1027.192308,0.032067,0.001000,0.001000,0.001000,0.001000,0.001000
1027.211538,0.032930,0.001000,0.001000,0.001000,0.001000,0.001000
1027.230769,0.033776,0.001000,0.001000,0.001000,0.001000,0.001000
1027.250000,0.034604,0.001000,0.001000,0.001000,0.001000,0.001000
1027.269231,0.035415,0.001000,0.001000,0.001000,0.001000,0.001000
1027.288462,0.036207,0.001000,0.001000,0.001000,0.001000,0.001000
1027.307692,0.036981,0.001000,0.001000,0.001000,0.001000,0.001000
1027.326923,0.037736,0.001000,0.001000,0.001000,0.001000,0.001000
1027.346154,0.038471,0.001000,0.001000,0.001000,0.001000,0.001000
1027.365385,0.039186,0.001000,0.001000,0.001000,0.001000,0.001000
1027.384615,0.039881,0.001000,0.001000,0.001000,0.001000,0.001000
1027.403846,0.040556,0.001000,0.001000,0.001000,0.001000,0.001000
1027.423077,0.041210,0.001000,0.001000,0.001000,0.001000,0.001000
1027.442308,0.041842,0.001000,0.001000,0.001000,0.001000,0.001000
1027.461538,0.042453,0.001000,0.001000,0.001000,0.001000,0.001000
1027.480769,0.043042,0.001000,0.001000,0.001000,0.001000,0.001000
1027.500000,0.043608,0.001000,0.001000,0.001000,0.001000,0.001000
1027.519231,0.044153,0.001000,0.001000,0.001000,0.001000,0.001000
1027.538462,0.044674,0.001000,0.001000,0.001000,0.001000,0.001000
1027.557692,0.045172,0.001000,0.001000,0.001000,0.001000,0.001000
1027.576923,0.045647,0.001000,0.001000,0.001000,0.001000,0.001000
1027.596154,0.046099,0.001000,0.001000,0.001000,0.001000,0.001000
1027.615385,0.046527,0.001000,0.001000,0.001000,0.001000,0.001000
1027.634615,0.046931,0.001000,0.001000,0.001000,0.001000,0.001000
1027.653846,0.047310,0.001000,0.001000,0.001000,0.001000,0.001000
1027.673077,0.047665,0.001000,0.001000,0.001000,0.001000,0.001000
1027.692308,0.047996,0.001000,0.001000,0.001000,0.001000,0.001000
1027.711538,0.048302,0.001000,0.001000,0.001000,0.001000,0.001000
1027.730769,0.048583,0.001000,0.001000,0.001000,0.001000,0.001000
1027.750000,0.048839,0.001000,0.001000,0.001000,0.001000,0.001000
1027.769231,0.049069,0.001000,0.001000,0.001000,0.001000,0.001000
1027.788462,0.049275,0.001000,0.001000,0.001000,0.001000,0.001000
1027.807692,0.049455,0.001000,0.001000,0.001000,0.001000,0.001000
1027.826923,0.049609,0.001000,0.001000,0.001000,0.001000,0.001000
1027.846154,0.049738,0.001000,0.001000,0.001000,0.001000,0.001000
1027.865385,0.049841,0.001000,0.001000,0.001000,0.001000,0.001000
1027.884615,0.049919,0.001000,0.001000,0.001000,0.001000,0.001000
1027.903846,0.049971,0.001000,0.001000,0.001000,0.001000,0.001000
1027.923077,0.049997,0.001000,0.001000,0.001000,0.001000,0.001000
1027.942308,0.049997,0.001000,0.001000,0.001000,0.001000,0.001000
1027.961538,0.049971,0.001000,0.001000,0.001000,0.001000,0.001000
1027.980769,0.049920,0.001000,0.001000,0.001000,0.001000,0.001000
1028.000000,0.049843,0.001000,0.001000,0.001000,0.001000,0.001000
1028.019231,0.049740,0.001000,0.001000,0.001000,0.001000,0.001000
1028.038462,0.049612,0.001000,0.001000,0.001000,0.001000,0.001000
1028.057692,0.049458,0.001000,0.001000,0.001000,0.001000,0.001000
1028.076923,0.049278,0.001000,0.001000,0.001000,0.001000,0.001000
1028.096154,0.049073,0.001000,0.001000,0.001000,0.001000,0.001000
1028.115385,0.048843,0.001000,0.001000,0.001000,0.001000,0.001000
1028.134615,0.048588,0.001000,0.001000,0.001000,0.001000,0.001000
1028.153846,0.048307,0.001000,0.001000,0.001000,0.001000,0.001000
1028.173077,0.048002,0.001000,0.001000,0.001000,0.001000,0.001000
1028.192308,0.047672,0.001000,0.001000,0.001000,0.001000,0.001000
1028.211538,0.047317,0.001000,0.001000,0.001000,0.001000,0.001000
1028.230769,0.046938,0.001000,0.001000,0.001000,0.001000,0.001000
1028.250000,0.046534,0.001000,0.001000,0.001000,0.001000,0.001000
1028.269231,0.046107,0.001000,0.001000,0.001000,0.001000,0.001000
1028.288462,0.045656,0.001000,0.001000,0.001000,0.001000,0.001000
1028.307692,0.045181,0.001000,0.001000,0.001000,0.001000,0.001000
1028.326923,0.044683,0.001000,0.001000,0.001000,0.001000,0.001000
1028.346154,0.044162,0.001000,0.001000,0.001000,0.001000,0.001000
1028.365385,0.043618,0.001000,0.001000,0.001000,0.001000,0.001000
1028.384615,0.043052,0.001000,0.001000,0.001000,0.001000,0.001000
1028.403846,0.042464,0.001000,0.001000,0.001000,0.001000,0.001000
1028.423077,0.041853,0.001000,0.001000,0.001000,0.001000,0.001000
1028.442308,0.041221,0.001000,0.001000,0.001000,0.001000,0.001000
1028.461538,0.040568,0.001000,0.001000,0.001000,0.001000,0.001000
1028.480769,0.039894,0.001000,0.001000,0.001000,0.001000,0.001000
1028.500000,0.039199,0.001000,0.001000,0.001000,0.001000,0.001000
1028.519231,0.038484,0.001000,0.001000,0.001000,0.001000,0.001000
1028.538462,0.037749,0.001000,0.001000,0.001000,0.001000,0.001000
1028.557692,0.036995,0.001000,0.001000,0.001000,0.001000,0.001000
1028.576923,0.036222,0.001000,0.001000,0.001000,0.001000,0.001000
1028.596154,0.035430,0.001000,0.001000,0.001000,0.001000,0.001000
1028.615385,0.034619,0.001000,0.001000,0.001000,0.001000,0.001000
1028.634615,0.033791,0.001000,0.001000,0.001000,0.001000,0.001000
1028.653846,0.032946,0.001000,0.001000,0.001000,0.001000,0.001000
1028.673077,0.032083,0.001000,0.001000,0.001000,0.001000,0.001000
1028.692308,0.031204,0.001000,0.001000,0.001000,0.001000,0.001000
1028.711538,0.030309,0.001000,0.001000,0.001000,0.001000,0.001000
1028.730769,0.029398,0.001000,0.001000,0.001000,0.001000,0.001000
1028.750000,0.028472,0.001000,0.001000,0.001000,0.001000,0.001000
1028.769231,0.027531,0.001000,0.001000,0.001000,0.001000,0.001000
1028.788462,0.026576,0.001000,0.001000,0.001000,0.001000,0.001000
1028.807692,0.025608,0.001000,0.001000,0.001000,0.001000,0.001000
1028.826923,0.024626,0.001000,0.001000,0.001000,0.001000,0.001000
1028.846154,0.023631,0.001000,0.001000,0.001000,0.001000,0.001000
1028.865385,0.022625,0.001000,0.001000,0.001000,0.001000,0.001000
1028.884615,0.021606,0.001000,0.001000,0.001000,0.001000,0.001000
1028.903846,0.020577,0.001000,0.001000,0.001000,0.001000,0.001000
1028.923077,0.019537,0.001000,0.001000,0.001000,0.001000,0.001000
1028.942308,0.018486,0.001000,0.001000,0.001000,0.001000,0.001000
1028.961538,0.017427,0.001000,0.001000,0.001000,0.001000,0.001000
1028.980769,0.016358,0.001000,0.001000,0.001000,0.001000,0.001000
1029.000000,0.015281,0.001000,0.001000,0.001000,0.001000,0.001000
1029.019231,0.014196,0.001000,0.001000,0.001000,0.001000,0.001000
1029.038462,0.013104,0.001000,0.001000,0.001000,0.001000,0.001000
1029.057692,0.012004,0.001000,0.001000,0.001000,0.001000,0.001000
1029.076923,0.010899,0.001000,0.001000,0.001000,0.001000,0.001000
1029.096154,0.009788,0.001000,0.001000,0.001000,0.001000,0.001000
1029.115385,0.008672,0.001000,0.001000,0.001000,0.001000,0.001000
1029.134615,0.007552,0.001000,0.001000,0.001000,0.001000,0.001000
1029.153846,0.006427,0.001000,0.001000,0.001000,0.001000,0.001000
1029.173077,0.005300,0.001000,0.001000,0.001000,0.001000,0.001000
1029.192308,0.004169,0.001000,0.001000,0.001000,0.001000,0.001000
1029.211538,0.003037,0.001000,0.001000,0.001000,0.001000,0.001000
1029.230769,0.001903,0.001000,0.001000,0.001000,0.001000,0.001000
1029.250000,0.000768,0.001000,0.001000,0.001000,0.001000,0.001000
1029.269231,-0.000368,0.001000,0.001000,0.001000,0.001000,0.001000
1029.288462,-0.001503,0.001000,0.001000,0.001000,0.001000,0.001000
1029.307692,-0.002638,0.001000,0.001000,0.001000,0.001000,0.001000
1029.326923,-0.003771,0.001000,0.001000,0.001000,0.001000,0.001000
1029.346154,-0.004902,0.001000,0.001000,0.001000,0.001000,0.001000
1029.365385,-0.006031,0.001000,0.001000,0.001000,0.001000,0.001000
1029.384615,-0.007156,0.001000,0.001000,0.001000,0.001000,0.001000
1029.403846,-0.008278,0.001000,0.001000,0.001000,0.001000,0.001000
1029.423077,-0.009396,0.001000,0.001000,0.001000,0.001000,0.001000
1029.442308,-0.010508,0.001000,0.001000,0.001000,0.001000,0.001000
1029.461538,-0.011616,0.001000,0.001000,0.001000,0.001000,0.001000
1029.480769,-0.012717,0.001000,0.001000,0.001000,0.001000,0.001000
1029.500000,-0.013812,0.001000,0.001000,0.001000,0.001000,0.001000
1029.519231,-0.014900,0.001000,0.001000,0.001000,0.001000,0.001000
1029.538462,-0.015980,0.001000,0.001000,0.001000,0.001000,0.001000
1029.557692,-0.017051,0.001000,0.001000,0.001000,0.001000,0.001000
1029.576923,-0.018114,0.001000,0.001000,0.001000,0.001000,0.001000
1029.596154,-0.019168,0.001000,0.001000,0.001000,0.001000,0.001000
1029.615385,-0.020212,0.001000,0.001000,0.001000,0.001000,0.001000
1029.634615,-0.021245,0.001000,0.001000,0.001000,0.001000,0.001000
1029.653846,-0.022267,0.001000,0.001000,0.001000,0.001000,0.001000
1029.673077,-0.023278,0.001000,0.001000,0.001000,0.001000,0.001000
1029.692308,-0.024277,0.001000,0.001000,0.001000,0.001000,0.001000
1029.711538,-0.025263,0.001000,0.001000,0.001000,0.001000,0.001000
1029.730769,-0.026237,0.001000,0.001000,0.001000,0.001000,0.001000
1029.750000,-0.027196,0.001000,0.001000,0.001000,0.001000,0.001000
1029.769231,-0.028142,0.001000,0.001000,0.001000,0.001000,0.001000
1029.788462,-0.029073,0.001000,0.001000,0.001000,0.001000,0.001000
1029.807692,-0.029990,0.001000,0.001000,0.001000,0.001000,0.001000
1029.826923,-0.030890,0.001000,0.001000,0.001000,0.001000,0.001000
1029.846154,-0.031775,0.001000,0.001000,0.001000,0.001000,0.001000
1029.865385,-0.032644,0.001000,0.001000,0.001000,0.001000,0.001000
1029.884615,-0.033495,0.001000,0.001000,0.001000,0.001000,0.001000
1029.903846,-0.034330,0.001000,0.001000,0.001000,0.001000,0.001000
1029.923077,-0.035146,0.001000,0.001000,0.001000,0.001000,0.001000
1029.942308,-0.035945,0.001000,0.001000,0.001000,0.001000,0.001000
1029.961538,-0.036725,0.001000,0.001000,0.001000,0.001000,0.001000
1029.980769,-0.037486,0.001000,0.001000,0.001000,0.001000,0.001000
1030.000000,0.000000,0.001000,0.001000,0.001000,0.001000,0.001000
1030.019231,0.001114,0.001000,0.001000,0.001000,0.001000,0.001000
1030.038462,0.002228,0.001000,0.001000,0.001000,0.001000,0.001000
1030.057692,0.003340,0.001000,0.001000,0.001000,0.001000,0.001000
1030.076923,0.004451,0.001000,0.001000,0.001000,0.001000,0.001000
1030.096154,0.005559,0.001000,0.001000,0.001000,0.001000,0.001000
1030.115385,0.006665,0.001000,0.001000,0.001000,0.001000,0.001000
1030.134615,0.007768,0.001000,0.001000,0.001000,0.001000,0.001000
1030.153846,0.008866,0.001000,0.001000,0.001000,0.001000,0.001000
1030.173077,0.009961,0.001000,0.001000,0.001000,0.001000,0.001000
1030.192308,0.011050,0.001000,0.001000,0.001000,0.001000,0.001000
1030.211538,0.012134,0.001000,0.001000,0.001000,0.001000,0.001000
1030.230769,0.013211,0.001000,0.001000,0.001000,0.001000,0.001000
1030.250000,0.014283,0.001000,0.001000,0.001000,0.001000,0.001000
1030.269231,0.015347,0.001000,0.001000,0.001000,0.001000,0.001000
1030.288462,0.016403,0.001000,0.001000,0.001000,0.001000,0.001000
1030.307692,0.017452,0.001000,0.001000,0.001000,0.001000,0.001000
1030.326923,0.018491,0.001000,0.001000,0.001000,0.001000,0.001000
1030.346154,0.019522,0.001000,0.001000,0.001000,0.001000,0.001000
1030.365385,0.020543,0.001000,0.001000,0.001000,0.001000,0.001000
1030.384615,0.021553,0.001000,0.001000,0.001000,0.001000,0.001000
1030.403846,0.022553,0.001000,0.001000,0.001000,0.001000,0.001000
1030.423077,0.023542,0.001000,0.001000,0.001000,0.001000,0.001000
1030.442308,0.024519,0.001000,0.001000,0.001000,0.001000,0.001000
1030.461538,0.025484,0.001000,0.001000,0.001000,0.001000,0.001000
1030.480769,0.026436,0.001000,0.001000,0.001000,0.001000,0.001000
1030.500000,0.027375,0.001000,0.001000,0.001000,0.001000,0.001000
1030.519231,0.028301,0.001000,0.001000,0.001000,0.001000,0.001000
1030.538462,0.029212,0.001000,0.001000,0.001000,0.001000,0.001000
1030.557692,0.030109,0.001000,0.001000,0.001000,0.001000,0.001000
1030.576923,0.030991,0.001000,0.001000,0.001000,0.001000,0.001000
1030.596154,0.031858,0.001000,0.001000,0.001000,0.001000,0.001000
1030.615385,0.032708,0.001000,0.001000,0.001000,0.001000,0.001000
1030.634615,0.033543,0.001000,0.001000,0.001000,0.001000,0.001000
1030.653846,0.034361,0.001000,0.001000,0.001000,0.001000,0.001000
1030.673077,0.035161,0.001000,0.001000,0.001000,0.001000,0.001000
1030.692308,0.035945,0.001000,0.001000,0.001000,0.001000,0.001000
1030.711538,0.036710,0.001000,0.001000,0.001000,0.001000,0.001000
1030.730769,0.037458,0.001000,0.001000,0.001000,0.001000,0.001000
1030.750000,0.038186,0.001000,0.001000,0.001000,0.001000,0.001000
1030.769231,0.038896,0.001000,0.001000,0.001000,0.001000,0.001000
1030.788462,0.039586,0.001000,0.001000,0.001000,0.001000,0.001000
1030.807692,0.040257,0.001000,0.001000,0.001000,0.001000,0.001000
1030.826923,0.040908,0.001000,0.001000,0.001000,0.001000,0.001000
1030.846154,0.041538,0.001000,0.001000,0.001000,0.001000,0.001000
1030.865385,0.042148,0.001000,0.001000,0.001000,0.001000,0.001000
1030.884615,0.042737,0.001000,0.001000,0.001000,0.001000,0.001000
1030.903846,0.043305,0.001000,0.001000,0.001000,0.001000,0.001000
1030.923077,0.043851,0.001000,0.001000,0.001000,0.001000,0.001000
1030.942308,0.044375,0.001000,0.001000,0.001000,0.001000,0.001000
1030.961538,0.044878,0.001000,0.001000,0.001000,0.001000,0.001000
1030.980769,0.045358,0.001000,0.001000,0.001000,0.001000,0.001000
1031.000000,0.045815,0.001000,0.001000,0.001000,0.001000,0.001000
1031.019231,0.046250,0.001000,0.001000,0.001000,0.001000,0.001000
1031.038462,0.046662,0.001000,0.001000,0.001000,0.001000,0.001000
1031.057692,0.047051,0.001000,0.001000,0.001000,0.001000,0.001000
1031.076923,0.047416,0.001000,0.001000,0.001000,0.001000,0.001000
1031.096154,0.047758,0.001000,0.001000,0.001000,0.001000,0.001000
1031.115385,0.048076,0.001000,0.001000,0.001000,0.001000,0.001000
1031.134615,0.048370,0.001000,0.001000,0.001000,0.001000,0.001000
1031.153846,0.048640,0.001000,0.001000,0.001000,0.001000,0.001000
1031.173077,0.048886,0.001000,0.001000,0.001000,0.001000,0.001000
1031.192308,0.049108,0.001000,0.001000,0.001000,0.001000,0.001000
1031.211538,0.049305,0.001000,0.001000,0.001000,0.001000,0.001000
1031.230769,0.049478,0.001000,0.001000,0.001000,0.001000,0.001000
1031.250000,0.049626,0.001000,0.001000,0.001000,0.001000,0.001000
1031.269231,0.049750,0.001000,0.001000,0.001000,0.001000,0.001000
1031.288462,0.049849,0.001000,0.001000,0.001000,0.001000,0.001000
1031.307692,0.049923,0.001000,0.001000,0.001000,0.001000,0.001000
1031.326923,0.049972,0.001000,0.001000,0.001000,0.001000,0.001000
1031.346154,0.049997,0.001000,0.001000,0.001000,0.001000,0.001000
1031.365385,0.049997,0.001000,0.001000,0.001000,0.001000,0.001000
1031.384615,0.049972,0.001000,0.001000,0.001000,0.001000,0.001000
1031.403846,0.049922,0.001000,0.001000,0.001000,0.001000,0.001000
1031.423077,0.049847,0.001000,0.001000,0.001000,0.001000,0.001000
1031.442308,0.049748,0.001000,0.001000,0.001000,0.001000,0.001000
1031.461538,0.049624,0.001000,0.001000,0.001000,0.001000,0.001000
1031.480769,0.049475,0.001000,0.001000,0.001000,0.001000,0.001000
1031.500000,0.049302,0.001000,0.001000,0.001000,0.001000,0.001000
1031.519231,0.049104,0.001000,0.001000,0.001000,0.001000,0.001000
1031.538462,0.048882,0.001000,0.001000,0.001000,0.001000,0.001000
1031.557692,0.048635,0.001000,0.001000,0.001000,0.001000,0.001000
1031.576923,0.048365,0.001000,0.001000,0.001000,0.001000,0.001000
1031.596154,0.048070,0.001000,0.001000,0.001000,0.001000,0.001000
1031.615385,0.047751,0.001000,0.001000,0.001000,0.001000,0.001000
1031.634615,0.047409,0.001000,0.001000,0.001000,0.001000,0.001000
1031.653846,0.047044,0.001000,0.001000,0.001000,0.001000,0.001000
1031.673077,0.046654,0.001000,0.001000,0.001000,0.001000,0.001000
1031.692308,0.046242,0.001000,0.001000,0.001000,0.001000,0.001000
1031.711538,0.045807,0.001000,0.001000,0.001000,0.001000,0.001000
1031.730769,0.045349,0.001000,0.001000,0.001000,0.001000,0.001000
1031.750000,0.044869,0.001000,0.001000,0.001000,0.001000,0.001000
1031.769231,0.044366,0.001000,0.001000,0.001000,0.001000,0.001000
1031.788462,0.043841,0.001000,0.001000,0.001000,0.001000,0.001000
1031.807692,0.043294,0.001000,0.001000,0.001000,0.001000,0.001000
1031.826923,0.042726,0.001000,0.001000,0.001000,0.001000,0.001000
1031.846154,0.042137,0.001000,0.001000,0.001000,0.001000,0.001000
1031.865385,0.041527,0.001000,0.001000,0.001000,0.001000,0.001000
1031.884615,0.040896,0.001000,0.001000,0.001000,0.001000,0.001000
1031.903846,0.040245,0.001000,0.001000,0.001000,0.001000,0.001000
1031.923077,0.039574,0.001000,0.001000,0.001000,0.001000,0.001000
1031.942308,0.038883,0.001000,0.001000,0.001000,0.001000,0.001000
1031.961538,0.038173,0.001000,0.001000,0.001000,0.001000,0.001000
1031.980769,0.037444,0.001000,0.001000,0.001000,0.001000,0.001000
1032.000000,0.036696,0.001000,0.001000,0.001000,0.001000,0.001000
1032.019231,0.035931,0.001000,0.001000,0.001000,0.001000,0.001000
1032.038462,0.035147,0.001000,0.001000,0.001000,0.001000,0.001000
1032.057692,0.034346,0.001000,0.001000,0.001000,0.001000,0.001000
1032.076923,0.033528,0.001000,0.001000,0.001000,0.001000,0.001000
1032.096154,0.032693,0.001000,0.001000,0.001000,0.001000,0.001000
1032.115385,0.031842,0.001000,0.001000,0.001000,0.001000,0.001000
1032.134615,0.030975,0.001000,0.001000,0.001000,0.001000,0.001000
1032.153846,0.030093,0.001000,0.001000,0.001000,0.001000,0.001000
1032.173077,0.029195,0.001000,0.001000,0.001000,0.001000,0.001000
1032.192308,0.028284,0.001000,0.001000,0.001000,0.001000,0.001000
1032.211538,0.027358,0.001000,0.001000,0.001000,0.001000,0.001000
1032.230769,0.026419,0.001000,0.001000,0.001000,0.001000,0.001000
1032.250000,0.025466,0.001000,0.001000,0.001000,0.001000,0.001000
1032.269231,0.024501,0.001000,0.001000,0.001000,0.001000,0.001000
1032.288462,0.023524,0.001000,0.001000,0.001000,0.001000,0.001000
1032.307692,0.022535,0.001000,0.001000,0.001000,0.001000,0.001000
1032.326923,0.021535,0.001000,0.001000,0.001000,0.001000,0.001000
1032.346154,0.020524,0.001000,0.001000,0.001000,0.001000,0.001000
1032.365385,0.019503,0.001000,0.001000,0.001000,0.001000,0.001000
1032.384615,0.018472,0.001000,0.001000,0.001000,0.001000,0.001000
1032.403846,0.017432,0.001000,0.001000,0.001000,0.001000,0.001000
1032.423077,0.016384,0.001000,0.001000,0.001000,0.001000,0.001000
1032.442308,0.015327,0.001000,0.001000,0.001000,0.001000,0.001000
1032.461538,0.014263,0.001000,0.001000,0.001000,0.001000,0.001000
1032.480769,0.013192,0.001000,0.001000,0.001000,0.001000,0.001000
1032.500000,0.012114,0.001000,0.001000,0.001000,0.001000,0.001000
1032.519231,0.011030,0.001000,0.001000,0.001000,0.001000,0.001000
1032.538462,0.009940,0.001000,0.001000,0.001000,0.001000,0.001000
1032.557692,0.008846,0.001000,0.001000,0.001000,0.001000,0.001000
1032.576923,0.007747,0.001000,0.001000,0.001000,0.001000,0.001000
1032.596154,0.006645,0.001000,0.001000,0.001000,0.001000,0.001000
1032.615385,0.005539,0.001000,0.001000,0.001000,0.001000,0.001000
1032.634615,0.004430,0.001000,0.001000,0.001000,0.001000,0.001000
1032.653846,0.003320,0.001000,0.001000,0.001000,0.001000,0.001000
1032.673077,0.002207,0.001000,0.001000,0.001000,0.001000,0.001000
1032.692308,0.001094,0.001000,0.001000,0.001000,0.001000,0.001000
1032.711538,-0.000021,0.001000,0.001000,0.001000,0.001000,0.001000
1032.730769,-0.001135,0.001000,0.001000,0.001000,0.001000,0.001000
1032.750000,-0.002248,0.001000,0.001000,0.001000,0.001000,0.001000
1032.769231,-0.003361,0.001000,0.001000,0.001000,0.001000,0.001000
1032.788462,-0.004471,0.001000,0.001000,0.001000,0.001000,0.001000
1032.807692,-0.005580,0.001000,0.001000,0.001000,0.001000,0.001000
1032.826923,-0.006686,0.001000,0.001000,0.001000,0.001000,0.001000
1032.846154,-0.007788,0.001000,0.001000,0.001000,0.001000,0.001000
1032.865385,-0.008887,0.001000,0.001000,0.001000,0.001000,0.001000
1032.884615,-0.009981,0.001000,0.001000,0.001000,0.001000,0.001000
1032.903846,-0.011070,0.001000,0.001000,0.001000,0.001000,0.001000
1032.923077,-0.012154,0.001000,0.001000,0.001000,0.001000,0.001000
1032.942308,-0.013231,0.001000,0.001000,0.001000,0.001000,0.001000
1032.961538,-0.014302,0.001000,0.001000,0.001000,0.001000,0.001000
1032.980769,-0.015366,0.001000,0.001000,0.001000,0.001000,0.001000
1033.000000,-0.016423,0.001000,0.001000,0.001000,0.001000,0.001000
1033.019231,-0.017471,0.001000,0.001000,0.001000,0.001000,0.001000
1033.038462,-0.018510,0.001000,0.001000,0.001000,0.001000,0.001000
1033.057692,-0.019541,0.001000,0.001000,0.001000,0.001000,0.001000
1033.076923,-0.020561,0.001000,0.001000,0.001000,0.001000,0.001000
1033.096154,-0.021572,0.001000,0.001000,0.001000,0.001000,0.001000
1033.115385,-0.022572,0.001000,0.001000,0.001000,0.001000,0.001000
1033.134615,-0.023560,0.001000,0.001000,0.001000,0.001000,0.001000
1033.153846,-0.024537,0.001000,0.001000,0.001000,0.001000,0.001000
1033.173077,-0.025502,0.001000,0.001000,0.001000,0.001000,0.001000
1033.192308,-0.026454,0.001000,0.001000,0.001000,0.001000,0.001000
1033.211538,-0.027392,0.001000,0.001000,0.001000,0.001000,0.001000
1033.230769,-0.028318,0.001000,0.001000,0.001000,0.001000,0.001000
1033.250000,-0.029229,0.001000,0.001000,0.001000,0.001000,0.001000
1033.269231,-0.030125,0.001000,0.001000,0.001000,0.001000,0.001000
1033.288462,-0.031007,0.001000,0.001000,0.001000,0.001000,0.001000
1033.307692,-0.031873,0.001000,0.001000,0.001000,0.001000,0.001000
1033.326923,-0.032724,0.001000,0.001000,0.001000,0.001000,0.001000
1033.346154,-0.033558,0.001000,0.001000,0.001000,0.001000,0.001000
1033.365385,-0.034376,0.001000,0.001000,0.001000,0.001000,0.001000
1033.384615,-0.035176,0.001000,0.001000,0.001000,0.001000,0.001000
1033.403846,-0.035959,0.001000,0.001000,0.001000,0.001000,0.001000
1033.423077,-0.036724,0.001000,0.001000,0.001000,0.001000,0.001000
1033.442308,-0.037471,0.001000,0.001000,0.001000,0.001000,0.001000
1033.461538,-0.038200,0.001000,0.001000,0.001000,0.001000,0.001000
1033.480769,-0.038909,0.001000,0.001000,0.001000,0.001000,0.001000
1033.500000,-0.039599,0.001000,0.001000,0.001000,0.001000,0.001000
1033.519231,-0.040269,0.001000,0.001000,0.001000,0.001000,0.001000
1033.538462,-0.040920,0.001000,0.001000,0.001000,0.001000,0.001000
1033.557692,-0.041550,0.001000,0.001000,0.001000,0.001000,0.001000
1033.576923,-0.042159,0.001000,0.001000,0.001000,0.001000,0.001000
1033.596154,-0.042748,0.001000,0.001000,0.001000,0.001000,0.001000
1033.615385,-0.043315,0.001000,0.001000,0.001000,0.001000,0.001000
1033.634615,-0.043861,0.001000,0.001000,0.001000,0.001000,0.001000
1033.653846,-0.044385,0.001000,0.001000,0.001000,0.001000,0.001000
1033.673077,-0.044887,0.001000,0.001000,0.001000,0.001000,0.001000
1033.692308,-0.045366,0.001000,0.001000,0.001000,0.001000,0.001000
1033.711538,-0.045823,0.001000,0.001000,0.001000,0.001000,0.001000
1033.730769,-0.046258,0.001000,0.001000,0.001000,0.001000,0.001000
1033.750000,-0.046669,0.001000,0.001000,0.001000,0.001000,0.001000
1033.769231,-0.047057,0.001000,0.001000,0.001000,0.001000,0.001000
1033.788462,-0.047422,0.001000,0.001000,0.001000,0.001000,0.001000
1033.807692,-0.047764,0.001000,0.001000,0.001000,0.001000,0.001000
1033.826923,-0.048081,0.001000,0.001000,0.001000,0.001000,0.001000
1033.846154,-0.048375,0.001000,0.001000,0.001000,0.001000,0.001000
1033.865385,-0.048645,0.001000,0.001000,0.001000,0.001000,0.001000
1033.884615,-0.048890,0.001000,0.001000,0.001000,0.001000,0.001000
1033.903846,-0.049112,0.001000,0.001000,0.001000,0.001000,0.001000
1033.923077,-0.049308,0.001000,0.001000,0.001000,0.001000,0.001000
1033.942308,-0.049481,0.001000,0.001000,0.001000,0.001000,0.001000
1033.961538,-0.049629,0.001000,0.001000,0.001000,0.001000,0.001000
1033.980769,-0.049752,0.001000,0.001000,0.001000,0.001000,0.001000
1034.000000,-0.049850,0.001000,0.001000,0.001000,0.001000,0.001000
1034.019231,-0.049924,0.001000,0.001000,0.001000,0.001000,0.001000
1034.038462,-0.049973,0.001000,0.001000,0.001000,0.001000,0.001000
1034.057692,-0.049997,0.001000,0.001000,0.001000,0.001000,0.001000
1034.076923,-0.049997,0.001000,0.001000,0.001000,0.001000,0.001000
1034.096154,-0.049971,0.001000,0.001000,0.001000,0.001000,0.001000
1034.115385,-0.049921,0.001000,0.001000,0.001000,0.001000,0.001000
1034.134615,-0.049846,0.001000,0.001000,0.001000,0.001000,0.001000
1034.153846,-0.049746,0.001000,0.001000,0.001000,0.001000,0.001000
1034.173077,-0.049621,0.001000,0.001000,0.001000,0.001000,0.001000
1034.192308,-0.049472,0.001000,0.001000,0.001000,0.001000,0.001000
1034.211538,-0.049298,0.001000,0.001000,0.001000,0.001000,0.001000
1034.230769,-0.049100,0.001000,0.001000,0.001000,0.001000,0.001000
1034.250000,-0.048877,0.001000,0.001000,0.001000,0.001000,0.001000
1034.269231,-0.048630,0.001000,0.001000,0.001000,0.001000,0.001000
1034.288462,-0.048359,0.001000,0.001000,0.001000,0.001000,0.001000
1034.307692,-0.048064,0.001000,0.001000,0.001000,0.001000,0.001000
1034.326923,-0.047745,0.001000,0.001000,0.001000,0.001000,0.001000
1034.346154,-0.047403,0.001000,0.001000,0.001000,0.001000,0.001000
1034.365385,-0.047037,0.001000,0.001000,0.001000,0.001000,0.001000
1034.384615,-0.046647,0.001000,0.001000,0.001000,0.001000,0.001000
1034.403846,-0.046234,0.001000,0.001000,0.001000,0.001000,0.001000
1034.423077,-0.045799,0.001000,0.001000,0.001000,0.001000,0.001000
1034.442308,-0.045340,0.001000,0.001000,0.001000,0.001000,0.001000
1034.461538,-0.044859,0.001000,0.001000,0.001000,0.001000,0.001000
1034.480769,-0.044356,0.001000,0.001000,0.001000,0.001000,0.001000
1034.500000,-0.043831,0.001000,0.001000,0.001000,0.001000,0.001000
1034.519231,-0.043284,0.001000,0.001000,0.001000,0.001000,0.001000
1034.538462,-0.042716,0.001000,0.001000,0.001000,0.001000,0.001000
1034.557692,-0.042126,0.001000,0.001000,0.001000,0.001000,0.001000
1034.576923,-0.041515,0.001000,0.001000,0.001000,0.001000,0.001000
1034.596154,-0.040884,0.001000,0.001000,0.001000,0.001000,0.001000
1034.615385,-0.040233,0.001000,0.001000,0.001000,0.001000,0.001000
1034.634615,-0.039561,0.001000,0.001000,0.001000,0.001000,0.001000
1034.653846,-0.038870,0.001000,0.001000,0.001000,0.001000,0.001000
1034.673077,-0.038160,0.001000,0.001000,0.001000,0.001000,0.001000
1034.692308,-0.037430,0.001000,0.001000,0.001000,0.001000,0.001000
