timestamp,ax,ay,az,gx,gy,gz
1000.000000,0.000000,0.001000,0.001000,0.001000,0.001000,0.001000
1000.019231,0.001329,0.001000,0.001000,0.001000,0.001000,0.001000
1000.038462,0.002657,0.001000,0.001000,0.001000,0.001000,0.001000
1000.057692,0.003983,0.001000,0.001000,0.001000,0.001000,0.001000
1000.076923,0.005306,0.001000,0.001000,0.001000,0.001000,0.001000
1000.096154,0.006625,0.001000,0.001000,0.001000,0.001000,0.001000
1000.115385,0.007940,0.001000,0.001000,0.001000,0.001000,0.001000
1000.134615,0.009249,0.001000,0.001000,0.001000,0.001000,0.001000
1000.153846,0.010551,0.001000,0.001000,0.001000,0.001000,0.001000
1000.173077,0.011847,0.001000,0.001000,0.001000,0.001000,0.001000
1000.192308,0.013133,0.001000,0.001000,0.001000,0.001000,0.001000
1000.211538,0.014411,0.001000,0.001000,0.001000,0.001000,0.001000
1000.230769,0.015678,0.001000,0.001000,0.001000,0.001000,0.001000
1000.250000,0.016934,0.001000,0.001000,0.001000,0.001000,0.001000
1000.269231,0.018178,0.001000,0.001000,0.001000,0.001000,0.001000
1000.288462,0.019410,0.001000,0.001000,0.001000,0.001000,0.001000
1000.307692,0.020628,0.001000,0.001000,0.001000,0.001000,0.001000
1000.326923,0.021831,0.001000,0.001000,0.001000,0.001000,0.001000
1000.346154,0.023018,0.001000,0.001000,0.001000,0.001000,0.001000
1000.365385,0.024190,0.001000,0.001000,0.001000,0.001000,0.001000
1000.384615,0.025344,0.001000,0.001000,0.001000,0.001000,0.001000
1000.403846,0.026481,0.001000,0.001000,0.001000,0.001000,0.001000
1000.423077,0.027598,0.001000,0.001000,0.001000,0.001000,0.001000
1000.442308,0.028697,0.001000,0.001000,0.001000,0.001000,0.001000
1000.461538,0.029775,0.001000,0.001000,0.001000,0.001000,0.001000
1000.480769,0.030832,0.001000,0.001000,0.001000,0.001000,0.001000
1000.500000,0.031867,0.001000,0.001000,0.001000,0.001000,0.001000
1000.519231,0.032879,0.001000,0.001000,0.001000,0.001000,0.001000
1000.538462,0.033869,0.001000,0.001000,0.001000,0.001000,0.001000
1000.557692,0.034834,0.001000,0.001000,0.001000,0.001000,0.001000
1000.576923,0.035775,0.001000,0.001000,0.001000,0.001000,0.001000
1000.596154,0.036691,0.001000,0.001000,0.001000,0.001000,0.001000
1000.615385,0.037581,0.001000,0.001000,0.001000,0.001000,0.001000
1000.634615,0.038444,0.001000,0.001000,0.001000,0.001000,0.001000
1000.653846,0.039280,0.001000,0.001000,0.001000,0.001000,0.001000
1000.673077,0.040088,0.001000,0.001000,0.001000,0.001000,0.001000
1000.692308,0.040868,0.001000,0.001000,0.001000,0.001000,0.001000
1000.711538,0.041619,0.001000,0.001000,0.001000,0.001000,0.001000
1000.730769,0.042341,0.001000,0.001000,0.001000,0.001000,0.001000
1000.750000,0.043033,0.001000,0.001000,0.001000,0.001000,0.001000
1000.769231,0.043694,0.001000,0.001000,0.001000,0.001000,0.001000
1000.788462,0.044325,0.001000,0.001000,0.001000,0.001000,0.001000
1000.807692,0.044924,0.001000,0.001000,0.001000,0.001000,0.001000
1000.826923,0.045491,0.001000,0.001000,0.001000,0.001000,0.001000
1000.846154,0.046027,0.001000,0.001000,0.001000,0.001000,0.001000
1000.865385,0.046530,0.001000,0.001000,0.001000,0.001000,0.001000
1000.884615,0.047000,0.001000,0.001000,0.001000,0.001000,0.001000
1000.903846,0.047436,0.001000,0.001000,0.001000,0.001000,0.001000
1000.923077,0.047840,0.001000,0.001000,0.001000,0.001000,0.001000
1000.942308,0.048209,0.001000,0.001000,0.001000,0.001000,0.001000
1000.961538,0.048544,0.001000,0.001000,0.001000,0.001000,0.001000
1000.980769,0.048846,0.001000,0.001000,0.001000,0.001000,0.001000
1001.000000,0.049112,0.001000,0.001000,0.001000,0.001000,0.001000
1001.019231,0.049344,0.001000,0.001000,0.001000,0.001000,0.001000
1001.038462,0.049541,0.001000,0.001000,0.001000,0.001000,0.001000
1001.057692,0.049703,0.001000,0.001000,0.001000,0.001000,0.001000
1001.076923,0.049830,0.001000,0.001000,0.001000,0.001000,0.001000
1001.096154,0.049922,0.001000,0.001000,0.001000,0.001000,0.001000
1001.115385,0.049979,0.001000,0.001000,0.001000,0.001000,0.001000
1001.134615,0.050000,0.001000,0.001000,0.001000,0.001000,0.001000
1001.153846,0.049986,0.001000,0.001000,0.001000,0.001000,0.001000
1001.173077,0.049936,0.001000,0.001000,0.001000,0.001000,0.001000
1001.192308,0.049852,0.001000,0.001000,0.001000,0.001000,0.001000
1001.211538,0.049732,0.001000,0.001000,0.001000,0.001000,0.001000
1001.230769,0.049577,0.001000,0.001000,0.001000,0.001000,0.001000
1001.250000,0.049387,0.001000,0.001000,0.001000,0.001000,0.001000
1001.269231,0.049162,0.001000,0.001000,0.001000,0.001000,0.001000
1001.288462,0.048902,0.001000,0.001000,0.001000,0.001000,0.001000
1001.307692,0.048608,0.001000,0.001000,0.001000,0.001000,0.001000
1001.326923,0.048279,0.001000,0.001000,0.001000,0.001000,0.001000
1001.346154,0.047917,0.001000,0.001000,0.001000,0.001000,0.001000
1001.365385,0.047520,0.001000,0.001000,0.001000,0.001000,0.001000
1001.384615,0.047090,0.001000,0.001000,0.001000,0.001000,0.001000
1001.403846,0.046627,0.001000,0.001000,0.001000,0.001000,0.001000
1001.423077,0.046131,0.001000,0.001000,0.001000,0.001000,0.001000
1001.442308,0.045602,0.001000,0.001000,0.001000,0.001000,0.001000
1001.461538,0.045041,0.001000,0.001000,0.001000,0.001000,0.001000
1001.480769,0.044448,0.001000,0.001000,0.001000,0.001000,0.001000
1001.500000,0.043824,0.001000,0.001000,0.001000,0.001000,0.001000
1001.519231,0.043168,0.001000,0.001000,0.001000,0.001000,0.001000
1001.538462,0.042483,0.001000,0.001000,0.001000,0.001000,0.001000
1001.557692,0.041767,0.001000,0.001000,0.001000,0.001000,0.001000
1001.576923,0.041022,0.001000,0.001000,0.001000,0.001000,0.001000
1001.596154,0.040248,0.001000,0.001000,0.001000,0.001000,0.001000
1001.615385,0.039445,0.001000,0.001000,0.001000,0.001000,0.001000
1001.634615,0.038614,0.001000,0.001000,0.001000,0.001000,0.001000
1001.653846,0.037757,0.001000,0.001000,0.001000,0.001000,0.001000
1001.673077,0.036872,0.001000,0.001000,0.001000,0.001000,0.001000
1001.692308,0.035962,0.001000,0.001000,0.001000,0.001000,0.001000
1001.711538,0.035026,0.001000,0.001000,0.001000,0.001000,0.001000
1001.730769,0.034065,0.001000,0.001000,0.001000,0.001000,0.001000
1001.750000,0.033081,0.001000,0.001000,0.001000,0.001000,0.001000
1001.769231,0.032073,0.001000,0.001000,0.001000,0.001000,0.001000
1001.788462,0.031042,0.001000,0.001000,0.001000,0.001000,0.001000
1001.807692,0.029989,0.001000,0.001000,0.001000,0.001000,0.001000
1001.826923,0.028915,0.001000,0.001000,0.001000,0.001000,0.001000
1001.846154,0.027821,0.001000,0.001000,0.001000,0.001000,0.001000
1001.865385,0.026707,0.001000,0.001000,0.001000,0.001000,0.001000
1001.884615,0.025575,0.001000,0.001000,0.001000,0.001000,0.001000
1001.903846,0.024424,0.001000,0.001000,0.001000,0.001000,0.001000
1001.923077,0.023256,0.001000,0.001000,0.001000,0.001000,0.001000
1001.942308,0.022071,0.001000,0.001000,0.001000,0.001000,0.001000
1001.961538,0.020871,0.001000,0.001000,0.001000,0.001000,0.001000
1001.980769,0.019656,0.001000,0.001000,0.001000,0.001000,0.001000
1002.000000,0.018428,0.001000,0.001000,0.001000,0.001000,0.001000
1002.019231,0.017186,0.001000,0.001000,0.001000,0.001000,0.001000
1002.038462,0.015932,0.001000,0.001000,0.001000,0.001000,0.001000
1002.057692,0.014667,0.001000,0.001000,0.001000,0.001000,0.001000
1002.076923,0.013391,0.001000,0.001000,0.001000,0.001000,0.001000
1002.096154,0.012106,0.001000,0.001000,0.001000,0.001000,0.001000
1002.115385,0.010813,0.001000,0.001000,0.001000,0.001000,0.001000
1002.134615,0.009512,0.001000,0.001000,0.001000,0.001000,0.001000
1002.153846,0.008204,0.001000,0.001000,0.001000,0.001000,0.001000
1002.173077,0.006890,0.001000,0.001000,0.001000,0.001000,0.001000
1002.192308,0.005572,0.001000,0.001000,0.001000,0.001000,0.001000
1002.211538,0.004249,0.001000,0.001000,0.001000,0.001000,0.001000
1002.230769,0.002924,0.001000,0.001000,0.001000,0.001000,0.001000
1002.250000,0.001596,0.001000,0.001000,0.001000,0.001000,0.001000
1002.269231,0.000268,0.001000,0.001000,0.001000,0.001000,0.001000
1002.288462,-0.001061,0.001000,0.001000,0.001000,0.001000,0.001000
1002.307692,-0.002389,0.001000,0.001000,0.001000,0.001000,0.001000
1002.326923,-0.003716,0.001000,0.001000,0.001000,0.001000,0.001000
1002.346154,-0.005039,0.001000,0.001000,0.001000,0.001000,0.001000
1002.365385,-0.006360,0.001000,0.001000,0.001000,0.001000,0.001000
1002.384615,-0.007675,0.001000,0.001000,0.001000,0.001000,0.001000
1002.403846,-0.008986,0.001000,0.001000,0.001000,0.001000,0.001000
1002.423077,-0.010290,0.001000,0.001000,0.001000,0.001000,0.001000
1002.442308,-0.011586,0.001000,0.001000,0.001000,0.001000,0.001000
1002.461538,-0.012875,0.001000,0.001000,0.001000,0.001000,0.001000
1002.480769,-0.014154,0.001000,0.001000,0.001000,0.001000,0.001000
1002.500000,-0.015424,0.001000,0.001000,0.001000,0.001000,0.001000
1002.519231,-0.016682,0.001000,0.001000,0.001000,0.001000,0.001000
1002.538462,-0.017929,0.001000,0.001000,0.001000,0.001000,0.001000
1002.557692,-0.019163,0.001000,0.001000,0.001000,0.001000,0.001000
1002.576923,-0.020383,0.001000,0.001000,0.001000,0.001000,0.001000
1002.596154,-0.021590,0.001000,0.001000,0.001000,0.001000,0.001000
1002.615385,-0.022780,0.001000,0.001000,0.001000,0.001000,0.001000
1002.634615,-0.023955,0.001000,0.001000,0.001000,0.001000,0.001000
1002.653846,-0.025113,0.001000,0.001000,0.001000,0.001000,0.001000
1002.673077,-0.026253,0.001000,0.001000,0.001000,0.001000,0.001000
1002.692308,-0.027375,0.001000,0.001000,0.001000,0.001000,0.001000
1002.711538,-0.028477,0.001000,0.001000,0.001000,0.001000,0.001000
1002.730769,-0.029559,0.001000,0.001000,0.001000,0.001000,0.001000
1002.750000,-0.030620,0.001000,0.001000,0.001000,0.001000,0.001000
1002.769231,-0.031660,0.001000,0.001000,0.001000,0.001000,0.001000
1002.788462,-0.032677,0.001000,0.001000,0.001000,0.001000,0.001000
1002.807692,-0.033672,0.001000,0.001000,0.001000,0.001000,0.001000
1002.826923,-0.034642,0.001000,0.001000,0.001000,0.001000,0.001000
1002.846154,-0.035588,0.001000,0.001000,0.001000,0.001000,0.001000
1002.865385,-0.036509,0.001000,0.001000,0.001000,0.001000,0.001000
1002.884615,-0.037404,0.001000,0.001000,0.001000,0.001000,0.001000
1002.903846,-0.038272,0.001000,0.001000,0.001000,0.001000,0.001000
1002.923077,-0.039114,0.001000,0.001000,0.001000,0.001000,0.001000
1002.942308,-0.039928,0.001000,0.001000,0.001000,0.001000,0.001000
1002.961538,-0.040713,0.001000,0.001000,0.001000,0.001000,0.001000
1002.980769,-0.041470,0.001000,0.001000,0.001000,0.001000,0.001000
1003.000000,-0.042198,0.001000,0.001000,0.001000,0.001000,0.001000
1003.019231,-0.042896,0.001000,0.001000,0.001000,0.001000,0.001000
1003.038462,-0.043563,0.001000,0.001000,0.001000,0.001000,0.001000
1003.057692,-0.044200,0.001000,0.001000,0.001000,0.001000,0.001000
1003.076923,-0.044806,0.001000,0.001000,0.001000,0.001000,0.001000
1003.096154,-0.045380,0.001000,0.001000,0.001000,0.001000,0.001000
1003.115385,-0.045921,0.001000,0.001000,0.001000,0.001000,0.001000
1003.134615,-0.046431,0.001000,0.001000,0.001000,0.001000,0.001000
1003.153846,-0.046908,0.001000,0.001000,0.001000,0.001000,0.001000
1003.173077,-0.047351,0.001000,0.001000,0.001000,0.001000,0.001000
1003.192308,-0.047761,0.001000,0.001000,0.001000,0.001000,0.001000
1003.211538,-0.048137,0.001000,0.001000,0.001000,0.001000,0.001000
1003.230769,-0.048480,0.001000,0.001000,0.001000,0.001000,0.001000
1003.250000,-0.048788,0.001000,0.001000,0.001000,0.001000,0.001000
1003.269231,-0.049061,0.001000,0.001000,0.001000,0.001000,0.001000
1003.288462,-0.049300,0.001000,0.001000,0.001000,0.001000,0.001000
1003.307692,-0.049504,0.001000,0.001000,0.001000,0.001000,0.001000
1003.326923,-0.049673,0.001000,0.001000,0.001000,0.001000,0.001000
1003.346154,-0.049808,0.001000,0.001000,0.001000,0.001000,0.001000
1003.365385,-0.049906,0.001000,0.001000,0.001000,0.001000,0.001000
1003.384615,-0.049970,0.001000,0.001000,0.001000,0.001000,0.001000
1003.403846,-0.049998,0.001000,0.001000,0.001000,0.001000,0.001000
1003.423077,-0.049991,0.001000,0.001000,0.001000,0.001000,0.001000
1003.442308,-0.049949,0.001000,0.001000,0.001000,0.001000,0.001000
1003.461538,-0.049872,0.001000,0.001000,0.001000,0.001000,0.001000
1003.480769,-0.049759,0.001000,0.001000,0.001000,0.001000,0.001000
1003.500000,-0.049611,0.001000,0.001000,0.001000,0.001000,0.001000
1003.519231,-0.049428,0.001000,0.001000,0.001000,0.001000,0.001000
1003.538462,-0.049210,0.001000,0.001000,0.001000,0.001000,0.001000
1003.557692,-0.048957,0.001000,0.001000,0.001000,0.001000,0.001000
1003.576923,-0.048670,0.001000,0.001000,0.001000,0.001000,0.001000
1003.596154,-0.048348,0.001000,0.001000,0.001000,0.001000,0.001000
1003.615385,-0.047992,0.001000,0.001000,0.001000,0.001000,0.001000
1003.634615,-0.047603,0.001000,0.001000,0.001000,0.001000,0.001000
1003.653846,-0.047179,0.001000,0.001000,0.001000,0.001000,0.001000
1003.673077,-0.046723,0.001000,0.001000,0.001000,0.001000,0.001000
1003.692308,-0.046233,0.001000,0.001000,0.001000,0.001000,0.001000
1003.711538,-0.045711,0.001000,0.001000,0.001000,0.001000,0.001000
1003.730769,-0.045156,0.001000,0.001000,0.001000,0.001000,0.001000
1003.750000,-0.044570,0.001000,0.001000,0.001000,0.001000,0.001000
1003.769231,-0.043952,0.001000,0.001000,0.001000,0.001000,0.001000
1003.788462,-0.043303,0.001000,0.001000,0.001000,0.001000,0.001000
1003.807692,-0.042623,0.001000,0.001000,0.001000,0.001000,0.001000
1003.826923,-0.041914,0.001000,0.001000,0.001000,0.001000,0.001000
1003.846154,-0.041174,0.001000,0.001000,0.001000,0.001000,0.001000
1003.865385,-0.040406,0.001000,0.001000,0.001000,0.001000,0.001000
1003.884615,-0.039609,0.001000,0.001000,0.001000,0.001000,0.001000
1003.903846,-0.038784,0.001000,0.001000,0.001000,0.001000,0.001000
1003.923077,-0.037932,0.001000,0.001000,0.001000,0.001000,0.001000
1003.942308,-0.037053,0.001000,0.001000,0.001000,0.001000,0.001000
1003.961538,-0.036147,0.001000,0.001000,0.001000,0.001000,0.001000
1003.980769,-0.035216,0.001000,0.001000,0.001000,0.001000,0.001000
1004.000000,-0.034261,0.001000,0.001000,0.001000,0.001000,0.001000
1004.019231,-0.033281,0.001000,0.001000,0.001000,0.001000,0.001000
1004.038462,-0.032277,0.001000,0.001000,0.001000,0.001000,0.001000
1004.057692,-0.031251,0.001000,0.001000,0.001000,0.001000,0.001000
1004.076923,-0.030203,0.001000,0.001000,0.001000,0.001000,0.001000
1004.096154,-0.029133,0.001000,0.001000,0.001000,0.001000,0.001000
1004.115385,-0.028043,0.001000,0.001000,0.001000,0.001000,0.001000
1004.134615,-0.026933,0.001000,0.001000,0.001000,0.001000,0.001000
1004.153846,-0.025804,0.001000,0.001000,0.001000,0.001000,0.001000
1004.173077,-0.024657,0.001000,0.001000,0.001000,0.001000,0.001000
1004.192308,-0.023492,0.001000,0.001000,0.001000,0.001000,0.001000
1004.211538,-0.022311,0.001000,0.001000,0.001000,0.001000,0.001000
1004.230769,-0.021114,0.001000,0.001000,0.001000,0.001000,0.001000
1004.250000,-0.019902,0.001000,0.001000,0.001000,0.001000,0.001000
1004.269231,-0.018676,0.001000,0.001000,0.001000,0.001000,0.001000
1004.288462,-0.017437,0.001000,0.001000,0.001000,0.001000,0.001000
1004.307692,-0.016185,0.001000,0.001000,0.001000,0.001000,0.001000
1004.326923,-0.014922,0.001000,0.001000,0.001000,0.001000,0.001000
1004.346154,-0.013649,0.001000,0.001000,0.001000,0.001000,0.001000
1004.365385,-0.012366,0.001000,0.001000,0.001000,0.001000,0.001000
1004.384615,-0.011074,0.001000,0.001000,0.001000,0.001000,0.001000
1004.403846,-0.009774,0.001000,0.001000,0.001000,0.001000,0.001000
1004.423077,-0.008468,0.001000,0.001000,0.001000,0.001000,0.001000
1004.442308,-0.007155,0.001000,0.001000,0.001000,0.001000,0.001000
1004.461538,-0.005838,0.001000,0.001000,0.001000,0.001000,0.001000
1004.480769,-0.004516,0.001000,0.001000,0.001000,0.001000,0.001000
1004.500000,-0.003191,0.001000,0.001000,0.001000,0.001000,0.001000
1004.519231,-0.001864,0.001000,0.001000,0.001000,0.001000,0.001000
1004.538462,-0.000535,0.001000,0.001000,0.001000,0.001000,0.001000
1004.557692,0.000794,0.001000,0.001000,0.001000,0.001000,0.001000
1004.576923,0.002122,0.001000,0.001000,0.001000,0.001000,0.001000
1004.596154,0.003449,0.001000,0.001000,0.001000,0.001000,0.001000
1004.615385,0.004773,0.001000,0.001000,0.001000,0.001000,0.001000
1004.634615,0.006094,0.001000,0.001000,0.001000,0.001000,0.001000
1004.653846,0.007411,0.001000,0.001000,0.001000,0.001000,0.001000
1004.673077,0.008722,0.001000,0.001000,0.001000,0.001000,0.001000
1004.692308,0.010028,0.001000,0.001000,0.001000,0.001000,0.001000
1004.711538,0.011326,0.001000,0.001000,0.001000,0.001000,0.001000
1004.730769,0.012616,0.001000,0.001000,0.001000,0.001000,0.001000
1004.750000,0.013897,0.001000,0.001000,0.001000,0.001000,0.001000
1004.769231,0.015169,0.001000,0.001000,0.001000,0.001000,0.001000
1004.788462,0.016430,0.001000,0.001000,0.001000,0.001000,0.001000
1004.807692,0.017679,0.001000,0.001000,0.001000,0.001000,0.001000
1004.826923,0.018915,0.001000,0.001000,0.001000,0.001000,0.001000
1004.846154,0.020139,0.001000,0.001000,0.001000,0.001000,0.001000
1004.865385,0.021348,0.001000,0.001000,0.001000,0.001000,0.001000
1004.884615,0.022542,0.001000,0.001000,0.001000,0.001000,0.001000
1004.903846,0.023720,0.001000,0.001000,0.001000,0.001000,0.001000
1004.923077,0.024881,0.001000,0.001000,0.001000,0.001000,0.001000
1004.942308,0.026025,0.001000,0.001000,0.001000,0.001000,0.001000
1004.961538,0.027150,0.001000,0.001000,0.001000,0.001000,0.001000
1004.980769,0.028257,0.001000,0.001000,0.001000,0.001000,0.001000
1005.000000,0.029343,0.001000,0.001000,0.001000,0.001000,0.001000
1005.019231,0.030408,0.001000,0.001000,0.001000,0.001000,0.001000
1005.038462,0.031452,0.001000,0.001000,0.001000,0.001000,0.001000
1005.057692,0.032474,0.001000,0.001000,0.001000,0.001000,0.001000
1005.076923,0.033473,0.001000,0.001000,0.001000,0.001000,0.001000
1005.096154,0.034448,0.001000,0.001000,0.001000,0.001000,0.001000
1005.115385,0.035399,0.001000,0.001000,0.001000,0.001000,0.001000
1005.134615,0.036325,0.001000,0.001000,0.001000,0.001000,0.001000
1005.153846,0.037225,0.001000,0.001000,0.001000,0.001000,0.001000
1005.173077,0.038099,0.001000,0.001000,0.001000,0.001000,0.001000
1005.192308,0.038946,0.001000,0.001000,0.001000,0.001000,0.001000
1005.211538,0.039766,0.001000,0.001000,0.001000,0.001000,0.001000
1005.230769,0.040557,0.001000,0.001000,0.001000,0.001000,0.001000
1005.250000,0.041320,0.001000,0.001000,0.001000,0.001000,0.001000
1005.269231,0.042054,0.001000,0.001000,0.001000,0.001000,0.001000
1005.288462,0.042758,0.001000,0.001000,0.001000,0.001000,0.001000
1005.307692,0.043431,0.001000,0.001000,0.001000,0.001000,0.001000
1005.326923,0.044074,0.001000,0.001000,0.001000,0.001000,0.001000
1005.346154,0.044686,0.001000,0.001000,0.001000,0.001000,0.001000
1005.365385,0.045267,0.001000,0.001000,0.001000,0.001000,0.001000
1005.384615,0.045815,0.001000,0.001000,0.001000,0.001000,0.001000
1005.403846,0.046331,0.001000,0.001000,0.001000,0.001000,0.001000
1005.423077,0.046814,0.001000,0.001000,0.001000,0.001000,0.001000
1005.442308,0.047264,0.001000,0.001000,0.001000,0.001000,0.001000
1005.461538,0.047681,0.001000,0.001000,0.001000,0.001000,0.001000
1005.480769,0.048064,0.001000,0.001000,0.001000,0.001000,0.001000
1005.500000,0.048413,0.001000,0.001000,0.001000,0.001000,0.001000
1005.519231,0.048728,0.001000,0.001000,0.001000,0.001000,0.001000
1005.538462,0.049009,0.001000,0.001000,0.001000,0.001000,0.001000
1005.557692,0.049255,0.001000,0.001000,0.001000,0.001000,0.001000
1005.576923,0.049466,0.001000,0.001000,0.001000,0.001000,0.001000
1005.596154,0.049642,0.001000,0.001000,0.001000,0.001000,0.001000
1005.615385,0.049783,0.001000,0.001000,0.001000,0.001000,0.001000
1005.634615,0.049889,0.001000,0.001000,0.001000,0.001000,0.001000
1005.653846,0.049960,0.001000,0.001000,0.001000,0.001000,0.001000
1005.673077,0.049996,0.001000,0.001000,0.001000,0.001000,0.001000
1005.692308,0.049996,0.001000,0.001000,0.001000,0.001000,0.001000
1005.711538,0.049960,0.001000,0.001000,0.001000,0.001000,0.001000
1005.730769,0.049890,0.001000,0.001000,0.001000,0.001000,0.001000
1005.750000,0.049784,0.001000,0.001000,0.001000,0.001000,0.001000
1005.769231,0.049643,0.001000,0.001000,0.001000,0.001000,0.001000
1005.788462,0.049467,0.001000,0.001000,0.001000,0.001000,0.001000
1005.807692,0.049257,0.001000,0.001000,0.001000,0.001000,0.001000
1005.826923,0.049011,0.001000,0.001000,0.001000,0.001000,0.001000
1005.846154,0.048731,0.001000,0.001000,0.001000,0.001000,0.001000
1005.865385,0.048416,0.001000,0.001000,0.001000,0.001000,0.001000
1005.884615,0.048067,0.001000,0.001000,0.001000,0.001000,0.001000
1005.903846,0.047684,0.001000,0.001000,0.001000,0.001000,0.001000
1005.923077,0.047267,0.001000,0.001000,0.001000,0.001000,0.001000
1005.942308,0.046817,0.001000,0.001000,0.001000,0.001000,0.001000
1005.961538,0.046334,0.001000,0.001000,0.001000,0.001000,0.001000
1005.980769,0.045819,0.001000,0.001000,0.001000,0.001000,0.001000
1006.000000,0.045271,0.001000,0.001000,0.001000,0.001000,0.001000
1006.019231,0.044690,0.001000,0.001000,0.001000,0.001000,0.001000
1006.038462,0.044079,0.001000,0.001000,0.001000,0.001000,0.001000
1006.057692,0.043436,0.001000,0.001000,0.001000,0.001000,0.001000
1006.076923,0.042763,0.001000,0.001000,0.001000,0.001000,0.001000
1006.096154,0.042059,0.001000,0.001000,0.001000,0.001000,0.001000
1006.115385,0.041325,0.001000,0.001000,0.001000,0.001000,0.001000
1006.134615,0.040563,0.001000,0.001000,0.001000,0.001000,0.001000
1006.153846,0.039772,0.001000,0.001000,0.001000,0.001000,0.001000
1006.173077,0.038952,0.001000,0.001000,0.001000,0.001000,0.001000
1006.192308,0.038105,0.001000,0.001000,0.001000,0.001000,0.001000
1006.211538,0.037232,0.001000,0.001000,0.001000,0.001000,0.001000
1006.230769,0.036332,0.001000,0.001000,0.001000,0.001000,0.001000
1006.250000,0.035406,0.001000,0.001000,0.001000,0.001000,0.001000
1006.269231,0.034455,0.001000,0.001000,0.001000,0.001000,0.001000
1006.288462,0.033480,0.001000,0.001000,0.001000,0.001000,0.001000
1006.307692,0.032481,0.001000,0.001000,0.001000,0.001000,0.001000
1006.326923,0.031460,0.001000,0.001000,0.001000,0.001000,0.001000
1006.346154,0.030416,0.001000,0.001000,0.001000,0.001000,0.001000
1006.365385,0.029351,0.001000,0.001000,0.001000,0.001000,0.001000
1006.384615,0.028264,0.001000,0.001000,0.001000,0.001000,0.001000
1006.403846,0.027158,0.001000,0.001000,0.001000,0.001000,0.001000
1006.423077,0.026033,0.001000,0.001000,0.001000,0.001000,0.001000
1006.442308,0.024889,0.001000,0.001000,0.001000,0.001000,0.001000
1006.461538,0.023728,0.001000,0.001000,0.001000,0.001000,0.001000
1006.480769,0.022550,0.001000,0.001000,0.001000,0.001000,0.001000
1006.500000,0.021356,0.001000,0.001000,0.001000,0.001000,0.001000
1006.519231,0.020147,0.001000,0.001000,0.001000,0.001000,0.001000
1006.538462,0.018924,0.001000,0.001000,0.001000,0.001000,0.001000
1006.557692,0.017688,0.001000,0.001000,0.001000,0.001000,0.001000
1006.576923,0.016438,0.001000,0.001000,0.001000,0.001000,0.001000
1006.596154,0.015178,0.001000,0.001000,0.001000,0.001000,0.001000
1006.615385,0.013906,0.001000,0.001000,0.001000,0.001000,0.001000
1006.634615,0.012625,0.001000,0.001000,0.001000,0.001000,0.001000
1006.653846,0.011335,0.001000,0.001000,0.001000,0.001000,0.001000
1006.673077,0.010037,0.001000,0.001000,0.001000,0.001000,0.001000
1006.692308,0.008731,0.001000,0.001000,0.001000,0.001000,0.001000
1006.711538,0.007420,0.001000,0.001000,0.001000,0.001000,0.001000
1006.730769,0.006103,0.001000,0.001000,0.001000,0.001000,0.001000
1006.750000,0.004782,0.001000,0.001000,0.001000,0.001000,0.001000
1006.769231,0.003458,0.001000,0.001000,0.001000,0.001000,0.001000
1006.788462,0.002131,0.001000,0.001000,0.001000,0.001000,0.001000
1006.807692,0.000803,0.001000,0.001000,0.001000,0.001000,0.001000
1006.826923,-0.000526,0.001000,0.001000,0.001000,0.001000,0.001000
1006.846154,-0.001854,0.001000,0.001000,0.001000,0.001000,0.001000
1006.865385,-0.003182,0.001000,0.001000,0.001000,0.001000,0.001000
1006.884615,-0.004507,0.001000,0.001000,0.001000,0.001000,0.001000
1006.903846,-0.005828,0.001000,0.001000,0.001000,0.001000,0.001000
1006.923077,-0.007146,0.001000,0.001000,0.001000,0.001000,0.001000
1006.942308,-0.008459,0.001000,0.001000,0.001000,0.001000,0.001000
1006.961538,-0.009765,0.001000,0.001000,0.001000,0.001000,0.001000
1006.980769,-0.011065,0.001000,0.001000,0.001000,0.001000,0.001000
1007.000000,-0.012357,0.001000,0.001000,0.001000,0.001000,0.001000
1007.019231,-0.013640,0.001000,0.001000,0.001000,0.001000,0.001000
1007.038462,-0.014913,0.001000,0.001000,0.001000,0.001000,0.001000
1007.057692,-0.016177,0.001000,0.001000,0.001000,0.001000,0.001000
1007.076923,-0.017428,0.001000,0.001000,0.001000,0.001000,0.001000
1007.096154,-0.018667,0.001000,0.001000,0.001000,0.001000,0.001000
1007.115385,-0.019893,0.001000,0.001000,0.001000,0.001000,0.001000
1007.134615,-0.021105,0.001000,0.001000,0.001000,0.001000,0.001000
1007.153846,-0.022303,0.001000,0.001000,0.001000,0.001000,0.001000
1007.173077,-0.023484,0.001000,0.001000,0.001000,0.001000,0.001000
1007.192308,-0.024649,0.001000,0.001000,0.001000,0.001000,0.001000
1007.211538,-0.025796,0.001000,0.001000,0.001000,0.001000,0.001000
1007.230769,-0.026925,0.001000,0.001000,0.001000,0.001000,0.001000
1007.250000,-0.028035,0.001000,0.001000,0.001000,0.001000,0.001000
1007.269231,-0.029126,0.001000,0.001000,0.001000,0.001000,0.001000
1007.288462,-0.030195,0.001000,0.001000,0.001000,0.001000,0.001000
1007.307692,-0.031244,0.001000,0.001000,0.001000,0.001000,0.001000
1007.326923,-0.032270,0.001000,0.001000,0.001000,0.001000,0.001000
1007.346154,-0.033274,0.001000,0.001000,0.001000,0.001000,0.001000
1007.365385,-0.034254,0.001000,0.001000,0.001000,0.001000,0.001000
1007.384615,-0.035210,0.001000,0.001000,0.001000,0.001000,0.001000
1007.403846,-0.036141,0.001000,0.001000,0.001000,0.001000,0.001000
1007.423077,-0.037046,0.001000,0.001000,0.001000,0.001000,0.001000
1007.442308,-0.037926,0.001000,0.001000,0.001000,0.001000,0.001000
1007.461538,-0.038778,0.001000,0.001000,0.001000,0.001000,0.001000
1007.480769,-0.039603,0.001000,0.001000,0.001000,0.001000,0.001000
1007.500000,-0.040400,0.001000,0.001000,0.001000,0.001000,0.001000
1007.519231,-0.041169,0.001000,0.001000,0.001000,0.001000,0.001000
1007.538462,-0.041908,0.001000,0.001000,0.001000,0.001000,0.001000
1007.557692,-0.042618,0.001000,0.001000,0.001000,0.001000,0.001000
1007.576923,-0.043298,0.001000,0.001000,0.001000,0.001000,0.001000
1007.596154,-0.043947,0.001000,0.001000,0.001000,0.001000,0.001000
1007.615385,-0.044566,0.001000,0.001000,0.001000,0.001000,0.001000
1007.634615,-0.045152,0.001000,0.001000,0.001000,0.001000,0.001000
1007.653846,-0.045707,0.001000,0.001000,0.001000,0.001000,0.001000
1007.673077,-0.046230,0.001000,0.001000,0.001000,0.001000,0.001000
1007.692308,-0.046719,0.001000,0.001000,0.001000,0.001000,0.001000
1007.711538,-0.047176,0.001000,0.001000,0.001000,0.001000,0.001000
1007.730769,-0.047600,0.001000,0.001000,0.001000,0.001000,0.001000
1007.750000,-0.047990,0.001000,0.001000,0.001000,0.001000,0.001000
1007.769231,-0.048346,0.001000,0.001000,0.001000,0.001000,0.001000
1007.788462,-0.048668,0.001000,0.001000,0.001000,0.001000,0.001000
1007.807692,-0.048955,0.001000,0.001000,0.001000,0.001000,0.001000
1007.826923,-0.049208,0.001000,0.001000,0.001000,0.001000,0.001000
1007.846154,-0.049426,0.001000,0.001000,0.001000,0.001000,0.001000
1007.865385,-0.049610,0.001000,0.001000,0.001000,0.001000,0.001000
1007.884615,-0.049758,0.001000,0.001000,0.001000,0.001000,0.001000
1007.903846,-0.049871,0.001000,0.001000,0.001000,0.001000,0.001000
1007.923077,-0.049949,0.001000,0.001000,0.001000,0.001000,0.001000
1007.942308,-0.049991,0.001000,0.001000,0.001000,0.001000,0.001000
1007.961538,-0.049998,0.001000,0.001000,0.001000,0.001000,0.001000
1007.980769,-0.049970,0.001000,0.001000,0.001000,0.001000,0.001000
1008.000000,-0.049907,0.001000,0.001000,0.001000,0.001000,0.001000
1008.019231,-0.049808,0.001000,0.001000,0.001000,0.001000,0.001000
1008.038462,-0.049675,0.001000,0.001000,0.001000,0.001000,0.001000
1008.057692,-0.049506,0.001000,0.001000,0.001000,0.001000,0.001000
1008.076923,-0.049302,0.001000,0.001000,0.001000,0.001000,0.001000
1008.096154,-0.049063,0.001000,0.001000,0.001000,0.001000,0.001000
1008.115385,-0.048790,0.001000,0.001000,0.001000,0.001000,0.001000
1008.134615,-0.048482,0.001000,0.001000,0.001000,0.001000,0.001000
1008.153846,-0.048140,0.001000,0.001000,0.001000,0.001000,0.001000
1008.173077,-0.047764,0.001000,0.001000,0.001000,0.001000,0.001000
1008.192308,-0.047354,0.001000,0.001000,0.001000,0.001000,0.001000
1008.211538,-0.046911,0.001000,0.001000,0.001000,0.001000,0.001000
1008.230769,-0.046434,0.001000,0.001000,0.001000,0.001000,0.001000
1008.250000,-0.045925,0.001000,0.001000,0.001000,0.001000,0.001000
1008.269231,-0.045384,0.001000,0.001000,0.001000,0.001000,0.001000
1008.288462,-0.044810,0.001000,0.001000,0.001000,0.001000,0.001000
1008.307692,-0.044205,0.001000,0.001000,0.001000,0.001000,0.001000
1008.326923,-0.043568,0.001000,0.001000,0.001000,0.001000,0.001000
1008.346154,-0.042901,0.001000,0.001000,0.001000,0.001000,0.001000
1008.365385,-0.042203,0.001000,0.001000,0.001000,0.001000,0.001000
1008.384615,-0.041476,0.001000,0.001000,0.001000,0.001000,0.001000
1008.403846,-0.040719,0.001000,0.001000,0.001000,0.001000,0.001000
1008.423077,-0.039933,0.001000,0.001000,0.001000,0.001000,0.001000
1008.442308,-0.039120,0.001000,0.001000,0.001000,0.001000,0.001000
1008.461538,-0.038278,0.001000,0.001000,0.001000,0.001000,0.001000
1008.480769,-0.037410,0.001000,0.001000,0.001000,0.001000,0.001000
1008.500000,-0.036515,0.001000,0.001000,0.001000,0.001000,0.001000
1008.519231,-0.035594,0.001000,0.001000,0.001000,0.001000,0.001000
1008.538462,-0.034649,0.001000,0.001000,0.001000,0.001000,0.001000
1008.557692,-0.033678,0.001000,0.001000,0.001000,0.001000,0.001000
1008.576923,-0.032684,0.001000,0.001000,0.001000,0.001000,0.001000
1008.596154,-0.031667,0.001000,0.001000,0.001000,0.001000,0.001000
1008.615385,-0.030628,0.001000,0.001000,0.001000,0.001000,0.001000
1008.634615,-0.029567,0.001000,0.001000,0.001000,0.001000,0.001000
1008.653846,-0.028485,0.001000,0.001000,0.001000,0.001000,0.001000
1008.673077,-0.027383,0.001000,0.001000,0.001000,0.001000,0.001000
1008.692308,-0.026261,0.001000,0.001000,0.001000,0.001000,0.001000
1008.711538,-0.025121,0.001000,0.001000,0.001000,0.001000,0.001000
1008.730769,-0.023963,0.001000,0.001000,0.001000,0.001000,0.001000
1008.750000,-0.022789,0.001000,0.001000,0.001000,0.001000,0.001000
1008.769231,-0.021598,0.001000,0.001000,0.001000,0.001000,0.001000
1008.788462,-0.020392,0.001000,0.001000,0.001000,0.001000,0.001000
1008.807692,-0.019172,0.001000,0.001000,0.001000,0.001000,0.001000
1008.826923,-0.017938,0.001000,0.001000,0.001000,0.001000,0.001000
1008.846154,-0.016691,0.001000,0.001000,0.001000,0.001000,0.001000
1008.865385,-0.015433,0.001000,0.001000,0.001000,0.001000,0.001000
1008.884615,-0.014163,0.001000,0.001000,0.001000,0.001000,0.001000
1008.903846,-0.012884,0.001000,0.001000,0.001000,0.001000,0.001000
1008.923077,-0.011595,0.001000,0.001000,0.001000,0.001000,0.001000
1008.942308,-0.010299,0.001000,0.001000,0.001000,0.001000,0.001000
1008.961538,-0.008995,0.001000,0.001000,0.001000,0.001000,0.001000
1008.980769,-0.007685,0.001000,0.001000,0.001000,0.001000,0.001000
1009.000000,-0.006369,0.001000,0.001000,0.001000,0.001000,0.001000
1009.019231,-0.005049,0.001000,0.001000,0.001000,0.001000,0.001000
1009.038462,-0.003725,0.001000,0.001000,0.001000,0.001000,0.001000
1009.057692,-0.002399,0.001000,0.001000,0.001000,0.001000,0.001000
1009.076923,-0.001071,0.001000,0.001000,0.001000,0.001000,0.001000
1009.096154,0.000258,0.001000,0.001000,0.001000,0.001000,0.001000
1009.115385,0.001587,0.001000,0.001000,0.001000,0.001000,0.001000
1009.134615,0.002914,0.001000,0.001000,0.001000,0.001000,0.001000
1009.153846,0.004240,0.001000,0.001000,0.001000,0.001000,0.001000
1009.173077,0.005562,0.001000,0.001000,0.001000,0.001000,0.001000
1009.192308,0.006881,0.001000,0.001000,0.001000,0.001000,0.001000
1009.211538,0.008195,0.001000,0.001000,0.001000,0.001000,0.001000
1009.230769,0.009502,0.001000,0.001000,0.001000,0.001000,0.001000
1009.250000,0.010804,0.001000,0.001000,0.001000,0.001000,0.001000
1009.269231,0.012097,0.001000,0.001000,0.001000,0.001000,0.001000
1009.288462,0.013382,0.001000,0.001000,0.001000,0.001000,0.001000
1009.307692,0.014658,0.001000,0.001000,0.001000,0.001000,0.001000
1009.326923,0.015923,0.001000,0.001000,0.001000,0.001000,0.001000
1009.346154,0.017177,0.001000,0.001000,0.001000,0.001000,0.001000
1009.365385,0.018419,0.001000,0.001000,0.001000,0.001000,0.001000
1009.384615,0.019648,0.001000,0.001000,0.001000,0.001000,0.001000
1009.403846,0.020863,0.001000,0.001000,0.001000,0.001000,0.001000
1009.423077,0.022063,0.001000,0.001000,0.001000,0.001000,0.001000
1009.442308,0.023247,0.001000,0.001000,0.001000,0.001000,0.001000
1009.461538,0.024416,0.001000,0.001000,0.001000,0.001000,0.001000
1009.480769,0.025566,0.001000,0.001000,0.001000,0.001000,0.001000
1009.500000,0.026699,0.001000,0.001000,0.001000,0.001000,0.001000
1009.519231,0.027813,0.001000,0.001000,0.001000,0.001000,0.001000
1009.538462,0.028908,0.001000,0.001000,0.001000,0.001000,0.001000
1009.557692,0.029982,0.001000,0.001000,0.001000,0.001000,0.001000
1009.576923,0.031034,0.001000,0.001000,0.001000,0.001000,0.001000
1009.596154,0.032065,0.001000,0.001000,0.001000,0.001000,0.001000
1009.615385,0.033074,0.001000,0.001000,0.001000,0.001000,0.001000
1009.634615,0.034058,0.001000,0.001000,0.001000,0.001000,0.001000
1009.653846,0.035019,0.001000,0.001000,0.001000,0.001000,0.001000
1009.673077,0.035955,0.001000,0.001000,0.001000,0.001000,0.001000
1009.692308,0.036866,0.001000,0.001000,0.001000,0.001000,0.001000
1009.711538,0.037751,0.001000,0.001000,0.001000,0.001000,0.001000
1009.730769,0.038608,0.001000,0.001000,0.001000,0.001000,0.001000
1009.750000,0.039439,0.001000,0.001000,0.001000,0.001000,0.001000
1009.769231,0.040242,0.001000,0.001000,0.001000,0.001000,0.001000
1009.788462,0.041016,0.001000,0.001000,0.001000,0.001000,0.001000
1009.807692,0.041762,0.001000,0.001000,0.001000,0.001000,0.001000
1009.826923,0.042478,0.001000,0.001000,0.001000,0.001000,0.001000
1009.846154,0.043164,0.001000,0.001000,0.001000,0.001000,0.001000
1009.865385,0.043819,0.001000,0.001000,0.001000,0.001000,0.001000
1009.884615,0.044444,0.001000,0.001000,0.001000,0.001000,0.001000
1009.903846,0.045037,0.001000,0.001000,0.001000,0.001000,0.001000
1009.923077,0.045598,0.001000,0.001000,0.001000,0.001000,0.001000
1009.942308,0.046127,0.001000,0.001000,0.001000,0.001000,0.001000
1009.961538,0.046623,0.001000,0.001000,0.001000,0.001000,0.001000
1009.980769,0.047087,0.001000,0.001000,0.001000,0.001000,0.001000
1010.000000,0.047517,0.001000,0.001000,0.001000,0.001000,0.001000
1010.019231,0.047914,0.001000,0.001000,0.001000,0.001000,0.001000
1010.038462,0.048277,0.001000,0.001000,0.001000,0.001000,0.001000
1010.057692,0.048606,0.001000,0.001000,0.001000,0.001000,0.001000
1010.076923,0.048900,0.001000,0.001000,0.001000,0.001000,0.001000
1010.096154,0.049160,0.001000,0.001000,0.001000,0.001000,0.001000
1010.115385,0.049385,0.001000,0.001000,0.001000,0.001000,0.001000
1010.134615,0.049575,0.001000,0.001000,0.001000,0.001000,0.001000
1010.153846,0.049731,0.001000,0.001000,0.001000,0.001000,0.001000
1010.173077,0.049851,0.001000,0.001000,0.001000,0.001000,0.001000
1010.192308,0.049936,0.001000,0.001000,0.001000,0.001000,0.001000
1010.211538,0.049985,0.001000,0.001000,0.001000,0.001000,0.001000
1010.230769,0.050000,0.001000,0.001000,0.001000,0.001000,0.001000
1010.250000,0.049979,0.001000,0.001000,0.001000,0.001000,0.001000
1010.269231,0.049923,0.001000,0.001000,0.001000,0.001000,0.001000
1010.288462,0.049831,0.001000,0.001000,0.001000,0.001000,0.001000
1010.307692,0.049704,0.001000,0.001000,0.001000,0.001000,0.001000
1010.326923,0.049543,0.001000,0.001000,0.001000,0.001000,0.001000
1010.346154,0.049346,0.001000,0.001000,0.001000,0.001000,0.001000
1010.365385,0.049114,0.001000,0.001000,0.001000,0.001000,0.001000
1010.384615,0.048848,0.001000,0.001000,0.001000,0.001000,0.001000
1010.403846,0.048547,0.001000,0.001000,0.001000,0.001000,0.001000
1010.423077,0.048212,0.001000,0.001000,0.001000,0.001000,0.001000
1010.442308,0.047842,0.001000,0.001000,0.001000,0.001000,0.001000
1010.461538,0.047439,0.001000,0.001000,0.001000,0.001000,0.001000
1010.480769,0.047003,0.001000,0.001000,0.001000,0.001000,0.001000
1010.500000,0.046533,0.001000,0.001000,0.001000,0.001000,0.001000
1010.519231,0.046030,0.001000,0.001000,0.001000,0.001000,0.001000
1010.538462,0.045495,0.001000,0.001000,0.001000,0.001000,0.001000
1010.557692,0.044928,0.001000,0.001000,0.001000,0.001000,0.001000
1010.576923,0.044329,0.001000,0.001000,0.001000,0.001000,0.001000
1010.596154,0.043699,0.001000,0.001000,0.001000,0.001000,0.001000
1010.615385,0.043038,0.001000,0.001000,0.001000,0.001000,0.001000
1010.634615,0.042346,0.001000,0.001000,0.001000,0.001000,0.001000
1010.653846,0.041624,0.001000,0.001000,0.001000,0.001000,0.001000
1010.673077,0.040874,0.001000,0.001000,0.001000,0.001000,0.001000
1010.692308,0.040094,0.001000,0.001000,0.001000,0.001000,0.001000
1010.711538,0.039286,0.001000,0.001000,0.001000,0.001000,0.001000
1010.730769,0.038450,0.001000,0.001000,0.001000,0.001000,0.001000
1010.750000,0.037587,0.001000,0.001000,0.001000,0.001000,0.001000
1010.769231,0.036697,0.001000,0.001000,0.001000,0.001000,0.001000
1010.788462,0.035782,0.001000,0.001000,0.001000,0.001000,0.001000
1010.807692,0.034841,0.001000,0.001000,0.001000,0.001000,0.001000
1010.826923,0.033876,0.001000,0.001000,0.001000,0.001000,0.001000
1010.846154,0.032887,0.001000,0.001000,0.001000,0.001000,0.001000
1010.865385,0.031874,0.001000,0.001000,0.001000,0.001000,0.001000
1010.884615,0.030839,0.001000,0.001000,0.001000,0.001000,0.001000
1010.903846,0.029782,0.001000,0.001000,0.001000,0.001000,0.001000
1010.923077,0.028704,0.001000,0.001000,0.001000,0.001000,0.001000
1010.942308,0.027606,0.001000,0.001000,0.001000,0.001000,0.001000
1010.961538,0.026489,0.001000,0.001000,0.001000,0.001000,0.001000
1010.980769,0.025352,0.001000,0.001000,0.001000,0.001000,0.001000
1011.000000,0.024198,0.001000,0.001000,0.001000,0.001000,0.001000
1011.019231,0.023027,0.001000,0.001000,0.001000,0.001000,0.001000
1011.038462,0.021839,0.001000,0.001000,0.001000,0.001000,0.001000
1011.057692,0.020636,0.001000,0.001000,0.001000,0.001000,0.001000
1011.076923,0.019419,0.001000,0.001000,0.001000,0.001000,0.001000
1011.096154,0.018187,0.001000,0.001000,0.001000,0.001000,0.001000
1011.115385,0.016943,0.001000,0.001000,0.001000,0.001000,0.001000
1011.134615,0.015687,0.001000,0.001000,0.001000,0.001000,0.001000
1011.153846,0.014420,0.001000,0.001000,0.001000,0.001000,0.001000
1011.173077,0.013142,0.001000,0.001000,0.001000,0.001000,0.001000
1011.192308,0.011856,0.001000,0.001000,0.001000,0.001000,0.001000
1011.211538,0.010561,0.001000,0.001000,0.001000,0.001000,0.001000
1011.230769,0.009258,0.001000,0.001000,0.001000,0.001000,0.001000
1011.250000,0.007949,0.001000,0.001000,0.001000,0.001000,0.001000
1011.269231,0.006634,0.001000,0.001000,0.001000,0.001000,0.001000
1011.288462,0.005315,0.001000,0.001000,0.001000,0.001000,0.001000
1011.307692,0.003992,0.001000,0.001000,0.001000,0.001000,0.001000
1011.326923,0.002666,0.001000,0.001000,0.001000,0.001000,0.001000
1011.346154,0.001338,0.001000,0.001000,0.001000,0.001000,0.001000
1011.365385,0.000009,0.001000,0.001000,0.001000,0.001000,0.001000
1011.384615,-0.001319,0.001000,0.001000,0.001000,0.001000,0.001000
1011.403846,-0.002647,0.001000,0.001000,0.001000,0.001000,0.001000
1011.423077,-0.003973,0.001000,0.001000,0.001000,0.001000,0.001000
1011.442308,-0.005296,0.001000,0.001000,0.001000,0.001000,0.001000
1011.461538,-0.006616,0.001000,0.001000,0.001000,0.001000,0.001000
1011.480769,-0.007930,0.001000,0.001000,0.001000,0.001000,0.001000
1011.500000,-0.009240,0.001000,0.001000,0.001000,0.001000,0.001000
1011.519231,-0.010542,0.001000,0.001000,0.001000,0.001000,0.001000
1011.538462,-0.011837,0.001000,0.001000,0.001000,0.001000,0.001000
1011.557692,-0.013124,0.001000,0.001000,0.001000,0.001000,0.001000
1011.576923,-0.014402,0.001000,0.001000,0.001000,0.001000,0.001000
1011.596154,-0.015669,0.001000,0.001000,0.001000,0.001000,0.001000
1011.615385,-0.016925,0.001000,0.001000,0.001000,0.001000,0.001000
1011.634615,-0.018170,0.001000,0.001000,0.001000,0.001000,0.001000
1011.653846,-0.019401,0.001000,0.001000,0.001000,0.001000,0.001000
1011.673077,-0.020619,0.001000,0.001000,0.001000,0.001000,0.001000
1011.692308,-0.021822,0.001000,0.001000,0.001000,0.001000,0.001000
1011.711538,-0.023010,0.001000,0.001000,0.001000,0.001000,0.001000
1011.730769,-0.024182,0.001000,0.001000,0.001000,0.001000,0.001000
1011.750000,-0.025336,0.001000,0.001000,0.001000,0.001000,0.001000
1011.769231,-0.026473,0.001000,0.001000,0.001000,0.001000,0.001000
1011.788462,-0.027591,0.001000,0.001000,0.001000,0.001000,0.001000
1011.807692,-0.028689,0.001000,0.001000,0.001000,0.001000,0.001000
1011.826923,-0.029767,0.001000,0.001000,0.001000,0.001000,0.001000
1011.846154,-0.030824,0.001000,0.001000,0.001000,0.001000,0.001000
1011.865385,-0.031860,0.001000,0.001000,0.001000,0.001000,0.001000
1011.884615,-0.032872,0.001000,0.001000,0.001000,0.001000,0.001000
1011.903846,-0.033862,0.001000,0.001000,0.001000,0.001000,0.001000
1011.923077,-0.034828,0.001000,0.001000,0.001000,0.001000,0.001000
1011.942308,-0.035769,0.001000,0.001000,0.001000,0.001000,0.001000
1011.961538,-0.036685,0.001000,0.001000,0.001000,0.001000,0.001000
1011.980769,-0.037574,0.001000,0.001000,0.001000,0.001000,0.001000
1012.000000,-0.038438,0.001000,0.001000,0.001000,0.001000,0.001000
1012.019231,-0.039274,0.001000,0.001000,0.001000,0.001000,0.001000
1012.038462,-0.040083,0.001000,0.001000,0.001000,0.001000,0.001000
1012.057692,-0.040863,0.001000,0.001000,0.001000,0.001000,0.001000
1012.076923,-0.041614,0.001000,0.001000,0.001000,0.001000,0.001000
1012.096154,-0.042336,0.001000,0.001000,0.001000,0.001000,0.001000
1012.115385,-0.043028,0.001000,0.001000,0.001000,0.001000,0.001000
1012.134615,-0.043690,0.001000,0.001000,0.001000,0.001000,0.001000
1012.153846,-0.044320,0.001000,0.001000,0.001000,0.001000,0.001000
1012.173077,-0.044920,0.001000,0.001000,0.001000,0.001000,0.001000
1012.192308,-0.045487,0.001000,0.001000,0.001000,0.001000,0.001000
1012.211538,-0.046023,0.001000,0.001000,0.001000,0.001000,0.001000
1012.230769,-0.046526,0.001000,0.001000,0.001000,0.001000,0.001000
1012.250000,-0.046996,0.001000,0.001000,0.001000,0.001000,0.001000
1012.269231,-0.047433,0.001000,0.001000,0.001000,0.001000,0.001000
1012.288462,-0.047837,0.001000,0.001000,0.001000,0.001000,0.001000
1012.307692,-0.048207,0.001000,0.001000,0.001000,0.001000,0.001000
1012.326923,-0.048542,0.001000,0.001000,0.001000,0.001000,0.001000
1012.346154,-0.048844,0.001000,0.001000,0.001000,0.001000,0.001000
1012.365385,-0.049110,0.001000,0.001000,0.001000,0.001000,0.001000
1012.384615,-0.049343,0.001000,0.001000,0.001000,0.001000,0.001000
1012.403846,-0.049540,0.001000,0.001000,0.001000,0.001000,0.001000
1012.423077,-0.049702,0.001000,0.001000,0.001000,0.001000,0.001000
1012.442308,-0.049830,0.001000,0.001000,0.001000,0.001000,0.001000
1012.461538,-0.049922,0.001000,0.001000,0.001000,0.001000,0.001000
1012.480769,-0.049978,0.001000,0.001000,0.001000,0.001000,0.001000
1012.500000,-0.050000,0.001000,0.001000,0.001000,0.001000,0.001000
1012.519231,-0.049986,0.001000,0.001000,0.001000,0.001000,0.001000
1012.538462,-0.049937,0.001000,0.001000,0.001000,0.001000,0.001000
1012.557692,-0.049852,0.001000,0.001000,0.001000,0.001000,0.001000
1012.576923,-0.049733,0.001000,0.001000,0.001000,0.001000,0.001000
1012.596154,-0.049578,0.001000,0.001000,0.001000,0.001000,0.001000
1012.615385,-0.049388,0.001000,0.001000,0.001000,0.001000,0.001000
1012.634615,-0.049163,0.001000,0.001000,0.001000,0.001000,0.001000
1012.653846,-0.048904,0.001000,0.001000,0.001000,0.001000,0.001000
1012.673077,-0.048610,0.001000,0.001000,0.001000,0.001000,0.001000
1012.692308,-0.048282,0.001000,0.001000,0.001000,0.001000,0.001000
1012.711538,-0.047919,0.001000,0.001000,0.001000,0.001000,0.001000
1012.730769,-0.047523,0.001000,0.001000,0.001000,0.001000,0.001000
1012.750000,-0.047093,0.001000,0.001000,0.001000,0.001000,0.001000
1012.769231,-0.046630,0.001000,0.001000,0.001000,0.001000,0.001000
1012.788462,-0.046134,0.001000,0.001000,0.001000,0.001000,0.001000
1012.807692,-0.045606,0.001000,0.001000,0.001000,0.001000,0.001000
1012.826923,-0.045045,0.001000,0.001000,0.001000,0.001000,0.001000
1012.846154,-0.044452,0.001000,0.001000,0.001000,0.001000,0.001000
1012.865385,-0.043828,0.001000,0.001000,0.001000,0.001000,0.001000
1012.884615,-0.043173,0.001000,0.001000,0.001000,0.001000,0.001000
1012.903846,-0.042488,0.001000,0.001000,0.001000,0.001000,0.001000
1012.923077,-0.041772,0.001000,0.001000,0.001000,0.001000,0.001000
1012.942308,-0.041027,0.001000,0.001000,0.001000,0.001000,0.001000
1012.961538,-0.040253,0.001000,0.001000,0.001000,0.001000,0.001000
1012.980769,-0.039451,0.001000,0.001000,0.001000,0.001000,0.001000
1013.000000,-0.038620,0.001000,0.001000,0.001000,0.001000,0.001000
1013.019231,-0.037763,0.001000,0.001000,0.001000,0.001000,0.001000
1013.038462,-0.036879,0.001000,0.001000,0.001000,0.001000,0.001000
1013.057692,-0.035968,0.001000,0.001000,0.001000,0.001000,0.001000
1013.076923,-0.035033,0.001000,0.001000,0.001000,0.001000,0.001000
1013.096154,-0.034072,0.001000,0.001000,0.001000,0.001000,0.001000
1013.115385,-0.033088,0.001000,0.001000,0.001000,0.001000,0.001000
1013.134615,-0.032080,0.001000,0.001000,0.001000,0.001000,0.001000
1013.153846,-0.031049,0.001000,0.001000,0.001000,0.001000,0.001000
1013.173077,-0.029997,0.001000,0.001000,0.001000,0.001000,0.001000
1013.192308,-0.028923,0.001000,0.001000,0.001000,0.001000,0.001000
1013.211538,-0.027829,0.001000,0.001000,0.001000,0.001000,0.001000
1013.230769,-0.026715,0.001000,0.001000,0.001000,0.001000,0.001000
1013.250000,-0.025583,0.001000,0.001000,0.001000,0.001000,0.001000
1013.269231,-0.024432,0.001000,0.001000,0.001000,0.001000,0.001000
1013.288462,-0.023264,0.001000,0.001000,0.001000,0.001000,0.001000
1013.307692,-0.022080,0.001000,0.001000,0.001000,0.001000,0.001000
1013.326923,-0.020880,0.001000,0.001000,0.001000,0.001000,0.001000
1013.346154,-0.019665,0.001000,0.001000,0.001000,0.001000,0.001000
1013.365385,-0.018436,0.001000,0.001000,0.001000,0.001000,0.001000
1013.384615,-0.017195,0.001000,0.001000,0.001000,0.001000,0.001000
1013.403846,-0.015941,0.001000,0.001000,0.001000,0.001000,0.001000
1013.423077,-0.014676,0.001000,0.001000,0.001000,0.001000,0.001000
1013.442308,-0.013400,0.001000,0.001000,0.001000,0.001000,0.001000
1013.461538,-0.012116,0.001000,0.001000,0.001000,0.001000,0.001000
1013.480769,-0.010822,0.001000,0.001000,0.001000,0.001000,0.001000
1013.500000,-0.009521,0.001000,0.001000,0.001000,0.001000,0.001000
1013.519231,-0.008213,0.001000,0.001000,0.001000,0.001000,0.001000
1013.538462,-0.006900,0.001000,0.001000,0.001000,0.001000,0.001000
1013.557692,-0.005581,0.001000,0.001000,0.001000,0.001000,0.001000
1013.576923,-0.004259,0.001000,0.001000,0.001000,0.001000,0.001000
1013.596154,-0.002933,0.001000,0.001000,0.001000,0.001000,0.001000
1013.615385,-0.001606,0.001000,0.001000,0.001000,0.001000,0.001000
1013.634615,-0.000277,0.001000,0.001000,0.001000,0.001000,0.001000
1013.653846,0.001052,0.001000,0.001000,0.001000,0.001000,0.001000
1013.673077,0.002380,0.001000,0.001000,0.001000,0.001000,0.001000
1013.692308,0.003706,0.001000,0.001000,0.001000,0.001000,0.001000
1013.711538,0.005030,0.001000,0.001000,0.001000,0.001000,0.001000
1013.730769,0.006350,0.001000,0.001000,0.001000,0.001000,0.001000
1013.750000,0.007666,0.001000,0.001000,0.001000,0.001000,0.001000
1013.769231,0.008976,0.001000,0.001000,0.001000,0.001000,0.001000
1013.788462,0.010280,0.001000,0.001000,0.001000,0.001000,0.001000
1013.807692,0.011577,0.001000,0.001000,0.001000,0.001000,0.001000
1013.826923,0.012866,0.001000,0.001000,0.001000,0.001000,0.001000
1013.846154,0.014145,0.001000,0.001000,0.001000,0.001000,0.001000
1013.865385,0.015415,0.001000,0.001000,0.001000,0.001000,0.001000
1013.884615,0.016673,0.001000,0.001000,0.001000,0.001000,0.001000
1013.903846,0.017920,0.001000,0.001000,0.001000,0.001000,0.001000
1013.923077,0.019154,0.001000,0.001000,0.001000,0.001000,0.001000
1013.942308,0.020375,0.001000,0.001000,0.001000,0.001000,0.001000
1013.961538,0.021581,0.001000,0.001000,0.001000,0.001000,0.001000
1013.980769,0.022772,0.001000,0.001000,0.001000,0.001000,0.001000
1014.000000,0.023947,0.001000,0.001000,0.001000,0.001000,0.001000
1014.019231,0.025105,0.001000,0.001000,0.001000,0.001000,0.001000
1014.038462,0.026245,0.001000,0.001000,0.001000,0.001000,0.001000
1014.057692,0.027367,0.001000,0.001000,0.001000,0.001000,0.001000
1014.076923,0.028469,0.001000,0.001000,0.001000,0.001000,0.001000
1014.096154,0.029552,0.001000,0.001000,0.001000,0.001000,0.001000
1014.115385,0.030613,0.001000,0.001000,0.001000,0.001000,0.001000
1014.134615,0.031653,0.001000,0.001000,0.001000,0.001000,0.001000
1014.153846,0.032670,0.001000,0.001000,0.001000,0.001000,0.001000
1014.173077,0.033665,0.001000,0.001000,0.001000,0.001000,0.001000
1014.192308,0.034635,0.001000,0.001000,0.001000,0.001000,0.001000
1014.211538,0.035581,0.001000,0.001000,0.001000,0.001000,0.001000
1014.230769,0.036502,0.001000,0.001000,0.001000,0.001000,0.001000
1014.250000,0.037397,0.001000,0.001000,0.001000,0.001000,0.001000
1014.269231,0.038266,0.001000,0.001000,0.001000,0.001000,0.001000
1014.288462,0.039108,0.001000,0.001000,0.001000,0.001000,0.001000
1014.307692,0.039922,0.001000,0.001000,0.001000,0.001000,0.001000
1014.326923,0.040708,0.001000,0.001000,0.001000,0.001000,0.001000
1014.346154,0.041465,0.001000,0.001000,0.001000,0.001000,0.001000
1014.365385,0.042193,0.001000,0.001000,0.001000,0.001000,0.001000
1014.384615,0.042891,0.001000,0.001000,0.001000,0.001000,0.001000
1014.403846,0.043559,0.001000,0.001000,0.001000,0.001000,0.001000
1014.423077,0.044196,0.001000,0.001000,0.001000,0.001000,0.001000
1014.442308,0.044802,0.001000,0.001000,0.001000,0.001000,0.001000
1014.461538,0.045376,0.001000,0.001000,0.001000,0.001000,0.001000
1014.480769,0.045918,0.001000,0.001000,0.001000,0.001000,0.001000
1014.500000,0.046427,0.001000,0.001000,0.001000,0.001000,0.001000
1014.519231,0.046904,0.001000,0.001000,0.001000,0.001000,0.001000
1014.538462,0.047348,0.001000,0.001000,0.001000,0.001000,0.001000
1014.557692,0.047758,0.001000,0.001000,0.001000,0.001000,0.001000
1014.576923,0.048135,0.001000,0.001000,0.001000,0.001000,0.001000
1014.596154,0.048477,0.001000,0.001000,0.001000,0.001000,0.001000
1014.615385,0.048786,0.001000,0.001000,0.001000,0.001000,0.001000
1014.634615,0.049059,0.001000,0.001000,0.001000,0.001000,0.001000
1014.653846,0.049299,0.001000,0.001000,0.001000,0.001000,0.001000
1014.673077,0.049503,0.001000,0.001000,0.001000,0.001000,0.001000
1014.692308,0.049672,0.001000,0.001000,0.001000,0.001000,0.001000
1014.711538,0.049807,0.001000,0.001000,0.001000,0.001000,0.001000
1014.730769,0.049906,0.001000,0.001000,0.001000,0.001000,0.001000
1014.750000,0.049970,0.001000,0.001000,0.001000,0.001000,0.001000
1014.769231,0.049998,0.001000,0.001000,0.001000,0.001000,0.001000
1014.788462,0.049992,0.001000,0.001000,0.001000,0.001000,0.001000
1014.807692,0.049950,0.001000,0.001000,0.001000,0.001000,0.001000
1014.826923,0.049872,0.001000,0.001000,0.001000,0.001000,0.001000
1014.846154,0.049760,0.001000,0.001000,0.001000,0.001000,0.001000
1014.865385,0.049612,0.001000,0.001000,0.001000,0.001000,0.001000
1014.884615,0.049429,0.001000,0.001000,0.001000,0.001000,0.001000
1014.903846,0.049211,0.001000,0.001000,0.001000,0.001000,0.001000
1014.923077,0.048959,0.001000,0.001000,0.001000,0.001000,0.001000
1014.942308,0.048672,0.001000,0.001000,0.001000,0.001000,0.001000
1014.961538,0.048351,0.001000,0.001000,0.001000,0.001000,0.001000
1014.980769,0.047995,0.001000,0.001000,0.001000,0.001000,0.001000
1015.000000,0.047606,0.001000,0.001000,0.001000,0.001000,0.001000
1015.019231,0.047183,0.001000,0.001000,0.001000,0.001000,0.001000
1015.038462,0.046726,0.001000,0.001000,0.001000,0.001000,0.001000
1015.057692,0.046237,0.001000,0.001000,0.001000,0.001000,0.001000
1015.076923,0.045715,0.001000,0.001000,0.001000,0.001000,0.001000
1015.096154,0.045160,0.001000,0.001000,0.001000,0.001000,0.001000
1015.115385,0.044574,0.001000,0.001000,0.001000,0.001000,0.001000
1015.134615,0.043956,0.001000,0.001000,0.001000,0.001000,0.001000
1015.153846,0.043308,0.001000,0.001000,0.001000,0.001000,0.001000
1015.173077,0.042628,0.001000,0.001000,0.001000,0.001000,0.001000
1015.192308,0.041919,0.001000,0.001000,0.001000,0.001000,0.001000
1015.211538,0.041180,0.001000,0.001000,0.001000,0.001000,0.001000
1015.230769,0.040411,0.001000,0.001000,0.001000,0.001000,0.001000
1015.250000,0.039615,0.001000,0.001000,0.001000,0.001000,0.001000
1015.269231,0.038790,0.001000,0.001000,0.001000,0.001000,0.001000
1015.288462,0.037938,0.001000,0.001000,0.001000,0.001000,0.001000
1015.307692,0.037059,0.001000,0.001000,0.001000,0.001000,0.001000
1015.326923,0.036154,0.001000,0.001000,0.001000,0.001000,0.001000
1015.346154,0.035223,0.001000,0.001000,0.001000,0.001000,0.001000
1015.365385,0.034268,0.001000,0.001000,0.001000,0.001000,0.001000
1015.384615,0.033288,0.001000,0.001000,0.001000,0.001000,0.001000
1015.403846,0.032285,0.001000,0.001000,0.001000,0.001000,0.001000
1015.423077,0.031259,0.001000,0.001000,0.001000,0.001000,0.001000
1015.442308,0.030211,0.001000,0.001000,0.001000,0.001000,0.001000
1015.461538,0.029141,0.001000,0.001000,0.001000,0.001000,0.001000
1015.480769,0.028051,0.001000,0.001000,0.001000,0.001000,0.001000
1015.500000,0.026941,0.001000,0.001000,0.001000,0.001000,0.001000
1015.519231,0.025812,0.001000,0.001000,0.001000,0.001000,0.001000
1015.538462,0.024665,0.001000,0.001000,0.001000,0.001000,0.001000
1015.557692,0.023501,0.001000,0.001000,0.001000,0.001000,0.001000
1015.576923,0.022319,0.001000,0.001000,0.001000,0.001000,0.001000
1015.596154,0.021123,0.001000,0.001000,0.001000,0.001000,0.001000
1015.615385,0.019911,0.001000,0.001000,0.001000,0.001000,0.001000
1015.634615,0.018685,0.001000,0.001000,0.001000,0.001000,0.001000
1015.653846,0.017446,0.001000,0.001000,0.001000,0.001000,0.001000
1015.673077,0.016194,0.001000,0.001000,0.001000,0.001000,0.001000
1015.692308,0.014931,0.001000,0.001000,0.001000,0.001000,0.001000
1015.711538,0.013658,0.001000,0.001000,0.001000,0.001000,0.001000
1015.730769,0.012375,0.001000,0.001000,0.001000,0.001000,0.001000
1015.750000,0.011083,0.001000,0.001000,0.001000,0.001000,0.001000
1015.769231,0.009784,0.001000,0.001000,0.001000,0.001000,0.001000
1015.788462,0.008477,0.001000,0.001000,0.001000,0.001000,0.001000
1015.807692,0.007165,0.001000,0.001000,0.001000,0.001000,0.001000
1015.826923,0.005847,0.001000,0.001000,0.001000,0.001000,0.001000
1015.846154,0.004525,0.001000,0.001000,0.001000,0.001000,0.001000
1015.865385,0.003200,0.001000,0.001000,0.001000,0.001000,0.001000
1015.884615,0.001873,0.001000,0.001000,0.001000,0.001000,0.001000
1015.903846,0.000545,0.001000,0.001000,0.001000,0.001000,0.001000
1015.923077,-0.000784,0.001000,0.001000,0.001000,0.001000,0.001000
1015.942308,-0.002112,0.001000,0.001000,0.001000,0.001000,0.001000
1015.961538,-0.003439,0.001000,0.001000,0.001000,0.001000,0.001000
1015.980769,-0.004764,0.001000,0.001000,0.001000,0.001000,0.001000
1016.000000,-0.006085,0.001000,0.001000,0.001000,0.001000,0.001000
1016.019231,-0.007401,0.001000,0.001000,0.001000,0.001000,0.001000
1016.038462,-0.008713,0.001000,0.001000,0.001000,0.001000,0.001000
1016.057692,-0.010018,0.001000,0.001000,0.001000,0.001000,0.001000
1016.076923,-0.011317,0.001000,0.001000,0.001000,0.001000,0.001000
1016.096154,-0.012607,0.001000,0.001000,0.001000,0.001000,0.001000
1016.115385,-0.013888,0.001000,0.001000,0.001000,0.001000,0.001000
1016.134615,-0.015160,0.001000,0.001000,0.001000,0.001000,0.001000
1016.153846,-0.016421,0.001000,0.001000,0.001000,0.001000,0.001000
1016.173077,-0.017670,0.001000,0.001000,0.001000,0.001000,0.001000
1016.192308,-0.018907,0.001000,0.001000,0.001000,0.001000,0.001000
1016.211538,-0.020130,0.001000,0.001000,0.001000,0.001000,0.001000
1016.230769,-0.021339,0.001000,0.001000,0.001000,0.001000,0.001000
1016.250000,-0.022533,0.001000,0.001000,0.001000,0.001000,0.001000
1016.269231,-0.023712,0.001000,0.001000,0.001000,0.001000,0.001000
1016.288462,-0.024873,0.001000,0.001000,0.001000,0.001000,0.001000
1016.307692,-0.026017,0.001000,0.001000,0.001000,0.001000,0.001000
1016.326923,-0.027143,0.001000,0.001000,0.001000,0.001000,0.001000
1016.346154,-0.028249,0.001000,0.001000,0.001000,0.001000,0.001000
1016.365385,-0.029335,0.001000,0.001000,0.001000,0.001000,0.001000
1016.384615,-0.030401,0.001000,0.001000,0.001000,0.001000,0.001000
1016.403846,-0.031445,0.001000,0.001000,0.001000,0.001000,0.001000
1016.423077,-0.032467,0.001000,0.001000,0.001000,0.001000,0.001000
1016.442308,-0.033466,0.001000,0.001000,0.001000,0.001000,0.001000
1016.461538,-0.034442,0.001000,0.001000,0.001000,0.001000,0.001000
1016.480769,-0.035393,0.001000,0.001000,0.001000,0.001000,0.001000
1016.500000,-0.036319,0.001000,0.001000,0.001000,0.001000,0.001000
1016.519231,-0.037219,0.001000,0.001000,0.001000,0.001000,0.001000
1016.538462,-0.038093,0.001000,0.001000,0.001000,0.001000,0.001000
1016.557692,-0.038941,0.001000,0.001000,0.001000,0.001000,0.001000
1016.576923,-0.039760,0.001000,0.001000,0.001000,0.001000,0.001000
1016.596154,-0.040552,0.001000,0.001000,0.001000,0.001000,0.001000
1016.615385,-0.041315,0.001000,0.001000,0.001000,0.001000,0.001000
1016.634615,-0.042049,0.001000,0.001000,0.001000,0.001000,0.001000
1016.653846,-0.042753,0.001000,0.001000,0.001000,0.001000,0.001000
1016.673077,-0.043427,0.001000,0.001000,0.001000,0.001000,0.001000
1016.692308,-0.044070,0.001000,0.001000,0.001000,0.001000,0.001000
1016.711538,-0.044682,0.001000,0.001000,0.001000,0.001000,0.001000
1016.730769,-0.045263,0.001000,0.001000,0.001000,0.001000,0.001000
1016.750000,-0.045811,0.001000,0.001000,0.001000,0.001000,0.001000
1016.769231,-0.046327,0.001000,0.001000,0.001000,0.001000,0.001000
1016.788462,-0.046811,0.001000,0.001000,0.001000,0.001000,0.001000
1016.807692,-0.047261,0.001000,0.001000,0.001000,0.001000,0.001000
1016.826923,-0.047678,0.001000,0.001000,0.001000,0.001000,0.001000
1016.846154,-0.048062,0.001000,0.001000,0.001000,0.001000,0.001000
1016.865385,-0.048411,0.001000,0.001000,0.001000,0.001000,0.001000
1016.884615,-0.048726,0.001000,0.001000,0.001000,0.001000,0.001000
1016.903846,-0.049007,0.001000,0.001000,0.001000,0.001000,0.001000
1016.923077,-0.049253,0.001000,0.001000,0.001000,0.001000,0.001000
1016.942308,-0.049465,0.001000,0.001000,0.001000,0.001000,0.001000
1016.961538,-0.049641,0.001000,0.001000,0.001000,0.001000,0.001000
1016.980769,-0.049783,0.001000,0.001000,0.001000,0.001000,0.001000
1017.000000,-0.049889,0.001000,0.001000,0.001000,0.001000,0.001000
1017.019231,-0.049960,0.001000,0.001000,0.001000,0.001000,0.001000
1017.038462,-0.049995,0.001000,0.001000,0.001000,0.001000,0.001000
1017.057692,-0.049996,0.001000,0.001000,0.001000,0.001000,0.001000
1017.076923,-0.049961,0.001000,0.001000,0.001000,0.001000,0.001000
1017.096154,-0.049891,0.001000,0.001000,0.001000,0.001000,0.001000
1017.115385,-0.049785,0.001000,0.001000,0.001000,0.001000,0.001000
1017.134615,-0.049644,0.001000,0.001000,0.001000,0.001000,0.001000
1017.153846,-0.049469,0.001000,0.001000,0.001000,0.001000,0.001000
1017.173077,-0.049258,0.001000,0.001000,0.001000,0.001000,0.001000
1017.192308,-0.049013,0.001000,0.001000,0.001000,0.001000,0.001000
1017.211538,-0.048733,0.001000,0.001000,0.001000,0.001000,0.001000
1017.230769,-0.048418,0.001000,0.001000,0.001000,0.001000,0.001000
1017.250000,-0.048069,0.001000,0.001000,0.001000,0.001000,0.001000
1017.269231,-0.047687,0.001000,0.001000,0.001000,0.001000,0.001000
1017.288462,-0.047270,0.001000,0.001000,0.001000,0.001000,0.001000
1017.307692,-0.046821,0.001000,0.001000,0.001000,0.001000,0.001000
1017.326923,-0.046338,0.001000,0.001000,0.001000,0.001000,0.001000
1017.346154,-0.045822,0.001000,0.001000,0.001000,0.001000,0.001000
1017.365385,-0.045275,0.001000,0.001000,0.001000,0.001000,0.001000
1017.384615,-0.044695,0.001000,0.001000,0.001000,0.001000,0.001000
1017.403846,-0.044083,0.001000,0.001000,0.001000,0.001000,0.001000
1017.423077,-0.043441,0.001000,0.001000,0.001000,0.001000,0.001000
1017.442308,-0.042767,0.001000,0.001000,0.001000,0.001000,0.001000
1017.461538,-0.042064,0.001000,0.001000,0.001000,0.001000,0.001000
1017.480769,-0.041331,0.001000,0.001000,0.001000,0.001000,0.001000
1017.500000,-0.040568,0.001000,0.001000,0.001000,0.001000,0.001000
1017.519231,-0.039777,0.001000,0.001000,0.001000,0.001000,0.001000
1017.538462,-0.038958,0.001000,0.001000,0.001000,0.001000,0.001000
1017.557692,-0.038112,0.001000,0.001000,0.001000,0.001000,0.001000
1017.576923,-0.037238,0.001000,0.001000,0.001000,0.001000,0.001000
1017.596154,-0.036338,0.001000,0.001000,0.001000,0.001000,0.001000
1017.615385,-0.035413,0.001000,0.001000,0.001000,0.001000,0.001000
1017.634615,-0.034462,0.001000,0.001000,0.001000,0.001000,0.001000
1017.653846,-0.033487,0.001000,0.001000,0.001000,0.001000,0.001000
1017.673077,-0.032489,0.001000,0.001000,0.001000,0.001000,0.001000
1017.692308,-0.031467,0.001000,0.001000,0.001000,0.001000,0.001000
1017.711538,-0.030423,0.001000,0.001000,0.001000,0.001000,0.001000
1017.730769,-0.029358,0.001000,0.001000,0.001000,0.001000,0.001000
1017.750000,-0.028272,0.001000,0.001000,0.001000,0.001000,0.001000
1017.769231,-0.027166,0.001000,0.001000,0.001000,0.001000,0.001000
1017.788462,-0.026041,0.001000,0.001000,0.001000,0.001000,0.001000
1017.807692,-0.024898,0.001000,0.001000,0.001000,0.001000,0.001000
1017.826923,-0.023737,0.001000,0.001000,0.001000,0.001000,0.001000
1017.846154,-0.022559,0.001000,0.001000,0.001000,0.001000,0.001000
1017.865385,-0.021365,0.001000,0.001000,0.001000,0.001000,0.001000
1017.884615,-0.020156,0.001000,0.001000,0.001000,0.001000,0.001000
1017.903846,-0.018933,0.001000,0.001000,0.001000,0.001000,0.001000
1017.923077,-0.017696,0.001000,0.001000,0.001000,0.001000,0.001000
1017.942308,-0.016447,0.001000,0.001000,0.001000,0.001000,0.001000
1017.961538,-0.015187,0.001000,0.001000,0.001000,0.001000,0.001000
1017.980769,-0.013915,0.001000,0.001000,0.001000,0.001000,0.001000
1018.000000,-0.012634,0.001000,0.001000,0.001000,0.001000,0.001000
1018.019231,-0.011344,0.001000,0.001000,0.001000,0.001000,0.001000
1018.038462,-0.010046,0.001000,0.001000,0.001000,0.001000,0.001000
1018.057692,-0.008741,0.001000,0.001000,0.001000,0.001000,0.001000
1018.076923,-0.007429,0.001000,0.001000,0.001000,0.001000,0.001000
1018.096154,-0.006113,0.001000,0.001000,0.001000,0.001000,0.001000
1018.115385,-0.004792,0.001000,0.001000,0.001000,0.001000,0.001000
1018.134615,-0.003467,0.001000,0.001000,0.001000,0.001000,0.001000
1018.153846,-0.002141,0.001000,0.001000,0.001000,0.001000,0.001000
1018.173077,-0.000812,0.001000,0.001000,0.001000,0.001000,0.001000
1018.192308,0.000516,0.001000,0.001000,0.001000,0.001000,0.001000
1018.211538,0.001845,0.001000,0.001000,0.001000,0.001000,0.001000
1018.230769,0.003172,0.001000,0.001000,0.001000,0.001000,0.001000
1018.250000,0.004497,0.001000,0.001000,0.001000,0.001000,0.001000
1018.269231,0.005819,0.001000,0.001000,0.001000,0.001000,0.001000
1018.288462,0.007137,0.001000,0.001000,0.001000,0.001000,0.001000
1018.307692,0.008449,0.001000,0.001000,0.001000,0.001000,0.001000
1018.326923,0.009756,0.001000,0.001000,0.001000,0.001000,0.001000
1018.346154,0.011056,0.001000,0.001000,0.001000,0.001000,0.001000
1018.365385,0.012348,0.001000,0.001000,0.001000,0.001000,0.001000
1018.384615,0.013631,0.001000,0.001000,0.001000,0.001000,0.001000
1018.403846,0.014905,0.001000,0.001000,0.001000,0.001000,0.001000
1018.423077,0.016168,0.001000,0.001000,0.001000,0.001000,0.001000
1018.442308,0.017419,0.001000,0.001000,0.001000,0.001000,0.001000
1018.461538,0.018659,0.001000,0.001000,0.001000,0.001000,0.001000
1018.480769,0.019885,0.001000,0.001000,0.001000,0.001000,0.001000
1018.500000,0.021097,0.001000,0.001000,0.001000,0.001000,0.001000
1018.519231,0.022294,0.001000,0.001000,0.001000,0.001000,0.001000
1018.538462,0.023476,0.001000,0.001000,0.001000,0.001000,0.001000
1018.557692,0.024641,0.001000,0.001000,0.001000,0.001000,0.001000
1018.576923,0.025788,0.001000,0.001000,0.001000,0.001000,0.001000
1018.596154,0.026917,0.001000,0.001000,0.001000,0.001000,0.001000
1018.615385,0.028028,0.001000,0.001000,0.001000,0.001000,0.001000
1018.634615,0.029118,0.001000,0.001000,0.001000,0.001000,0.001000
1018.653846,0.030188,0.001000,0.001000,0.001000,0.001000,0.001000
1018.673077,0.031237,0.001000,0.001000,0.001000,0.001000,0.001000
1018.692308,0.032263,0.001000,0.001000,0.001000,0.001000,0.001000
1018.711538,0.033267,0.001000,0.001000,0.001000,0.001000,0.001000
1018.730769,0.034247,0.001000,0.001000,0.001000,0.001000,0.001000
1018.750000,0.035203,0.001000,0.001000,0.001000,0.001000,0.001000
1018.769231,0.036134,0.001000,0.001000,0.001000,0.001000,0.001000
1018.788462,0.037040,0.001000,0.001000,0.001000,0.001000,0.001000
1018.807692,0.037919,0.001000,0.001000,0.001000,0.001000,0.001000
1018.826923,0.038772,0.001000,0.001000,0.001000,0.001000,0.001000
1018.846154,0.039597,0.001000,0.001000,0.001000,0.001000,0.001000
1018.865385,0.040395,0.001000,0.001000,0.001000,0.001000,0.001000
1018.884615,0.041164,0.001000,0.001000,0.001000,0.001000,0.001000
1018.903846,0.041903,0.001000,0.001000,0.001000,0.001000,0.001000
1018.923077,0.042613,0.001000,0.001000,0.001000,0.001000,0.001000
1018.942308,0.043293,0.001000,0.001000,0.001000,0.001000,0.001000
1018.961538,0.043943,0.001000,0.001000,0.001000,0.001000,0.001000
1018.980769,0.044561,0.001000,0.001000,0.001000,0.001000,0.001000
1019.000000,0.045148,0.001000,0.001000,0.001000,0.001000,0.001000
1019.019231,0.045703,0.001000,0.001000,0.001000,0.001000,0.001000
1019.038462,0.046226,0.001000,0.001000,0.001000,0.001000,0.001000
1019.057692,0.046716,0.001000,0.001000,0.001000,0.001000,0.001000
1019.076923,0.047173,0.001000,0.001000,0.001000,0.001000,0.001000
1019.096154,0.047597,0.001000,0.001000,0.001000,0.001000,0.001000
1019.115385,0.047987,0.001000,0.001000,0.001000,0.001000,0.001000
1019.134615,0.048343,0.001000,0.001000,0.001000,0.001000,0.001000
1019.153846,0.048666,0.001000,0.001000,0.001000,0.001000,0.001000
1019.173077,0.048953,0.001000,0.001000,0.001000,0.001000,0.001000
1019.192308,0.049206,0.001000,0.001000,0.001000,0.001000,0.001000
1019.211538,0.049425,0.001000,0.001000,0.001000,0.001000,0.001000
1019.230769,0.049608,0.001000,0.001000,0.001000,0.001000,0.001000
1019.250000,0.049757,0.001000,0.001000,0.001000,0.001000,0.001000
1019.269231,0.049870,0.001000,0.001000,0.001000,0.001000,0.001000
1019.288462,0.049948,0.001000,0.001000,0.001000,0.001000,0.001000
1019.307692,0.049991,0.001000,0.001000,0.001000,0.001000,0.001000
1019.326923,0.049999,0.001000,0.001000,0.001000,0.001000,0.001000
1019.346154,0.049971,0.001000,0.001000,0.001000,0.001000,0.001000
1019.365385,0.049908,0.001000,0.001000,0.001000,0.001000,0.001000
1019.384615,0.049809,0.001000,0.001000,0.001000,0.001000,0.001000
1019.403846,0.049676,0.001000,0.001000,0.001000,0.001000,0.001000
1019.423077,0.049507,0.001000,0.001000,0.001000,0.001000,0.001000
1019.442308,0.049303,0.001000,0.001000,0.001000,0.001000,0.001000
1019.461538,0.049065,0.001000,0.001000,0.001000,0.001000,0.001000
1019.480769,0.048792,0.001000,0.001000,0.001000,0.001000,0.001000
1019.500000,0.048484,0.001000,0.001000,0.001000,0.001000,0.001000
1019.519231,0.048142,0.001000,0.001000,0.001000,0.001000,0.001000
1019.538462,0.047767,0.001000,0.001000,0.001000,0.001000,0.001000
1019.557692,0.047357,0.001000,0.001000,0.001000,0.001000,0.001000
1019.576923,0.046914,0.001000,0.001000,0.001000,0.001000,0.001000
1019.596154,0.046438,0.001000,0.001000,0.001000,0.001000,0.001000
1019.615385,0.045929,0.001000,0.001000,0.001000,0.001000,0.001000
1019.634615,0.045388,0.001000,0.001000,0.001000,0.001000,0.001000
1019.653846,0.044814,0.001000,0.001000,0.001000,0.001000,0.001000
1019.673077,0.044209,0.001000,0.001000,0.001000,0.001000,0.001000
1019.692308,0.043573,0.001000,0.001000,0.001000,0.001000,0.001000
1019.711538,0.042905,0.001000,0.001000,0.001000,0.001000,0.001000
1019.730769,0.042208,0.001000,0.001000,0.001000,0.001000,0.001000
1019.750000,0.041481,0.001000,0.001000,0.001000,0.001000,0.001000
1019.769231,0.040724,0.001000,0.001000,0.001000,0.001000,0.001000
1019.788462,0.039939,0.001000,0.001000,0.001000,0.001000,0.001000
1019.807692,0.039125,0.001000,0.001000,0.001000,0.001000,0.001000
1019.826923,0.038284,0.001000,0.001000,0.001000,0.001000,0.001000
1019.846154,0.037416,0.001000,0.001000,0.001000,0.001000,0.001000
1019.865385,0.036521,0.001000,0.001000,0.001000,0.001000,0.001000
1019.884615,0.035601,0.001000,0.001000,0.001000,0.001000,0.001000
1019.903846,0.034655,0.001000,0.001000,0.001000,0.001000,0.001000
1019.923077,0.033685,0.001000,0.001000,0.001000,0.001000,0.001000
1019.942308,0.032692,0.001000,0.001000,0.001000,0.001000,0.001000
1019.961538,0.031675,0.001000,0.001000,0.001000,0.001000,0.001000
1019.980769,0.030635,0.001000,0.001000,0.001000,0.001000,0.001000
1020.000000,0.029574,0.001000,0.001000,0.001000,0.001000,0.001000
1020.019231,0.028493,0.001000,0.001000,0.001000,0.001000,0.001000
1020.038462,0.027391,0.001000,0.001000,0.001000,0.001000,0.001000
1020.057692,0.026269,0.001000,0.001000,0.001000,0.001000,0.001000
1020.076923,0.025129,0.001000,0.001000,0.001000,0.001000,0.001000
1020.096154,0.023972,0.001000,0.001000,0.001000,0.001000,0.001000
1020.115385,0.022797,0.001000,0.001000,0.001000,0.001000,0.001000
1020.134615,0.021607,0.001000,0.001000,0.001000,0.001000,0.001000
1020.153846,0.020401,0.001000,0.001000,0.001000,0.001000,0.001000
1020.173077,0.019180,0.001000,0.001000,0.001000,0.001000,0.001000
1020.192308,0.017946,0.001000,0.001000,0.001000,0.001000,0.001000
1020.211538,0.016700,0.001000,0.001000,0.001000,0.001000,0.001000
1020.230769,0.015442,0.001000,0.001000,0.001000,0.001000,0.001000
1020.250000,0.014172,0.001000,0.001000,0.001000,0.001000,0.001000
1020.269231,0.012893,0.001000,0.001000,0.001000,0.001000,0.001000
1020.288462,0.011605,0.001000,0.001000,0.001000,0.001000,0.001000
1020.307692,0.010308,0.001000,0.001000,0.001000,0.001000,0.001000
1020.326923,0.009004,0.001000,0.001000,0.001000,0.001000,0.001000
1020.346154,0.007694,0.001000,0.001000,0.001000,0.001000,0.001000
1020.365385,0.006378,0.001000,0.001000,0.001000,0.001000,0.001000
1020.384615,0.005058,0.001000,0.001000,0.001000,0.001000,0.001000
1020.403846,0.003734,0.001000,0.001000,0.001000,0.001000,0.001000
1020.423077,0.002408,0.001000,0.001000,0.001000,0.001000,0.001000
1020.442308,0.001080,0.001000,0.001000,0.001000,0.001000,0.001000
1020.461538,-0.000249,0.001000,0.001000,0.001000,0.001000,0.001000
1020.480769,-0.001577,0.001000,0.001000,0.001000,0.001000,0.001000
1020.500000,-0.002905,0.001000,0.001000,0.001000,0.001000,0.001000
1020.519231,-0.004231,0.001000,0.001000,0.001000,0.001000,0.001000
1020.538462,-0.005553,0.001000,0.001000,0.001000,0.001000,0.001000
1020.557692,-0.006872,0.001000,0.001000,0.001000,0.001000,0.001000
1020.576923,-0.008185,0.001000,0.001000,0.001000,0.001000,0.001000
1020.596154,-0.009493,0.001000,0.001000,0.001000,0.001000,0.001000
1020.615385,-0.010794,0.001000,0.001000,0.001000,0.001000,0.001000
1020.634615,-0.012088,0.001000,0.001000,0.001000,0.001000,0.001000
1020.653846,-0.013373,0.001000,0.001000,0.001000,0.001000,0.001000
1020.673077,-0.014649,0.001000,0.001000,0.001000,0.001000,0.001000
1020.692308,-0.015914,0.001000,0.001000,0.001000,0.001000,0.001000
1020.711538,-0.017168,0.001000,0.001000,0.001000,0.001000,0.001000
1020.730769,-0.018410,0.001000,0.001000,0.001000,0.001000,0.001000
1020.750000,-0.019639,0.001000,0.001000,0.001000,0.001000,0.001000
1020.769231,-0.020854,0.001000,0.001000,0.001000,0.001000,0.001000
1020.788462,-0.022054,0.001000,0.001000,0.001000,0.001000,0.001000
1020.807692,-0.023239,0.001000,0.001000,0.001000,0.001000,0.001000
1020.826923,-0.024407,0.001000,0.001000,0.001000,0.001000,0.001000
1020.846154,-0.025558,0.001000,0.001000,0.001000,0.001000,0.001000
1020.865385,-0.026691,0.001000,0.001000,0.001000,0.001000,0.001000
1020.884615,-0.027806,0.001000,0.001000,0.001000,0.001000,0.001000
1020.903846,-0.028900,0.001000,0.001000,0.001000,0.001000,0.001000
1020.923077,-0.029974,0.001000,0.001000,0.001000,0.001000,0.001000
1020.942308,-0.031027,0.001000,0.001000,0.001000,0.001000,0.001000
1020.961538,-0.032058,0.001000,0.001000,0.001000,0.001000,0.001000
1020.980769,-0.033067,0.001000,0.001000,0.001000,0.001000,0.001000
1021.000000,-0.034052,0.001000,0.001000,0.001000,0.001000,0.001000
1021.019231,-0.035012,0.001000,0.001000,0.001000,0.001000,0.001000
1021.038462,-0.035949,0.001000,0.001000,0.001000,0.001000,0.001000
1021.057692,-0.036860,0.001000,0.001000,0.001000,0.001000,0.001000
1021.076923,-0.037744,0.001000,0.001000,0.001000,0.001000,0.001000
1021.096154,-0.038603,0.001000,0.001000,0.001000,0.001000,0.001000
1021.115385,-0.039433,0.001000,0.001000,0.001000,0.001000,0.001000
1021.134615,-0.040236,0.001000,0.001000,0.001000,0.001000,0.001000
1021.153846,-0.041011,0.001000,0.001000,0.001000,0.001000,0.001000
1021.173077,-0.041757,0.001000,0.001000,0.001000,0.001000,0.001000
1021.192308,-0.042473,0.001000,0.001000,0.001000,0.001000,0.001000
1021.211538,-0.043159,0.001000,0.001000,0.001000,0.001000,0.001000
1021.230769,-0.043815,0.001000,0.001000,0.001000,0.001000,0.001000
1021.250000,-0.044439,0.001000,0.001000,0.001000,0.001000,0.001000
1021.269231,-0.045033,0.001000,0.001000,0.001000,0.001000,0.001000
1021.288462,-0.045594,0.001000,0.001000,0.001000,0.001000,0.001000
1021.307692,-0.046123,0.001000,0.001000,0.001000,0.001000,0.001000
1021.326923,-0.046620,0.001000,0.001000,0.001000,0.001000,0.001000
1021.346154,-0.047084,0.001000,0.001000,0.001000,0.001000,0.001000
1021.365385,-0.047514,0.001000,0.001000,0.001000,0.001000,0.001000
1021.384615,-0.047911,0.001000,0.001000,0.001000,0.001000,0.001000
1021.403846,-0.048274,0.001000,0.001000,0.001000,0.001000,0.001000
1021.423077,-0.048603,0.001000,0.001000,0.001000,0.001000,0.001000
1021.442308,-0.048898,0.001000,0.001000,0.001000,0.001000,0.001000
1021.461538,-0.049158,0.001000,0.001000,0.001000,0.001000,0.001000
1021.480769,-0.049384,0.001000,0.001000,0.001000,0.001000,0.001000
1021.500000,-0.049574,0.001000,0.001000,0.001000,0.001000,0.001000
1021.519231,-0.049730,0.001000,0.001000,0.001000,0.001000,0.001000
1021.538462,-0.049850,0.001000,0.001000,0.001000,0.001000,0.001000
1021.557692,-0.049935,0.001000,0.001000,0.001000,0.001000,0.001000
1021.576923,-0.049985,0.001000,0.001000,0.001000,0.001000,0.001000
1021.596154,-0.050000,0.001000,0.001000,0.001000,0.001000,0.001000
1021.615385,-0.049979,0.001000,0.001000,0.001000,0.001000,0.001000
1021.634615,-0.049923,0.001000,0.001000,0.001000,0.001000,0.001000
1021.653846,-0.049832,0.001000,0.001000,0.001000,0.001000,0.001000
1021.673077,-0.049705,0.001000,0.001000,0.001000,0.001000,0.001000
1021.692308,-0.049544,0.001000,0.001000,0.001000,0.001000,0.001000
1021.711538,-0.049347,0.001000,0.001000,0.001000,0.001000,0.001000
1021.730769,-0.049116,0.001000,0.001000,0.001000,0.001000,0.001000
1021.750000,-0.048850,0.001000,0.001000,0.001000,0.001000,0.001000
1021.769231,-0.048549,0.001000,0.001000,0.001000,0.001000,0.001000
1021.788462,-0.048214,0.001000,0.001000,0.001000,0.001000,0.001000
1021.807692,-0.047845,0.001000,0.001000,0.001000,0.001000,0.001000
1021.826923,-0.047442,0.001000,0.001000,0.001000,0.001000,0.001000
1021.846154,-0.047006,0.001000,0.001000,0.001000,0.001000,0.001000
1021.865385,-0.046536,0.001000,0.001000,0.001000,0.001000,0.001000
1021.884615,-0.046034,0.001000,0.001000,0.001000,0.001000,0.001000
1021.903846,-0.045499,0.001000,0.001000,0.001000,0.001000,0.001000
1021.923077,-0.044932,0.001000,0.001000,0.001000,0.001000,0.001000
1021.942308,-0.044333,0.001000,0.001000,0.001000,0.001000,0.001000
1021.961538,-0.043703,0.001000,0.001000,0.001000,0.001000,0.001000
1021.980769,-0.043042,0.001000,0.001000,0.001000,0.001000,0.001000
1022.000000,-0.042351,0.001000,0.001000,0.001000,0.001000,0.001000
1022.019231,-0.041630,0.001000,0.001000,0.001000,0.001000,0.001000
1022.038462,-0.040879,0.001000,0.001000,0.001000,0.001000,0.001000
1022.057692,-0.040099,0.001000,0.001000,0.001000,0.001000,0.001000
1022.076923,-0.039292,0.001000,0.001000,0.001000,0.001000,0.001000
1022.096154,-0.038456,0.001000,0.001000,0.001000,0.001000,0.001000
1022.115385,-0.037593,0.001000,0.001000,0.001000,0.001000,0.001000
1022.134615,-0.036704,0.001000,0.001000,0.001000,0.001000,0.001000
1022.153846,-0.035788,0.001000,0.001000,0.001000,0.001000,0.001000
1022.173077,-0.034848,0.001000,0.001000,0.001000,0.001000,0.001000
1022.192308,-0.033883,0.001000,0.001000,0.001000,0.001000,0.001000
1022.211538,-0.032894,0.001000,0.001000,0.001000,0.001000,0.001000
1022.230769,-0.031881,0.001000,0.001000,0.001000,0.001000,0.001000
1022.250000,-0.030846,0.001000,0.001000,0.001000,0.001000,0.001000
1022.269231,-0.029790,0.001000,0.001000,0.001000,0.001000,0.001000
1022.288462,-0.028712,0.001000,0.001000,0.001000,0.001000,0.001000
1022.307692,-0.027614,0.001000,0.001000,0.001000,0.001000,0.001000
1022.326923,-0.026497,0.001000,0.001000,0.001000,0.001000,0.001000
1022.346154,-0.025360,0.001000,0.001000,0.001000,0.001000,0.001000
1022.365385,-0.024206,0.001000,0.001000,0.001000,0.001000,0.001000
1022.384615,-0.023035,0.001000,0.001000,0.001000,0.001000,0.001000
1022.403846,-0.021848,0.001000,0.001000,0.001000,0.001000,0.001000
1022.423077,-0.020645,0.001000,0.001000,0.001000,0.001000,0.001000
1022.442308,-0.019427,0.001000,0.001000,0.001000,0.001000,0.001000
1022.461538,-0.018196,0.001000,0.001000,0.001000,0.001000,0.001000
1022.480769,-0.016952,0.001000,0.001000,0.001000,0.001000,0.001000
1022.500000,-0.015696,0.001000,0.001000,0.001000,0.001000,0.001000
1022.519231,-0.014429,0.001000,0.001000,0.001000,0.001000,0.001000
1022.538462,-0.013151,0.001000,0.001000,0.001000,0.001000,0.001000
1022.557692,-0.011865,0.001000,0.001000,0.001000,0.001000,0.001000
1022.576923,-0.010570,0.001000,0.001000,0.001000,0.001000,0.001000
1022.596154,-0.009267,0.001000,0.001000,0.001000,0.001000,0.001000
1022.615385,-0.007958,0.001000,0.001000,0.001000,0.001000,0.001000
1022.634615,-0.006644,0.001000,0.001000,0.001000,0.001000,0.001000
1022.653846,-0.005324,0.001000,0.001000,0.001000,0.001000,0.001000
1022.673077,-0.004001,0.001000,0.001000,0.001000,0.001000,0.001000
1022.692308,-0.002675,0.001000,0.001000,0.001000,0.001000,0.001000
1022.711538,-0.001348,0.001000,0.001000,0.001000,0.001000,0.001000
1022.730769,-0.000019,0.001000,0.001000,0.001000,0.001000,0.001000
1022.750000,0.001310,0.001000,0.001000,0.001000,0.001000,0.001000
1022.769231,0.002638,0.001000,0.001000,0.001000,0.001000,0.001000
1022.788462,0.003964,0.001000,0.001000,0.001000,0.001000,0.001000
1022.807692,0.005287,0.001000,0.001000,0.001000,0.001000,0.001000
1022.826923,0.006606,0.001000,0.001000,0.001000,0.001000,0.001000
1022.846154,0.007921,0.001000,0.001000,0.001000,0.001000,0.001000
1022.865385,0.009230,0.001000,0.001000,0.001000,0.001000,0.001000
1022.884615,0.010533,0.001000,0.001000,0.001000,0.001000,0.001000
1022.903846,0.011828,0.001000,0.001000,0.001000,0.001000,0.001000
1022.923077,0.013115,0.001000,0.001000,0.001000,0.001000,0.001000
1022.942308,0.014393,0.001000,0.001000,0.001000,0.001000,0.001000
1022.961538,0.015660,0.001000,0.001000,0.001000,0.001000,0.001000
1022.980769,0.016916,0.001000,0.001000,0.001000,0.001000,0.001000
1023.000000,0.018161,0.001000,0.001000,0.001000,0.001000,0.001000
1023.019231,0.019392,0.001000,0.001000,0.001000,0.001000,0.001000
1023.038462,0.020610,0.001000,0.001000,0.001000,0.001000,0.001000
1023.057692,0.021814,0.001000,0.001000,0.001000,0.001000,0.001000
1023.076923,0.023002,0.001000,0.001000,0.001000,0.001000,0.001000
1023.096154,0.024173,0.001000,0.001000,0.001000,0.001000,0.001000
1023.115385,0.025328,0.001000,0.001000,0.001000,0.001000,0.001000
1023.134615,0.026465,0.001000,0.001000,0.001000,0.001000,0.001000
1023.153846,0.027583,0.001000,0.001000,0.001000,0.001000,0.001000
1023.173077,0.028681,0.001000,0.001000,0.001000,0.001000,0.001000
1023.192308,0.029760,0.001000,0.001000,0.001000,0.001000,0.001000
1023.211538,0.030817,0.001000,0.001000,0.001000,0.001000,0.001000
1023.230769,0.031852,0.001000,0.001000,0.001000,0.001000,0.001000
1023.250000,0.032865,0.001000,0.001000,0.001000,0.001000,0.001000
1023.269231,0.033855,0.001000,0.001000,0.001000,0.001000,0.001000
1023.288462,0.034821,0.001000,0.001000,0.001000,0.001000,0.001000
1023.307692,0.035762,0.001000,0.001000,0.001000,0.001000,0.001000
1023.326923,0.036678,0.001000,0.001000,0.001000,0.001000,0.001000
1023.346154,0.037568,0.001000,0.001000,0.001000,0.001000,0.001000
1023.365385,0.038432,0.001000,0.001000,0.001000,0.001000,0.001000
1023.384615,0.039268,0.001000,0.001000,0.001000,0.001000,0.001000
1023.403846,0.040077,0.001000,0.001000,0.001000,0.001000,0.001000
1023.423077,0.040857,0.001000,0.001000,0.001000,0.001000,0.001000
1023.442308,0.041609,0.001000,0.001000,0.001000,0.001000,0.001000
1023.461538,0.042331,0.001000,0.001000,0.001000,0.001000,0.001000
1023.480769,0.043023,0.001000,0.001000,0.001000,0.001000,0.001000
1023.500000,0.043685,0.001000,0.001000,0.001000,0.001000,0.001000
1023.519231,0.044316,0.001000,0.001000,0.001000,0.001000,0.001000
1023.538462,0.044916,0.001000,0.001000,0.001000,0.001000,0.001000
1023.557692,0.045484,0.001000,0.001000,0.001000,0.001000,0.001000
1023.576923,0.046019,0.001000,0.001000,0.001000,0.001000,0.001000
1023.596154,0.046523,0.001000,0.001000,0.001000,0.001000,0.001000
1023.615385,0.046993,0.001000,0.001000,0.001000,0.001000,0.001000
1023.634615,0.047430,0.001000,0.001000,0.001000,0.001000,0.001000
1023.653846,0.047834,0.001000,0.001000,0.001000,0.001000,0.001000
1023.673077,0.048204,0.001000,0.001000,0.001000,0.001000,0.001000
1023.692308,0.048540,0.001000,0.001000,0.001000,0.001000,0.001000
1023.711538,0.048842,0.001000,0.001000,0.001000,0.001000,0.001000
1023.730769,0.049109,0.001000,0.001000,0.001000,0.001000,0.001000
1023.750000,0.049341,0.001000,0.001000,0.001000,0.001000,0.001000
1023.769231,0.049539,0.001000,0.001000,0.001000,0.001000,0.001000
1023.788462,0.049701,0.001000,0.001000,0.001000,0.001000,0.001000
1023.807692,0.049829,0.001000,0.001000,0.001000,0.001000,0.001000
1023.826923,0.049921,0.001000,0.001000,0.001000,0.001000,0.001000
1023.846154,0.049978,0.001000,0.001000,0.001000,0.001000,0.001000
1023.865385,0.050000,0.001000,0.001000,0.001000,0.001000,0.001000
1023.884615,0.049986,0.001000,0.001000,0.001000,0.001000,0.001000
1023.903846,0.049937,0.001000,0.001000,0.001000,0.001000,0.001000
1023.923077,0.049853,0.001000,0.001000,0.001000,0.001000,0.001000
1023.942308,0.049734,0.001000,0.001000,0.001000,0.001000,0.001000
1023.961538,0.049579,0.001000,0.001000,0.001000,0.001000,0.001000
1023.980769,0.049390,0.001000,0.001000,0.001000,0.001000,0.001000
1024.000000,0.049165,0.001000,0.001000,0.001000,0.001000,0.001000
1024.019231,0.048906,0.001000,0.001000,0.001000,0.001000,0.001000
1024.038462,0.048612,0.001000,0.001000,0.001000,0.001000,0.001000
1024.057692,0.048284,0.001000,0.001000,0.001000,0.001000,0.001000
1024.076923,0.047922,0.001000,0.001000,0.001000,0.001000,0.001000
1024.096154,0.047526,0.001000,0.001000,0.001000,0.001000,0.001000
1024.115385,0.047096,0.001000,0.001000,0.001000,0.001000,0.001000
1024.134615,0.046634,0.001000,0.001000,0.001000,0.001000,0.001000
1024.153846,0.046138,0.001000,0.001000,0.001000,0.001000,0.001000
1024.173077,0.045609,0.001000,0.001000,0.001000,0.001000,0.001000
1024.192308,0.045049,0.001000,0.001000,0.001000,0.001000,0.001000
1024.211538,0.044456,0.001000,0.001000,0.001000,0.001000,0.001000
1024.230769,0.043833,0.001000,0.001000,0.001000,0.001000,0.001000
1024.250000,0.043178,0.001000,0.001000,0.001000,0.001000,0.001000
1024.269231,0.042493,0.001000,0.001000,0.001000,0.001000,0.001000
1024.288462,0.041777,0.001000,0.001000,0.001000,0.001000,0.001000
1024.307692,0.041033,0.001000,0.001000,0.001000,0.001000,0.001000
1024.326923,0.040259,0.001000,0.001000,0.001000,0.001000,0.001000
1024.346154,0.039457,0.001000,0.001000,0.001000,0.001000,0.001000
1024.365385,0.038626,0.001000,0.001000,0.001000,0.001000,0.001000
1024.384615,0.037769,0.001000,0.001000,0.001000,0.001000,0.001000
1024.403846,0.036885,0.001000,0.001000,0.001000,0.001000,0.001000
1024.423077,0.035975,0.001000,0.001000,0.001000,0.001000,0.001000
1024.442308,0.035039,0.001000,0.001000,0.001000,0.001000,0.001000
1024.461538,0.034079,0.001000,0.001000,0.001000,0.001000,0.001000
1024.480769,0.033095,0.001000,0.001000,0.001000,0.001000,0.001000
1024.500000,0.032087,0.001000,0.001000,0.001000,0.001000,0.001000
1024.519231,0.031057,0.001000,0.001000,0.001000,0.001000,0.001000
1024.538462,0.030004,0.001000,0.001000,0.001000,0.001000,0.001000
1024.557692,0.028931,0.001000,0.001000,0.001000,0.001000,0.001000
1024.576923,0.027837,0.001000,0.001000,0.001000,0.001000,0.001000
1024.596154,0.026723,0.001000,0.001000,0.001000,0.001000,0.001000
1024.615385,0.025591,0.001000,0.001000,0.001000,0.001000,0.001000
1024.634615,0.024440,0.001000,0.001000,0.001000,0.001000,0.001000
1024.653846,0.023272,0.001000,0.001000,0.001000,0.001000,0.001000
1024.673077,0.022088,0.001000,0.001000,0.001000,0.001000,0.001000
1024.692308,0.020888,0.001000,0.001000,0.001000,0.001000,0.001000
1024.711538,0.019674,0.001000,0.001000,0.001000,0.001000,0.001000
1024.730769,0.018445,0.001000,0.001000,0.001000,0.001000,0.001000
1024.750000,0.017203,0.001000,0.001000,0.001000,0.001000,0.001000
1024.769231,0.015950,0.001000,0.001000,0.001000,0.001000,0.001000
1024.788462,0.014685,0.001000,0.001000,0.001000,0.001000,0.001000
1024.807692,0.013409,0.001000,0.001000,0.001000,0.001000,0.001000
1024.826923,0.012125,0.001000,0.001000,0.001000,0.001000,0.001000
1024.846154,0.010831,0.001000,0.001000,0.001000,0.001000,0.001000
1024.865385,0.009530,0.001000,0.001000,0.001000,0.001000,0.001000
1024.884615,0.008222,0.001000,0.001000,0.001000,0.001000,0.001000
1024.903846,0.006909,0.001000,0.001000,0.001000,0.001000,0.001000
1024.923077,0.005590,0.001000,0.001000,0.001000,0.001000,0.001000
1024.942308,0.004268,0.001000,0.001000,0.001000,0.001000,0.001000
1024.961538,0.002943,0.001000,0.001000,0.001000,0.001000,0.001000
1024.980769,0.001615,0.001000,0.001000,0.001000,0.001000,0.001000
1025.000000,0.000287,0.001000,0.001000,0.001000,0.001000,0.001000
1025.019231,-0.001042,0.001000,0.001000,0.001000,0.001000,0.001000
1025.038462,-0.002370,0.001000,0.001000,0.001000,0.001000,0.001000
1025.057692,-0.003697,0.001000,0.001000,0.001000,0.001000,0.001000
1025.076923,-0.005021,0.001000,0.001000,0.001000,0.001000,0.001000
1025.096154,-0.006341,0.001000,0.001000,0.001000,0.001000,0.001000
1025.115385,-0.007657,0.001000,0.001000,0.001000,0.001000,0.001000
1025.134615,-0.008967,0.001000,0.001000,0.001000,0.001000,0.001000
1025.153846,-0.010271,0.001000,0.001000,0.001000,0.001000,0.001000
1025.173077,-0.011568,0.001000,0.001000,0.001000,0.001000,0.001000
1025.192308,-0.012857,0.001000,0.001000,0.001000,0.001000,0.001000
1025.211538,-0.014136,0.001000,0.001000,0.001000,0.001000,0.001000
1025.230769,-0.015406,0.001000,0.001000,0.001000,0.001000,0.001000
1025.250000,-0.016664,0.001000,0.001000,0.001000,0.001000,0.001000
1025.269231,-0.017911,0.001000,0.001000,0.001000,0.001000,0.001000
1025.288462,-0.019145,0.001000,0.001000,0.001000,0.001000,0.001000
1025.307692,-0.020366,0.001000,0.001000,0.001000,0.001000,0.001000
1025.326923,-0.021573,0.001000,0.001000,0.001000,0.001000,0.001000
1025.346154,-0.022764,0.001000,0.001000,0.001000,0.001000,0.001000
1025.365385,-0.023939,0.001000,0.001000,0.001000,0.001000,0.001000
1025.384615,-0.025097,0.001000,0.001000,0.001000,0.001000,0.001000
1025.403846,-0.026237,0.001000,0.001000,0.001000,0.001000,0.001000
1025.423077,-0.027359,0.001000,0.001000,0.001000,0.001000,0.001000
1025.442308,-0.028462,0.001000,0.001000,0.001000,0.001000,0.001000
1025.461538,-0.029544,0.001000,0.001000,0.001000,0.001000,0.001000
1025.480769,-0.030606,0.001000,0.001000,0.001000,0.001000,0.001000
1025.500000,-0.031645,0.001000,0.001000,0.001000,0.001000,0.001000
1025.519231,-0.032663,0.001000,0.001000,0.001000,0.001000,0.001000
1025.538462,-0.033658,0.001000,0.001000,0.001000,0.001000,0.001000
1025.557692,-0.034628,0.001000,0.001000,0.001000,0.001000,0.001000
1025.576923,-0.035575,0.001000,0.001000,0.001000,0.001000,0.001000
1025.596154,-0.036496,0.001000,0.001000,0.001000,0.001000,0.001000
1025.615385,-0.037391,0.001000,0.001000,0.001000,0.001000,0.001000
1025.634615,-0.038260,0.001000,0.001000,0.001000,0.001000,0.001000
1025.653846,-0.039102,0.001000,0.001000,0.001000,0.001000,0.001000
1025.673077,-0.039916,0.001000,0.001000,0.001000,0.001000,0.001000
1025.692308,-0.040702,0.001000,0.001000,0.001000,0.001000,0.001000
1025.711538,-0.041460,0.001000,0.001000,0.001000,0.001000,0.001000
1025.730769,-0.042188,0.001000,0.001000,0.001000,0.001000,0.001000
1025.750000,-0.042886,0.001000,0.001000,0.001000,0.001000,0.001000
1025.769231,-0.043554,0.001000,0.001000,0.001000,0.001000,0.001000
1025.788462,-0.044191,0.001000,0.001000,0.001000,0.001000,0.001000
1025.807692,-0.044797,0.001000,0.001000,0.001000,0.001000,0.001000
1025.826923,-0.045372,0.001000,0.001000,0.001000,0.001000,0.001000
1025.846154,-0.045914,0.001000,0.001000,0.001000,0.001000,0.001000
1025.865385,-0.046424,0.001000,0.001000,0.001000,0.001000,0.001000
1025.884615,-0.046901,0.001000,0.001000,0.001000,0.001000,0.001000
1025.903846,-0.047345,0.001000,0.001000,0.001000,0.001000,0.001000
1025.923077,-0.047755,0.001000,0.001000,0.001000,0.001000,0.001000
1025.942308,-0.048132,0.001000,0.001000,0.001000,0.001000,0.001000
1025.961538,-0.048475,0.001000,0.001000,0.001000,0.001000,0.001000
1025.980769,-0.048784,0.001000,0.001000,0.001000,0.001000,0.001000
1026.000000,-0.049058,0.001000,0.001000,0.001000,0.001000,0.001000
1026.019231,-0.049297,0.001000,0.001000,0.001000,0.001000,0.001000
1026.038462,-0.049502,0.001000,0.001000,0.001000,0.001000,0.001000
1026.057692,-0.049671,0.001000,0.001000,0.001000,0.001000,0.001000
1026.076923,-0.049806,0.001000,0.001000,0.001000,0.001000,0.001000
1026.096154,-0.049905,0.001000,0.001000,0.001000,0.001000,0.001000
1026.115385,-0.049969,0.001000,0.001000,0.001000,0.001000,0.001000
1026.134615,-0.049998,0.001000,0.001000,0.001000,0.001000,0.001000
1026.153846,-0.049992,0.001000,0.001000,0.001000,0.001000,0.001000
1026.173077,-0.049950,0.001000,0.001000,0.001000,0.001000,0.001000
1026.192308,-0.049873,0.001000,0.001000,0.001000,0.001000,0.001000
1026.211538,-0.049761,0.001000,0.001000,0.001000,0.001000,0.001000
1026.230769,-0.049613,0.001000,0.001000,0.001000,0.001000,0.001000
1026.250000,-0.049431,0.001000,0.001000,0.001000,0.001000,0.001000
1026.269231,-0.049213,0.001000,0.001000,0.001000,0.001000,0.001000
1026.288462,-0.048961,0.001000,0.001000,0.001000,0.001000,0.001000
1026.307692,-0.048674,0.001000,0.001000,0.001000,0.001000,0.001000
1026.326923,-0.048353,0.001000,0.001000,0.001000,0.001000,0.001000
1026.346154,-0.047998,0.001000,0.001000,0.001000,0.001000,0.001000
1026.365385,-0.047609,0.001000,0.001000,0.001000,0.001000,0.001000
1026.384615,-0.047186,0.001000,0.001000,0.001000,0.001000,0.001000
1026.403846,-0.046730,0.001000,0.001000,0.001000,0.001000,0.001000
1026.423077,-0.046240,0.001000,0.001000,0.001000,0.001000,0.001000
1026.442308,-0.045719,0.001000,0.001000,0.001000,0.001000,0.001000
1026.461538,-0.045164,0.001000,0.001000,0.001000,0.001000,0.001000
1026.480769,-0.044578,0.001000,0.001000,0.001000,0.001000,0.001000
1026.500000,-0.043961,0.001000,0.001000,0.001000,0.001000,0.001000
1026.519231,-0.043312,0.001000,0.001000,0.001000,0.001000,0.001000
1026.538462,-0.042633,0.001000,0.001000,0.001000,0.001000,0.001000
1026.557692,-0.041924,0.001000,0.001000,0.001000,0.001000,0.001000
1026.576923,-0.041185,0.001000,0.001000,0.001000,0.001000,0.001000
1026.596154,-0.040417,0.001000,0.001000,0.001000,0.001000,0.001000
1026.615385,-0.039620,0.001000,0.001000,0.001000,0.001000,0.001000
1026.634615,-0.038796,0.001000,0.001000,0.001000,0.001000,0.001000
1026.653846,-0.037944,0.001000,0.001000,0.001000,0.001000,0.001000
1026.673077,-0.037065,0.001000,0.001000,0.001000,0.001000,0.001000
1026.692308,-0.036160,0.001000,0.001000,0.001000,0.001000,0.001000
1026.711538,-0.035230,0.001000,0.001000,0.001000,0.001000,0.001000
1026.730769,-0.034274,0.001000,0.001000,0.001000,0.001000,0.001000
1026.750000,-0.033295,0.001000,0.001000,0.001000,0.001000,0.001000
1026.769231,-0.032292,0.001000,0.001000,0.001000,0.001000,0.001000
1026.788462,-0.031266,0.001000,0.001000,0.001000,0.001000,0.001000
1026.807692,-0.030218,0.001000,0.001000,0.001000,0.001000,0.001000
1026.826923,-0.029149,0.001000,0.001000,0.001000,0.001000,0.001000
1026.846154,-0.028059,0.001000,0.001000,0.001000,0.001000,0.001000
1026.865385,-0.026949,0.001000,0.001000,0.001000,0.001000,0.001000
1026.884615,-0.025820,0.001000,0.001000,0.001000,0.001000,0.001000
1026.903846,-0.024673,0.001000,0.001000,0.001000,0.001000,0.001000
1026.923077,-0.023509,0.001000,0.001000,0.001000,0.001000,0.001000
1026.942308,-0.022328,0.001000,0.001000,0.001000,0.001000,0.001000
1026.961538,-0.021131,0.001000,0.001000,0.001000,0.001000,0.001000
1026.980769,-0.019919,0.001000,0.001000,0.001000,0.001000,0.001000
1027.000000,-0.018694,0.001000,0.001000,0.001000,0.001000,0.001000
1027.019231,-0.017455,0.001000,0.001000,0.001000,0.001000,0.001000
1027.038462,-0.016203,0.001000,0.001000,0.001000,0.001000,0.001000
1027.057692,-0.014940,0.001000,0.001000,0.001000,0.001000,0.001000
1027.076923,-0.013667,0.001000,0.001000,0.001000,0.001000,0.001000
1027.096154,-0.012384,0.001000,0.001000,0.001000,0.001000,0.001000
1027.115385,-0.011092,0.001000,0.001000,0.001000,0.001000,0.001000
1027.134615,-0.009793,0.001000,0.001000,0.001000,0.001000,0.001000
1027.153846,-0.008486,0.001000,0.001000,0.001000,0.001000,0.001000
1027.173077,-0.007174,0.001000,0.001000,0.001000,0.001000,0.001000
1027.192308,-0.005856,0.001000,0.001000,0.001000,0.001000,0.001000
1027.211538,-0.004535,0.001000,0.001000,0.001000,0.001000,0.001000
1027.230769,-0.003210,0.001000,0.001000,0.001000,0.001000,0.001000
1027.250000,-0.001883,0.001000,0.001000,0.001000,0.001000,0.001000
1027.269231,-0.000554,0.001000,0.001000,0.001000,0.001000,0.001000
1027.288462,0.000775,0.001000,0.001000,0.001000,0.001000,0.001000
1027.307692,0.002103,0.001000,0.001000,0.001000,0.001000,0.001000
1027.326923,0.003430,0.001000,0.001000,0.001000,0.001000,0.001000
1027.346154,0.004754,0.001000,0.001000,0.001000,0.001000,0.001000
1027.365385,0.006075,0.001000,0.001000,0.001000,0.001000,0.001000
1027.384615,0.007392,0.001000,0.001000,0.001000,0.001000,0.001000
1027.403846,0.008704,0.001000,0.001000,0.001000,0.001000,0.001000
1027.423077,0.010009,0.001000,0.001000,0.001000,0.001000,0.001000
1027.442308,0.011307,0.001000,0.001000,0.001000,0.001000,0.001000
1027.461538,0.012598,0.001000,0.001000,0.001000,0.001000,0.001000
1027.480769,0.013879,0.001000,0.001000,0.001000,0.001000,0.001000
1027.500000,0.015151,0.001000,0.001000,0.001000,0.001000,0.001000
1027.519231,0.016412,0.001000,0.001000,0.001000,0.001000,0.001000
1027.538462,0.017661,0.001000,0.001000,0.001000,0.001000,0.001000
1027.557692,0.018898,0.001000,0.001000,0.001000,0.001000,0.001000
1027.576923,0.020121,0.001000,0.001000,0.001000,0.001000,0.001000
1027.596154,0.021331,0.001000,0.001000,0.001000,0.001000,0.001000
1027.615385,0.022525,0.001000,0.001000,0.001000,0.001000,0.001000
1027.634615,0.023703,0.001000,0.001000,0.001000,0.001000,0.001000
1027.653846,0.024865,0.001000,0.001000,0.001000,0.001000,0.001000
1027.673077,0.026009,0.001000,0.001000,0.001000,0.001000,0.001000
1027.692308,0.027135,0.001000,0.001000,0.001000,0.001000,0.001000
1027.711538,0.028241,0.001000,0.001000,0.001000,0.001000,0.001000
1027.730769,0.029328,0.001000,0.001000,0.001000,0.001000,0.001000
1027.750000,0.030393,0.001000,0.001000,0.001000,0.001000,0.001000
1027.769231,0.031438,0.001000,0.001000,0.001000,0.001000,0.001000
1027.788462,0.032460,0.001000,0.001000,0.001000,0.001000,0.001000
1027.807692,0.033459,0.001000,0.001000,0.001000,0.001000,0.001000
1027.826923,0.034435,0.001000,0.001000,0.001000,0.001000,0.001000
1027.846154,0.035386,0.001000,0.001000,0.001000,0.001000,0.001000
1027.865385,0.036312,0.001000,0.001000,0.001000,0.001000,0.001000
1027.884615,0.037213,0.001000,0.001000,0.001000,0.001000,0.001000
1027.903846,0.038087,0.001000,0.001000,0.001000,0.001000,0.001000
1027.923077,0.038935,0.001000,0.001000,0.001000,0.001000,0.001000
1027.942308,0.039755,0.001000,0.001000,0.001000,0.001000,0.001000
1027.961538,0.040546,0.001000,0.001000,0.001000,0.001000,0.001000
1027.980769,0.041310,0.001000,0.001000,0.001000,0.001000,0.001000
1028.000000,0.042044,0.001000,0.001000,0.001000,0.001000,0.001000
1028.019231,0.042748,0.001000,0.001000,0.001000,0.001000,0.001000
1028.038462,0.043422,0.001000,0.001000,0.001000,0.001000,0.001000
1028.057692,0.044065,0.001000,0.001000,0.001000,0.001000,0.001000
1028.076923,0.044678,0.001000,0.001000,0.001000,0.001000,0.001000
1028.096154,0.045259,0.001000,0.001000,0.001000,0.001000,0.001000
1028.115385,0.045807,0.001000,0.001000,0.001000,0.001000,0.001000
1028.134615,0.046324,0.001000,0.001000,0.001000,0.001000,0.001000
1028.153846,0.046808,0.001000,0.001000,0.001000,0.001000,0.001000
1028.173077,0.047258,0.001000,0.001000,0.001000,0.001000,0.001000
1028.192308,0.047675,0.001000,0.001000,0.001000,0.001000,0.001000
1028.211538,0.048059,0.001000,0.001000,0.001000,0.001000,0.001000
1028.230769,0.048409,0.001000,0.001000,0.001000,0.001000,0.001000
1028.250000,0.048724,0.001000,0.001000,0.001000,0.001000,0.001000
1028.269231,0.049005,0.001000,0.001000,0.001000,0.001000,0.001000
1028.288462,0.049252,0.001000,0.001000,0.001000,0.001000,0.001000
1028.307692,0.049463,0.001000,0.001000,0.001000,0.001000,0.001000
1028.326923,0.049640,0.001000,0.001000,0.001000,0.001000,0.001000
1028.346154,0.049782,0.001000,0.001000,0.001000,0.001000,0.001000
1028.365385,0.049888,0.001000,0.001000,0.001000,0.001000,0.001000
1028.384615,0.049959,0.001000,0.001000,0.001000,0.001000,0.001000
1028.403846,0.049995,0.001000,0.001000,0.001000,0.001000,0.001000
1028.423077,0.049996,0.001000,0.001000,0.001000,0.001000,0.001000
1028.442308,0.049961,0.001000,0.001000,0.001000,0.001000,0.001000
1028.461538,0.049891,0.001000,0.001000,0.001000,0.001000,0.001000
1028.480769,0.049786,0.001000,0.001000,0.001000,0.001000,0.001000
1028.500000,0.049646,0.001000,0.001000,0.001000,0.001000,0.001000
1028.519231,0.049470,0.001000,0.001000,0.001000,0.001000,0.001000
1028.538462,0.049260,0.001000,0.001000,0.001000,0.001000,0.001000
1028.557692,0.049015,0.001000,0.001000,0.001000,0.001000,0.001000
1028.576923,0.048735,0.001000,0.001000,0.001000,0.001000,0.001000
1028.596154,0.048420,0.001000,0.001000,0.001000,0.001000,0.001000
1028.615385,0.048072,0.001000,0.001000,0.001000,0.001000,0.001000
1028.634615,0.047690,0.001000,0.001000,0.001000,0.001000,0.001000
1028.653846,0.047274,0.001000,0.001000,0.001000,0.001000,0.001000
1028.673077,0.046824,0.001000,0.001000,0.001000,0.001000,0.001000
1028.692308,0.046342,0.001000,0.001000,0.001000,0.001000,0.001000
1028.711538,0.045826,0.001000,0.001000,0.001000,0.001000,0.001000
1028.730769,0.045279,0.001000,0.001000,0.001000,0.001000,0.001000
1028.750000,0.044699,0.001000,0.001000,0.001000,0.001000,0.001000
1028.769231,0.044088,0.001000,0.001000,0.001000,0.001000,0.001000
1028.788462,0.043445,0.001000,0.001000,0.001000,0.001000,0.001000
1028.807692,0.042772,0.001000,0.001000,0.001000,0.001000,0.001000
1028.826923,0.042069,0.001000,0.001000,0.001000,0.001000,0.001000
1028.846154,0.041336,0.001000,0.001000,0.001000,0.001000,0.001000
1028.865385,0.040574,0.001000,0.001000,0.001000,0.001000,0.001000
1028.884615,0.039783,0.001000,0.001000,0.001000,0.001000,0.001000
1028.903846,0.038964,0.001000,0.001000,0.001000,0.001000,0.001000
1028.923077,0.038118,0.001000,0.001000,0.001000,0.001000,0.001000
1028.942308,0.037244,0.001000,0.001000,0.001000,0.001000,0.001000
1028.961538,0.036345,0.001000,0.001000,0.001000,0.001000,0.001000
1028.980769,0.035419,0.001000,0.001000,0.001000,0.001000,0.001000
1029.000000,0.034469,0.001000,0.001000,0.001000,0.001000,0.001000
1029.019231,0.033494,0.001000,0.001000,0.001000,0.001000,0.001000
1029.038462,0.032496,0.001000,0.001000,0.001000,0.001000,0.001000
1029.057692,0.031474,0.001000,0.001000,0.001000,0.001000,0.001000
1029.076923,0.030431,0.001000,0.001000,0.001000,0.001000,0.001000
1029.096154,0.029366,0.001000,0.001000,0.001000,0.001000,0.001000
1029.115385,0.028280,0.001000,0.001000,0.001000,0.001000,0.001000
1029.134615,0.027174,0.001000,0.001000,0.001000,0.001000,0.001000
1029.153846,0.026049,0.001000,0.001000,0.001000,0.001000,0.001000
1029.173077,0.024906,0.001000,0.001000,0.001000,0.001000,0.001000
1029.192308,0.023745,0.001000,0.001000,0.001000,0.001000,0.001000
1029.211538,0.022567,0.001000,0.001000,0.001000,0.001000,0.001000
1029.230769,0.021373,0.001000,0.001000,0.001000,0.001000,0.001000
1029.250000,0.020165,0.001000,0.001000,0.001000,0.001000,0.001000
1029.269231,0.018942,0.001000,0.001000,0.001000,0.001000,0.001000
1029.288462,0.017705,0.001000,0.001000,0.001000,0.001000,0.001000
1029.307692,0.016456,0.001000,0.001000,0.001000,0.001000,0.001000
1029.326923,0.015196,0.001000,0.001000,0.001000,0.001000,0.001000
1029.346154,0.013924,0.001000,0.001000,0.001000,0.001000,0.001000
1029.365385,0.012643,0.001000,0.001000,0.001000,0.001000,0.001000
1029.384615,0.011353,0.001000,0.001000,0.001000,0.001000,0.001000
1029.403846,0.010055,0.001000,0.001000,0.001000,0.001000,0.001000
1029.423077,0.008750,0.001000,0.001000,0.001000,0.001000,0.001000
1029.442308,0.007439,0.001000,0.001000,0.001000,0.001000,0.001000
1029.461538,0.006122,0.001000,0.001000,0.001000,0.001000,0.001000
1029.480769,0.004801,0.001000,0.001000,0.001000,0.001000,0.001000
1029.500000,0.003477,0.001000,0.001000,0.001000,0.001000,0.001000
1029.519231,0.002150,0.001000,0.001000,0.001000,0.001000,0.001000
1029.538462,0.000822,0.001000,0.001000,0.001000,0.001000,0.001000
1029.557692,-0.000507,0.001000,0.001000,0.001000,0.001000,0.001000
1029.576923,-0.001836,0.001000,0.001000,0.001000,0.001000,0.001000
1029.596154,-0.003163,0.001000,0.001000,0.001000,0.001000,0.001000
1029.615385,-0.004488,0.001000,0.001000,0.001000,0.001000,0.001000
1029.634615,-0.005810,0.001000,0.001000,0.001000,0.001000,0.001000
1029.653846,-0.007127,0.001000,0.001000,0.001000,0.001000,0.001000
1029.673077,-0.008440,0.001000,0.001000,0.001000,0.001000,0.001000
1029.692308,-0.009747,0.001000,0.001000,0.001000,0.001000,0.001000
1029.711538,-0.011046,0.001000,0.001000,0.001000,0.001000,0.001000
1029.730769,-0.012339,0.001000,0.001000,0.001000,0.001000,0.001000
1029.750000,-0.013622,0.001000,0.001000,0.001000,0.001000,0.001000
1029.769231,-0.014896,0.001000,0.001000,0.001000,0.001000,0.001000
1029.788462,-0.016159,0.001000,0.001000,0.001000,0.001000,0.001000
1029.807692,-0.017410,0.001000,0.001000,0.001000,0.001000,0.001000
1029.826923,-0.018650,0.001000,0.001000,0.001000,0.001000,0.001000
1029.846154,-0.019876,0.001000,0.001000,0.001000,0.001000,0.001000
1029.865385,-0.021088,0.001000,0.001000,0.001000,0.001000,0.001000
1029.884615,-0.022286,0.001000,0.001000,0.001000,0.001000,0.001000
1029.903846,-0.023467,0.001000,0.001000,0.001000,0.001000,0.001000
1029.923077,-0.024632,0.001000,0.001000,0.001000,0.001000,0.001000
1029.942308,-0.025780,0.001000,0.001000,0.001000,0.001000,0.001000
1029.961538,-0.026909,0.001000,0.001000,0.001000,0.001000,0.001000
1029.980769,-0.028020,0.001000,0.001000,0.001000,0.001000,0.001000
1030.000000,0.000000,0.001000,0.001000,0.001000,0.001000,0.001000
1030.019231,0.001270,0.001000,0.001000,0.001000,0.001000,0.001000
1030.038462,0.002539,0.001000,0.001000,0.001000,0.001000,0.001000
1030.057692,0.003806,0.001000,0.001000,0.001000,0.001000,0.001000
1030.076923,0.005071,0.001000,0.001000,0.001000,0.001000,0.001000
1030.096154,0.006333,0.001000,0.001000,0.001000,0.001000,0.001000
1030.115385,0.007590,0.001000,0.001000,0.001000,0.001000,0.001000
1030.134615,0.008843,0.001000,0.001000,0.001000,0.001000,0.001000
1030.153846,0.010090,0.001000,0.001000,0.001000,0.001000,0.001000
1030.173077,0.011330,0.001000,0.001000,0.001000,0.001000,0.001000
1030.192308,0.012563,0.001000,0.001000,0.001000,0.001000,0.001000
1030.211538,0.013788,0.001000,0.001000,0.001000,0.001000,0.001000
1030.230769,0.015004,0.001000,0.001000,0.001000,0.001000,0.001000
1030.250000,0.016211,0.001000,0.001000,0.001000,0.001000,0.001000
1030.269231,0.017407,0.001000,0.001000,0.001000,0.001000,0.001000
1030.288462,0.018591,0.001000,0.001000,0.001000,0.001000,0.001000
1030.307692,0.019764,0.001000,0.001000,0.001000,0.001000,0.001000
1030.326923,0.020924,0.001000,0.001000,0.001000,0.001000,0.001000
1030.346154,0.022071,0.001000,0.001000,0.001000,0.001000,0.001000
1030.365385,0.023203,0.001000,0.001000,0.001000,0.001000,0.001000
1030.384615,0.024320,0.001000,0.001000,0.001000,0.001000,0.001000
1030.403846,0.025422,0.001000,0.001000,0.001000,0.001000,0.001000
1030.423077,0.026507,0.001000,0.001000,0.001000,0.001000,0.001000
1030.442308,0.027575,0.001000,0.001000,0.001000,0.001000,0.001000
1030.461538,0.028626,0.001000,0.001000,0.001000,0.001000,0.001000
1030.480769,0.029657,0.001000,0.001000,0.001000,0.001000,0.001000
1030.500000,0.030670,0.001000,0.001000,0.001000,0.001000,0.001000
1030.519231,0.031663,0.001000,0.001000,0.001000,0.001000,0.001000
1030.538462,0.032636,0.001000,0.001000,0.001000,0.001000,0.001000
1030.557692,0.033587,0.001000,0.001000,0.001000,0.001000,0.001000
1030.576923,0.034517,0.001000,0.001000,0.001000,0.001000,0.001000
1030.596154,0.035425,0.001000,0.001000,0.001000,0.001000,0.001000
1030.615385,0.036309,0.001000,0.001000,0.001000,0.001000,0.001000
1030.634615,0.037170,0.001000,0.001000,0.001000,0.001000,0.001000
1030.653846,0.038008,0.001000,0.001000,0.001000,0.001000,0.001000
1030.673077,0.038821,0.001000,0.001000,0.001000,0.001000,0.001000
1030.692308,0.039608,0.001000,0.001000,0.001000,0.001000,0.001000
1030.711538,0.040370,0.001000,0.001000,0.001000,0.001000,0.001000
1030.730769,0.041107,0.001000,0.001000,0.001000,0.001000,0.001000
1030.750000,0.041816,0.001000,0.001000,0.001000,0.001000,0.001000
1030.769231,0.042499,0.001000,0.001000,0.001000,0.001000,0.001000
1030.788462,0.043154,0.001000,0.001000,0.001000,0.001000,0.001000
1030.807692,0.043782,0.001000,0.001000,0.001000,0.001000,0.001000
1030.826923,0.044381,0.001000,0.001000,0.001000,0.001000,0.001000
1030.846154,0.044951,0.001000,0.001000,0.001000,0.001000,0.001000
1030.865385,0.045493,0.001000,0.001000,0.001000,0.001000,0.001000
1030.884615,0.046005,0.001000,0.001000,0.001000,0.001000,0.001000
1030.903846,0.046488,0.001000,0.001000,0.001000,0.001000,0.001000
1030.923077,0.046940,0.001000,0.001000,0.001000,0.001000,0.001000
1030.942308,0.047362,0.001000,0.001000,0.001000,0.001000,0.001000
1030.961538,0.047754,0.001000,0.001000,0.001000,0.001000,0.001000
1030.980769,0.048115,0.001000,0.001000,0.001000,0.001000,0.001000
1031.000000,0.048445,0.001000,0.001000,0.001000,0.001000,0.001000
1031.019231,0.048743,0.001000,0.001000,0.001000,0.001000,0.001000
1031.038462,0.049011,0.001000,0.001000,0.001000,0.001000,0.001000
1031.057692,0.049246,0.001000,0.001000,0.001000,0.001000,0.001000
1031.076923,0.049450,0.001000,0.001000,0.001000,0.001000,0.001000
1031.096154,0.049622,0.001000,0.001000,0.001000,0.001000,0.001000
1031.115385,0.049762,0.001000,0.001000,0.001000,0.001000,0.001000
1031.134615,0.049869,0.001000,0.001000,0.001000,0.001000,0.001000
1031.153846,0.049945,0.001000,0.001000,0.001000,0.001000,0.001000
1031.173077,0.049988,0.001000,0.001000,0.001000,0.001000,0.001000
1031.192308,0.050000,0.001000,0.001000,0.001000,0.001000,0.001000
1031.211538,0.049979,0.001000,0.001000,0.001000,0.001000,0.001000
1031.230769,0.049925,0.001000,0.001000,0.001000,0.001000,0.001000
1031.250000,0.049840,0.001000,0.001000,0.001000,0.001000,0.001000
1031.269231,0.049722,0.001000,0.001000,0.001000,0.001000,0.001000
1031.288462,0.049572,0.001000,0.001000,0.001000,0.001000,0.001000
1031.307692,0.049390,0.001000,0.001000,0.001000,0.001000,0.001000
1031.326923,0.049177,0.001000,0.001000,0.001000,0.001000,0.001000
1031.346154,0.048932,0.001000,0.001000,0.001000,0.001000,0.001000
1031.365385,0.048655,0.001000,0.001000,0.001000,0.001000,0.001000
1031.384615,0.048346,0.001000,0.001000,0.001000,0.001000,0.001000
1031.403846,0.048007,0.001000,0.001000,0.001000,0.001000,0.001000
1031.423077,0.047636,0.001000,0.001000,0.001000,0.001000,0.001000
1031.442308,0.047235,0.001000,0.001000,0.001000,0.001000,0.001000
1031.461538,0.046804,0.001000,0.001000,0.001000,0.001000,0.001000
1031.480769,0.046342,0.001000,0.001000,0.001000,0.001000,0.001000
1031.500000,0.045850,0.001000,0.001000,0.001000,0.001000,0.001000
1031.519231,0.045329,0.001000,0.001000,0.001000,0.001000,0.001000
1031.538462,0.044778,0.001000,0.001000,0.001000,0.001000,0.001000
1031.557692,0.044199,0.001000,0.001000,0.001000,0.001000,0.001000
1031.576923,0.043591,0.001000,0.001000,0.001000,0.001000,0.001000
1031.596154,0.042955,0.001000,0.001000,0.001000,0.001000,0.001000
1031.615385,0.042291,0.001000,0.001000,0.001000,0.001000,0.001000
1031.634615,0.041600,0.001000,0.001000,0.001000,0.001000,0.001000
1031.653846,0.040882,0.001000,0.001000,0.001000,0.001000,0.001000
1031.673077,0.040138,0.001000,0.001000,0.001000,0.001000,0.001000
1031.692308,0.039368,0.001000,0.001000,0.001000,0.001000,0.001000
1031.711538,0.038573,0.001000,0.001000,0.001000,0.001000,0.001000
1031.730769,0.037752,0.001000,0.001000,0.001000,0.001000,0.001000
1031.750000,0.036907,0.001000,0.001000,0.001000,0.001000,0.001000
1031.769231,0.036039,0.001000,0.001000,0.001000,0.001000,0.001000
1031.788462,0.035147,0.001000,0.001000,0.001000,0.001000,0.001000
1031.807692,0.034233,0.001000,0.001000,0.001000,0.001000,0.001000
1031.826923,0.033296,0.001000,0.001000,0.001000,0.001000,0.001000
1031.846154,0.032338,0.001000,0.001000,0.001000,0.001000,0.001000
1031.865385,0.031359,0.001000,0.001000,0.001000,0.001000,0.001000
1031.884615,0.030360,0.001000,0.001000,0.001000,0.001000,0.001000
1031.903846,0.029341,0.001000,0.001000,0.001000,0.001000,0.001000
1031.923077,0.028304,0.001000,0.001000,0.001000,0.001000,0.001000
1031.942308,0.027248,0.001000,0.001000,0.001000,0.001000,0.001000
1031.961538,0.026174,0.001000,0.001000,0.001000,0.001000,0.001000
1031.980769,0.025084,0.001000,0.001000,0.001000,0.001000,0.001000
1032.000000,0.023977,0.001000,0.001000,0.001000,0.001000,0.001000
1032.019231,0.022855,0.001000,0.001000,0.001000,0.001000,0.001000
1032.038462,0.021719,0.001000,0.001000,0.001000,0.001000,0.001000
1032.057692,0.020568,0.001000,0.001000,0.001000,0.001000,0.001000
1032.076923,0.019404,0.001000,0.001000,0.001000,0.001000,0.001000
1032.096154,0.018227,0.001000,0.001000,0.001000,0.001000,0.001000
1032.115385,0.017039,0.001000,0.001000,0.001000,0.001000,0.001000
1032.134615,0.015840,0.001000,0.001000,0.001000,0.001000,0.001000
1032.153846,0.014630,0.001000,0.001000,0.001000,0.001000,0.001000
1032.173077,0.013411,0.001000,0.001000,0.001000,0.001000,0.001000
1032.192308,0.012184,0.001000,0.001000,0.001000,0.001000,0.001000
1032.211538,0.010948,0.001000,0.001000,0.001000,0.001000,0.001000
1032.230769,0.009706,0.001000,0.001000,0.001000,0.001000,0.001000
1032.250000,0.008457,0.001000,0.001000,0.001000,0.001000,0.001000
1032.269231,0.007203,0.001000,0.001000,0.001000,0.001000,0.001000
1032.288462,0.005944,0.001000,0.001000,0.001000,0.001000,0.001000
1032.307692,0.004681,0.001000,0.001000,0.001000,0.001000,0.001000
1032.326923,0.003415,0.001000,0.001000,0.001000,0.001000,0.001000
1032.346154,0.002148,0.001000,0.001000,0.001000,0.001000,0.001000
1032.365385,0.000878,0.001000,0.001000,0.001000,0.001000,0.001000
1032.384615,-0.000392,0.001000,0.001000,0.001000,0.001000,0.001000
1032.403846,-0.001661,0.001000,0.001000,0.001000,0.001000,0.001000
1032.423077,-0.002930,0.001000,0.001000,0.001000,0.001000,0.001000
1032.442308,-0.004197,0.001000,0.001000,0.001000,0.001000,0.001000
1032.461538,-0.005460,0.001000,0.001000,0.001000,0.001000,0.001000
1032.480769,-0.006721,0.001000,0.001000,0.001000,0.001000,0.001000
1032.500000,-0.007977,0.001000,0.001000,0.001000,0.001000,0.001000
1032.519231,-0.009228,0.001000,0.001000,0.001000,0.001000,0.001000
1032.538462,-0.010473,0.001000,0.001000,0.001000,0.001000,0.001000
1032.557692,-0.011711,0.001000,0.001000,0.001000,0.001000,0.001000
1032.576923,-0.012942,0.001000,0.001000,0.001000,0.001000,0.001000
1032.596154,-0.014164,0.001000,0.001000,0.001000,0.001000,0.001000
1032.615385,-0.015377,0.001000,0.001000,0.001000,0.001000,0.001000
1032.634615,-0.016581,0.001000,0.001000,0.001000,0.001000,0.001000
1032.653846,-0.017773,0.001000,0.001000,0.001000,0.001000,0.001000
1032.673077,-0.018954,0.001000,0.001000,0.001000,0.001000,0.001000
1032.692308,-0.020123,0.001000,0.001000,0.001000,0.001000,0.001000
1032.711538,-0.021279,0.001000,0.001000,0.001000,0.001000,0.001000
1032.730769,-0.022421,0.001000,0.001000,0.001000,0.001000,0.001000
1032.750000,-0.023549,0.001000,0.001000,0.001000,0.001000,0.001000
1032.769231,-0.024662,0.001000,0.001000,0.001000,0.001000,0.001000
1032.788462,-0.025758,0.001000,0.001000,0.001000,0.001000,0.001000
1032.807692,-0.026838,0.001000,0.001000,0.001000,0.001000,0.001000
1032.826923,-0.027901,0.001000,0.001000,0.001000,0.001000,0.001000
1032.846154,-0.028946,0.001000,0.001000,0.001000,0.001000,0.001000
1032.865385,-0.029972,0.001000,0.001000,0.001000,0.001000,0.001000
1032.884615,-0.030979,0.001000,0.001000,0.001000,0.001000,0.001000
1032.903846,-0.031965,0.001000,0.001000,0.001000,0.001000,0.001000
1032.923077,-0.032931,0.001000,0.001000,0.001000,0.001000,0.001000
1032.942308,-0.033876,0.001000,0.001000,0.001000,0.001000,0.001000
1032.961538,-0.034799,0.001000,0.001000,0.001000,0.001000,0.001000
1032.980769,-0.035700,0.001000,0.001000,0.001000,0.001000,0.001000
1033.000000,-0.036577,0.001000,0.001000,0.001000,0.001000,0.001000
1033.019231,-0.037431,0.001000,0.001000,0.001000,0.001000,0.001000
1033.038462,-0.038261,0.001000,0.001000,0.001000,0.001000,0.001000
1033.057692,-0.039066,0.001000,0.001000,0.001000,0.001000,0.001000
1033.076923,-0.039846,0.001000,0.001000,0.001000,0.001000,0.001000
1033.096154,-0.040600,0.001000,0.001000,0.001000,0.001000,0.001000
1033.115385,-0.041328,0.001000,0.001000,0.001000,0.001000,0.001000
1033.134615,-0.042030,0.001000,0.001000,0.001000,0.001000,0.001000
1033.153846,-0.042704,0.001000,0.001000,0.001000,0.001000,0.001000
1033.173077,-0.043351,0.001000,0.001000,0.001000,0.001000,0.001000
1033.192308,-0.043969,0.001000,0.001000,0.001000,0.001000,0.001000
1033.211538,-0.044560,0.001000,0.001000,0.001000,0.001000,0.001000
1033.230769,-0.045121,0.001000,0.001000,0.001000,0.001000,0.001000
1033.250000,-0.045654,0.001000,0.001000,0.001000,0.001000,0.001000
1033.269231,-0.046157,0.001000,0.001000,0.001000,0.001000,0.001000
1033.288462,-0.046630,0.001000,0.001000,0.001000,0.001000,0.001000
1033.307692,-0.047074,0.001000,0.001000,0.001000,0.001000,0.001000
1033.326923,-0.047486,0.001000,0.001000,0.001000,0.001000,0.001000
1033.346154,-0.047869,0.001000,0.001000,0.001000,0.001000,0.001000
1033.365385,-0.048220,0.001000,0.001000,0.001000,0.001000,0.001000
1033.384615,-0.048540,0.001000,0.001000,0.001000,0.001000,0.001000
1033.403846,-0.048829,0.001000,0.001000,0.001000,0.001000,0.001000
1033.423077,-0.049087,0.001000,0.001000,0.001000,0.001000,0.001000
1033.442308,-0.049312,0.001000,0.001000,0.001000,0.001000,0.001000
1033.461538,-0.049506,0.001000,0.001000,0.001000,0.001000,0.001000
1033.480769,-0.049668,0.001000,0.001000,0.001000,0.001000,0.001000
1033.500000,-0.049798,0.001000,0.001000,0.001000,0.001000,0.001000
1033.519231,-0.049896,0.001000,0.001000,0.001000,0.001000,0.001000
1033.538462,-0.049962,0.001000,0.001000,0.001000,0.001000,0.001000
1033.557692,-0.049995,0.001000,0.001000,0.001000,0.001000,0.001000
1033.576923,-0.049997,0.001000,0.001000,0.001000,0.001000,0.001000
1033.596154,-0.049966,0.001000,0.001000,0.001000,0.001000,0.001000
1033.615385,-0.049902,0.001000,0.001000,0.001000,0.001000,0.001000
1033.634615,-0.049807,0.001000,0.001000,0.001000,0.001000,0.001000
1033.653846,-0.049679,0.001000,0.001000,0.001000,0.001000,0.001000
1033.673077,-0.049520,0.001000,0.001000,0.001000,0.001000,0.001000
1033.692308,-0.049328,0.001000,0.001000,0.001000,0.001000,0.001000
1033.711538,-0.049105,0.001000,0.001000,0.001000,0.001000,0.001000
1033.730769,-0.048849,0.001000,0.001000,0.001000,0.001000,0.001000
1033.750000,-0.048563,0.001000,0.001000,0.001000,0.001000,0.001000
1033.769231,-0.048245,0.001000,0.001000,0.001000,0.001000,0.001000
1033.788462,-0.047896,0.001000,0.001000,0.001000,0.001000,0.001000
1033.807692,-0.047516,0.001000,0.001000,0.001000,0.001000,0.001000
1033.826923,-0.047105,0.001000,0.001000,0.001000,0.001000,0.001000
1033.846154,-0.046664,0.001000,0.001000,0.001000,0.001000,0.001000
1033.865385,-0.046193,0.001000,0.001000,0.001000,0.001000,0.001000
1033.884615,-0.045693,0.001000,0.001000,0.001000,0.001000,0.001000
1033.903846,-0.045162,0.001000,0.001000,0.001000,0.001000,0.001000
1033.923077,-0.044603,0.001000,0.001000,0.001000,0.001000,0.001000
1033.942308,-0.044015,0.001000,0.001000,0.001000,0.001000,0.001000
1033.961538,-0.043398,0.001000,0.001000,0.001000,0.001000,0.001000
1033.980769,-0.042753,0.001000,0.001000,0.001000,0.001000,0.001000
1034.000000,-0.042081,0.001000,0.001000,0.001000,0.001000,0.001000
1034.019231,-0.041382,0.001000,0.001000,0.001000,0.001000,0.001000
1034.038462,-0.040656,0.001000,0.001000,0.001000,0.001000,0.001000
1034.057692,-0.039903,0.001000,0.001000,0.001000,0.001000,0.001000
1034.076923,-0.039125,0.001000,0.001000,0.001000,0.001000,0.001000
1034.096154,-0.038322,0.001000,0.001000,0.001000,0.001000,0.001000
1034.115385,-0.037494,0.001000,0.001000,0.001000,0.001000,0.001000
1034.134615,-0.036642,0.001000,0.001000,0.001000,0.001000,0.001000
1034.153846,-0.035766,0.001000,0.001000,0.001000,0.001000,0.001000
1034.173077,-0.034867,0.001000,0.001000,0.001000,0.001000,0.001000
1034.192308,-0.033946,0.001000,0.001000,0.001000,0.001000,0.001000
1034.211538,-0.033003,0.001000,0.001000,0.001000,0.001000,0.001000
1034.230769,-0.032038,0.001000,0.001000,0.001000,0.001000,0.001000
1034.250000,-0.031053,0.001000,0.001000,0.001000,0.001000,0.001000
1034.269231,-0.030048,0.001000,0.001000,0.001000,0.001000,0.001000
1034.288462,-0.029023,0.001000,0.001000,0.001000,0.001000,0.001000
1034.307692,-0.027980,0.001000,0.001000,0.001000,0.001000,0.001000
1034.326923,-0.026918,0.001000,0.001000,0.001000,0.001000,0.001000
1034.346154,-0.025840,0.001000,0.001000,0.001000,0.001000,0.001000
1034.365385,-0.024744,0.001000,0.001000,0.001000,0.001000,0.001000
1034.384615,-0.023633,0.001000,0.001000,0.001000,0.001000,0.001000
1034.403846,-0.022506,0.001000,0.001000,0.001000,0.001000,0.001000
1034.423077,-0.021365,0.001000,0.001000,0.001000,0.001000,0.001000
1034.442308,-0.020210,0.001000,0.001000,0.001000,0.001000,0.001000
1034.461538,-0.019042,0.001000,0.001000,0.001000,0.001000,0.001000
1034.480769,-0.017862,0.001000,0.001000,0.001000,0.001000,0.001000
1034.500000,-0.016670,0.001000,0.001000,0.001000,0.001000,0.001000
1034.519231,-0.015468,0.001000,0.001000,0.001000,0.001000,0.001000
1034.538462,-0.014255,0.001000,0.001000,0.001000,0.001000,0.001000
1034.557692,-0.013034,0.001000,0.001000,0.001000,0.001000,0.001000
1034.576923,-0.011804,0.001000,0.001000,0.001000,0.001000,0.001000
1034.596154,-0.010566,0.001000,0.001000,0.001000,0.001000,0.001000
1034.615385,-0.009321,0.001000,0.001000,0.001000,0.001000,0.001000
1034.634615,-0.008071,0.001000,0.001000,0.001000,0.001000,0.001000
1034.653846,-0.006815,0.001000,0.001000,0.001000,0.001000,0.001000
1034.673077,-0.005555,0.001000,0.001000,0.001000,0.001000,0.001000
