timestamp,ax,ay,az,gx,gy,gz
1000.000000,0.000000,0.001000,0.001000,0.001000,0.001000,0.001000
1000.019231,0.001197,0.001000,0.001000,0.001000,0.001000,0.001000
1000.038462,0.002393,0.001000,0.001000,0.001000,0.001000,0.001000
1000.057692,0.003588,0.001000,0.001000,0.001000,0.001000,0.001000
1000.076923,0.004781,0.001000,0.001000,0.001000,0.001000,0.001000
1000.096154,0.005971,0.001000,0.001000,0.001000,0.001000,0.001000
1000.115385,0.007158,0.001000,0.001000,0.001000,0.001000,0.001000
1000.134615,0.008341,0.001000,0.001000,0.001000,0.001000,0.001000
1000.153846,0.009519,0.001000,0.001000,0.001000,0.001000,0.001000
1000.173077,0.010691,0.001000,0.001000,0.001000,0.001000,0.001000
1000.192308,0.011857,0.001000,0.001000,0.001000,0.001000,0.001000
1000.211538,0.013017,0.001000,0.001000,0.001000,0.001000,0.001000
1000.230769,0.014169,0.001000,0.001000,0.001000,0.001000,0.001000
1000.250000,0.015313,0.001000,0.001000,0.001000,0.001000,0.001000
1000.269231,0.016448,0.001000,0.001000,0.001000,0.001000,0.001000
1000.288462,0.017573,0.001000,0.001000,0.001000,0.001000,0.001000
1000.307692,0.018689,0.001000,0.001000,0.001000,0.001000,0.001000
1000.326923,0.019794,0.001000,0.001000,0.001000,0.001000,0.001000
1000.346154,0.020887,0.001000,0.001000,0.001000,0.001000,0.001000
1000.365385,0.021969,0.001000,0.001000,0.001000,0.001000,0.001000
1000.384615,0.023038,0.001000,0.001000,0.001000,0.001000,0.001000
1000.403846,0.024094,0.001000,0.001000,0.001000,0.001000,0.001000
1000.423077,0.025136,0.001000,0.001000,0.001000,0.001000,0.001000
1000.442308,0.026163,0.001000,0.001000,0.001000,0.001000,0.001000
1000.461538,0.027176,0.001000,0.001000,0.001000,0.001000,0.001000
1000.480769,0.028173,0.001000,0.001000,0.001000,0.001000,0.001000
1000.500000,0.029154,0.001000,0.001000,0.001000,0.001000,0.001000
1000.519231,0.030118,0.001000,0.001000,0.001000,0.001000,0.001000
1000.538462,0.031065,0.001000,0.001000,0.001000,0.001000,0.001000
1000.557692,0.031994,0.001000,0.001000,0.001000,0.001000,0.001000
1000.576923,0.032904,0.001000,0.001000,0.001000,0.001000,0.001000
1000.596154,0.033796,0.001000,0.001000,0.001000,0.001000,0.001000
1000.615385,0.034669,0.001000,0.001000,0.001000,0.001000,0.001000
1000.634615,0.035521,0.001000,0.001000,0.001000,0.001000,0.001000
1000.653846,0.036354,0.001000,0.001000,0.001000,0.001000,0.001000
1000.673077,0.037165,0.001000,0.001000,0.001000,0.001000,0.001000
1000.692308,0.037955,0.001000,0.001000,0.001000,0.001000,0.001000
1000.711538,0.038723,0.001000,0.001000,0.001000,0.001000,0.001000
1000.730769,0.039470,0.001000,0.001000,0.001000,0.001000,0.001000
1000.750000,0.040193,0.001000,0.001000,0.001000,0.001000,0.001000
1000.769231,0.040894,0.001000,0.001000,0.001000,0.001000,0.001000
1000.788462,0.041571,0.001000,0.001000,0.001000,0.001000,0.001000
1000.807692,0.042224,0.001000,0.001000,0.001000,0.001000,0.001000
1000.826923,0.042853,0.001000,0.001000,0.001000,0.001000,0.001000
1000.846154,0.043457,0.001000,0.001000,0.001000,0.001000,0.001000
1000.865385,0.044037,0.001000,0.001000,0.001000,0.001000,0.001000
1000.884615,0.044591,0.001000,0.001000,0.001000,0.001000,0.001000
1000.903846,0.045120,0.001000,0.001000,0.001000,0.001000,0.001000
1000.923077,0.045623,0.001000,0.001000,0.001000,0.001000,0.001000
1000.942308,0.046099,0.001000,0.001000,0.001000,0.001000,0.001000
1000.961538,0.046550,0.001000,0.001000,0.001000,0.001000,0.001000
1000.980769,0.046973,0.001000,0.001000,0.001000,0.001000,0.001000
1001.000000,0.047370,0.001000,0.001000,0.001000,0.001000,0.001000
1001.019231,0.047740,0.001000,0.001000,0.001000,0.001000,0.001000
1001.038462,0.048082,0.001000,0.001000,0.001000,0.001000,0.001000
1001.057692,0.048396,0.001000,0.001000,0.001000,0.001000,0.001000
1001.076923,0.048683,0.001000,0.001000,0.001000,0.001000,0.001000
1001.096154,0.048942,0.001000,0.001000,0.001000,0.001000,0.001000
1001.115385,0.049173,0.001000,0.001000,0.001000,0.001000,0.001000
1001.134615,0.049376,0.001000,0.001000,0.001000,0.001000,0.001000
1001.153846,0.049550,0.001000,0.001000,0.001000,0.001000,0.001000
1001.173077,0.049696,0.001000,0.001000,0.001000,0.001000,0.001000
1001.192308,0.049814,0.001000,0.001000,0.001000,0.001000,0.001000
1001.211538,0.049903,0.001000,0.001000,0.001000,0.001000,0.001000
1001.230769,0.049963,0.001000,0.001000,0.001000,0.001000,0.001000
1001.250000,0.049995,0.001000,0.001000,0.001000,0.001000,0.001000
1001.269231,0.049998,0.001000,0.001000,0.001000,0.001000,0.001000
1001.288462,0.049972,0.001000,0.001000,0.001000,0.001000,0.001000
1001.307692,0.049918,0.001000,0.001000,0.001000,0.001000,0.001000
1001.326923,0.049835,0.001000,0.001000,0.001000,0.001000,0.001000
1001.346154,0.049724,0.001000,0.001000,0.001000,0.001000,0.001000
1001.365385,0.049584,0.001000,0.001000,0.001000,0.001000,0.001000
1001.384615,0.049415,0.001000,0.001000,0.001000,0.001000,0.001000
1001.403846,0.049219,0.001000,0.001000,0.001000,0.001000,0.001000
1001.423077,0.048994,0.001000,0.001000,0.001000,0.001000,0.001000
1001.442308,0.048741,0.001000,0.001000,0.001000,0.001000,0.001000
1001.461538,0.048460,0.001000,0.001000,0.001000,0.001000,0.001000
1001.480769,0.048151,0.001000,0.001000,0.001000,0.001000,0.001000
1001.500000,0.047815,0.001000,0.001000,0.001000,0.001000,0.001000
1001.519231,0.047451,0.001000,0.001000,0.001000,0.001000,0.001000
1001.538462,0.047060,0.001000,0.001000,0.001000,0.001000,0.001000
1001.557692,0.046643,0.001000,0.001000,0.001000,0.001000,0.001000
1001.576923,0.046198,0.001000,0.001000,0.001000,0.001000,0.001000
1001.596154,0.045727,0.001000,0.001000,0.001000,0.001000,0.001000
1001.615385,0.045230,0.001000,0.001000,0.001000,0.001000,0.001000
1001.634615,0.044706,0.001000,0.001000,0.001000,0.001000,0.001000
1001.653846,0.044157,0.001000,0.001000,0.001000,0.001000,0.001000
1001.673077,0.043583,0.001000,0.001000,0.001000,0.001000,0.001000
1001.692308,0.042984,0.001000,0.001000,0.001000,0.001000,0.001000
1001.711538,0.042360,0.001000,0.001000,0.001000,0.001000,0.001000
1001.730769,0.041712,0.001000,0.001000,0.001000,0.001000,0.001000
1001.750000,0.041040,0.001000,0.001000,0.001000,0.001000,0.001000
1001.769231,0.040345,0.001000,0.001000,0.001000,0.001000,0.001000
1001.788462,0.039626,0.001000,0.001000,0.001000,0.001000,0.001000
1001.807692,0.038885,0.001000,0.001000,0.001000,0.001000,0.001000
1001.826923,0.038121,0.001000,0.001000,0.001000,0.001000,0.001000
1001.846154,0.037336,0.001000,0.001000,0.001000,0.001000,0.001000
1001.865385,0.036529,0.001000,0.001000,0.001000,0.001000,0.001000
1001.884615,0.035701,0.001000,0.001000,0.001000,0.001000,0.001000
1001.903846,0.034853,0.001000,0.001000,0.001000,0.001000,0.001000
1001.923077,0.033984,0.001000,0.001000,0.001000,0.001000,0.001000
1001.942308,0.033097,0.001000,0.001000,0.001000,0.001000,0.001000
1001.961538,0.032190,0.001000,0.001000,0.001000,0.001000,0.001000
1001.980769,0.031265,0.001000,0.001000,0.001000,0.001000,0.001000
1002.000000,0.030322,0.001000,0.001000,0.001000,0.001000,0.001000
1002.019231,0.029361,0.001000,0.001000,0.001000,0.001000,0.001000
1002.038462,0.028384,0.001000,0.001000,0.001000,0.001000,0.001000
1002.057692,0.027390,0.001000,0.001000,0.001000,0.001000,0.001000
1002.076923,0.026381,0.001000,0.001000,0.001000,0.001000,0.001000
1002.096154,0.025357,0.001000,0.001000,0.001000,0.001000,0.001000
1002.115385,0.024318,0.001000,0.001000,0.001000,0.001000,0.001000
1002.134615,0.023265,0.001000,0.001000,0.001000,0.001000,0.001000
1002.153846,0.022199,0.001000,0.001000,0.001000,0.001000,0.001000
1002.173077,0.021120,0.001000,0.001000,0.001000,0.001000,0.001000
1002.192308,0.020029,0.001000,0.001000,0.001000,0.001000,0.001000
1002.211538,0.018926,0.001000,0.001000,0.001000,0.001000,0.001000
1002.230769,0.017813,0.001000,0.001000,0.001000,0.001000,0.001000
1002.250000,0.016689,0.001000,0.001000,0.001000,0.001000,0.001000
1002.269231,0.015556,0.001000,0.001000,0.001000,0.001000,0.001000
1002.288462,0.014414,0.001000,0.001000,0.001000,0.001000,0.001000
1002.307692,0.013264,0.001000,0.001000,0.001000,0.001000,0.001000
1002.326923,0.012106,0.001000,0.001000,0.001000,0.001000,0.001000
1002.346154,0.010941,0.001000,0.001000,0.001000,0.001000,0.001000
1002.365385,0.009770,0.001000,0.001000,0.001000,0.001000,0.001000
1002.384615,0.008593,0.001000,0.001000,0.001000,0.001000,0.001000
1002.403846,0.007411,0.001000,0.001000,0.001000,0.001000,0.001000
1002.423077,0.006225,0.001000,0.001000,0.001000,0.001000,0.001000
1002.442308,0.005036,0.001000,0.001000,0.001000,0.001000,0.001000
1002.461538,0.003844,0.001000,0.001000,0.001000,0.001000,0.001000
1002.480769,0.002649,0.001000,0.001000,0.001000,0.001000,0.001000
1002.500000,0.001453,0.001000,0.001000,0.001000,0.001000,0.001000
1002.519231,0.000256,0.001000,0.001000,0.001000,0.001000,0.001000
1002.538462,-0.000941,0.001000,0.001000,0.001000,0.001000,0.001000
1002.557692,-0.002138,0.001000,0.001000,0.001000,0.001000,0.001000
1002.576923,-0.003333,0.001000,0.001000,0.001000,0.001000,0.001000
1002.596154,-0.004526,0.001000,0.001000,0.001000,0.001000,0.001000
1002.615385,-0.005717,0.001000,0.001000,0.001000,0.001000,0.001000
1002.634615,-0.006905,0.001000,0.001000,0.001000,0.001000,0.001000
1002.653846,-0.008088,0.001000,0.001000,0.001000,0.001000,0.001000
1002.673077,-0.009267,0.001000,0.001000,0.001000,0.001000,0.001000
1002.692308,-0.010441,0.001000,0.001000,0.001000,0.001000,0.001000
1002.711538,-0.011608,0.001000,0.001000,0.001000,0.001000,0.001000
1002.730769,-0.012769,0.001000,0.001000,0.001000,0.001000,0.001000
1002.750000,-0.013923,0.001000,0.001000,0.001000,0.001000,0.001000
1002.769231,-0.015069,0.001000,0.001000,0.001000,0.001000,0.001000
1002.788462,-0.016206,0.001000,0.001000,0.001000,0.001000,0.001000
1002.807692,-0.017333,0.001000,0.001000,0.001000,0.001000,0.001000
1002.826923,-0.018451,0.001000,0.001000,0.001000,0.001000,0.001000
1002.846154,-0.019558,0.001000,0.001000,0.001000,0.001000,0.001000
1002.865385,-0.020655,0.001000,0.001000,0.001000,0.001000,0.001000
1002.884615,-0.021739,0.001000,0.001000,0.001000,0.001000,0.001000
1002.903846,-0.022810,0.001000,0.001000,0.001000,0.001000,0.001000
1002.923077,-0.023869,0.001000,0.001000,0.001000,0.001000,0.001000
1002.942308,-0.024914,0.001000,0.001000,0.001000,0.001000,0.001000
1002.961538,-0.025945,0.001000,0.001000,0.001000,0.001000,0.001000
1002.980769,-0.026961,0.001000,0.001000,0.001000,0.001000,0.001000
1003.000000,-0.027961,0.001000,0.001000,0.001000,0.001000,0.001000
1003.019231,-0.028945,0.001000,0.001000,0.001000,0.001000,0.001000
1003.038462,-0.029913,0.001000,0.001000,0.001000,0.001000,0.001000
1003.057692,-0.030864,0.001000,0.001000,0.001000,0.001000,0.001000
1003.076923,-0.031796,0.001000,0.001000,0.001000,0.001000,0.001000
1003.096154,-0.032711,0.001000,0.001000,0.001000,0.001000,0.001000
1003.115385,-0.033607,0.001000,0.001000,0.001000,0.001000,0.001000
1003.134615,-0.034484,0.001000,0.001000,0.001000,0.001000,0.001000
1003.153846,-0.035341,0.001000,0.001000,0.001000,0.001000,0.001000
1003.173077,-0.036177,0.001000,0.001000,0.001000,0.001000,0.001000
1003.192308,-0.036993,0.001000,0.001000,0.001000,0.001000,0.001000
1003.211538,-0.037788,0.001000,0.001000,0.001000,0.001000,0.001000
1003.230769,-0.038561,0.001000,0.001000,0.001000,0.001000,0.001000
1003.250000,-0.039312,0.001000,0.001000,0.001000,0.001000,0.001000
1003.269231,-0.040040,0.001000,0.001000,0.001000,0.001000,0.001000
1003.288462,-0.040746,0.001000,0.001000,0.001000,0.001000,0.001000
1003.307692,-0.041428,0.001000,0.001000,0.001000,0.001000,0.001000
1003.326923,-0.042086,0.001000,0.001000,0.001000,0.001000,0.001000
1003.346154,-0.042720,0.001000,0.001000,0.001000,0.001000,0.001000
1003.365385,-0.043330,0.001000,0.001000,0.001000,0.001000,0.001000
1003.384615,-0.043915,0.001000,0.001000,0.001000,0.001000,0.001000
1003.403846,-0.044475,0.001000,0.001000,0.001000,0.001000,0.001000
1003.423077,-0.045009,0.001000,0.001000,0.001000,0.001000,0.001000
1003.442308,-0.045517,0.001000,0.001000,0.001000,0.001000,0.001000
1003.461538,-0.046000,0.001000,0.001000,0.001000,0.001000,0.001000
1003.480769,-0.046456,0.001000,0.001000,0.001000,0.001000,0.001000
1003.500000,-0.046885,0.001000,0.001000,0.001000,0.001000,0.001000
1003.519231,-0.047287,0.001000,0.001000,0.001000,0.001000,0.001000
1003.538462,-0.047663,0.001000,0.001000,0.001000,0.001000,0.001000
1003.557692,-0.048011,0.001000,0.001000,0.001000,0.001000,0.001000
1003.576923,-0.048331,0.001000,0.001000,0.001000,0.001000,0.001000
1003.596154,-0.048624,0.001000,0.001000,0.001000,0.001000,0.001000
1003.615385,-0.048889,0.001000,0.001000,0.001000,0.001000,0.001000
1003.634615,-0.049126,0.001000,0.001000,0.001000,0.001000,0.001000
1003.653846,-0.049335,0.001000,0.001000,0.001000,0.001000,0.001000
1003.673077,-0.049515,0.001000,0.001000,0.001000,0.001000,0.001000
1003.692308,-0.049667,0.001000,0.001000,0.001000,0.001000,0.001000
1003.711538,-0.049791,0.001000,0.001000,0.001000,0.001000,0.001000
1003.730769,-0.049886,0.001000,0.001000,0.001000,0.001000,0.001000
1003.750000,-0.049952,0.001000,0.001000,0.001000,0.001000,0.001000
1003.769231,-0.049990,0.001000,0.001000,0.001000,0.001000,0.001000
1003.788462,-0.050000,0.001000,0.001000,0.001000,0.001000,0.001000
1003.807692,-0.049980,0.001000,0.001000,0.001000,0.001000,0.001000
1003.826923,-0.049932,0.001000,0.001000,0.001000,0.001000,0.001000
1003.846154,-0.049855,0.001000,0.001000,0.001000,0.001000,0.001000
1003.865385,-0.049750,0.001000,0.001000,0.001000,0.001000,0.001000
1003.884615,-0.049616,0.001000,0.001000,0.001000,0.001000,0.001000
1003.903846,-0.049454,0.001000,0.001000,0.001000,0.001000,0.001000
1003.923077,-0.049263,0.001000,0.001000,0.001000,0.001000,0.001000
1003.942308,-0.049044,0.001000,0.001000,0.001000,0.001000,0.001000
1003.961538,-0.048797,0.001000,0.001000,0.001000,0.001000,0.001000
1003.980769,-0.048522,0.001000,0.001000,0.001000,0.001000,0.001000
1004.000000,-0.048220,0.001000,0.001000,0.001000,0.001000,0.001000
1004.019231,-0.047889,0.001000,0.001000,0.001000,0.001000,0.001000
1004.038462,-0.047531,0.001000,0.001000,0.001000,0.001000,0.001000
1004.057692,-0.047146,0.001000,0.001000,0.001000,0.001000,0.001000
1004.076923,-0.046734,0.001000,0.001000,0.001000,0.001000,0.001000
1004.096154,-0.046295,0.001000,0.001000,0.001000,0.001000,0.001000
1004.115385,-0.045830,0.001000,0.001000,0.001000,0.001000,0.001000
1004.134615,-0.045338,0.001000,0.001000,0.001000,0.001000,0.001000
1004.153846,-0.044820,0.001000,0.001000,0.001000,0.001000,0.001000
1004.173077,-0.044277,0.001000,0.001000,0.001000,0.001000,0.001000
1004.192308,-0.043708,0.001000,0.001000,0.001000,0.001000,0.001000
1004.211538,-0.043114,0.001000,0.001000,0.001000,0.001000,0.001000
1004.230769,-0.042496,0.001000,0.001000,0.001000,0.001000,0.001000
1004.250000,-0.041853,0.001000,0.001000,0.001000,0.001000,0.001000
1004.269231,-0.041186,0.001000,0.001000,0.001000,0.001000,0.001000
1004.288462,-0.040496,0.001000,0.001000,0.001000,0.001000,0.001000
1004.307692,-0.039782,0.001000,0.001000,0.001000,0.001000,0.001000
1004.326923,-0.039045,0.001000,0.001000,0.001000,0.001000,0.001000
1004.346154,-0.038286,0.001000,0.001000,0.001000,0.001000,0.001000
1004.365385,-0.037506,0.001000,0.001000,0.001000,0.001000,0.001000
1004.384615,-0.036703,0.001000,0.001000,0.001000,0.001000,0.001000
1004.403846,-0.035880,0.001000,0.001000,0.001000,0.001000,0.001000
1004.423077,-0.035036,0.001000,0.001000,0.001000,0.001000,0.001000
1004.442308,-0.034172,0.001000,0.001000,0.001000,0.001000,0.001000
1004.461538,-0.033288,0.001000,0.001000,0.001000,0.001000,0.001000
1004.480769,-0.032385,0.001000,0.001000,0.001000,0.001000,0.001000
1004.500000,-0.031464,0.001000,0.001000,0.001000,0.001000,0.001000
1004.519231,-0.030525,0.001000,0.001000,0.001000,0.001000,0.001000
1004.538462,-0.029568,0.001000,0.001000,0.001000,0.001000,0.001000
1004.557692,-0.028594,0.001000,0.001000,0.001000,0.001000,0.001000
1004.576923,-0.027604,0.001000,0.001000,0.001000,0.001000,0.001000
1004.596154,-0.026598,0.001000,0.001000,0.001000,0.001000,0.001000
1004.615385,-0.025577,0.001000,0.001000,0.001000,0.001000,0.001000
1004.634615,-0.024541,0.001000,0.001000,0.001000,0.001000,0.001000
1004.653846,-0.023491,0.001000,0.001000,0.001000,0.001000,0.001000
1004.673077,-0.022428,0.001000,0.001000,0.001000,0.001000,0.001000
1004.692308,-0.021352,0.001000,0.001000,0.001000,0.001000,0.001000
1004.711538,-0.020263,0.001000,0.001000,0.001000,0.001000,0.001000
1004.730769,-0.019163,0.001000,0.001000,0.001000,0.001000,0.001000
1004.750000,-0.018052,0.001000,0.001000,0.001000,0.001000,0.001000
1004.769231,-0.016930,0.001000,0.001000,0.001000,0.001000,0.001000
1004.788462,-0.015799,0.001000,0.001000,0.001000,0.001000,0.001000
1004.807692,-0.014659,0.001000,0.001000,0.001000,0.001000,0.001000
1004.826923,-0.013510,0.001000,0.001000,0.001000,0.001000,0.001000
1004.846154,-0.012354,0.001000,0.001000,0.001000,0.001000,0.001000
1004.865385,-0.011191,0.001000,0.001000,0.001000,0.001000,0.001000
1004.884615,-0.010021,0.001000,0.001000,0.001000,0.001000,0.001000
1004.903846,-0.008845,0.001000,0.001000,0.001000,0.001000,0.001000
1004.923077,-0.007664,0.001000,0.001000,0.001000,0.001000,0.001000
1004.942308,-0.006479,0.001000,0.001000,0.001000,0.001000,0.001000
1004.961538,-0.005291,0.001000,0.001000,0.001000,0.001000,0.001000
1004.980769,-0.004099,0.001000,0.001000,0.001000,0.001000,0.001000
1005.000000,-0.002905,0.001000,0.001000,0.001000,0.001000,0.001000
1005.019231,-0.001709,0.001000,0.001000,0.001000,0.001000,0.001000
1005.038462,-0.000512,0.001000,0.001000,0.001000,0.001000,0.001000
1005.057692,0.000685,0.001000,0.001000,0.001000,0.001000,0.001000
1005.076923,0.001882,0.001000,0.001000,0.001000,0.001000,0.001000
1005.096154,0.003077,0.001000,0.001000,0.001000,0.001000,0.001000
1005.115385,0.004271,0.001000,0.001000,0.001000,0.001000,0.001000
1005.134615,0.005463,0.001000,0.001000,0.001000,0.001000,0.001000
1005.153846,0.006651,0.001000,0.001000,0.001000,0.001000,0.001000
1005.173077,0.007835,0.001000,0.001000,0.001000,0.001000,0.001000
1005.192308,0.009015,0.001000,0.001000,0.001000,0.001000,0.001000
1005.211538,0.010190,0.001000,0.001000,0.001000,0.001000,0.001000
1005.230769,0.011359,0.001000,0.001000,0.001000,0.001000,0.001000
1005.250000,0.012522,0.001000,0.001000,0.001000,0.001000,0.001000
1005.269231,0.013677,0.001000,0.001000,0.001000,0.001000,0.001000
1005.288462,0.014824,0.001000,0.001000,0.001000,0.001000,0.001000
1005.307692,0.015963,0.001000,0.001000,0.001000,0.001000,0.001000
1005.326923,0.017093,0.001000,0.001000,0.001000,0.001000,0.001000
1005.346154,0.018213,0.001000,0.001000,0.001000,0.001000,0.001000
1005.365385,0.019323,0.001000,0.001000,0.001000,0.001000,0.001000
1005.384615,0.020421,0.001000,0.001000,0.001000,0.001000,0.001000
1005.403846,0.021508,0.001000,0.001000,0.001000,0.001000,0.001000
1005.423077,0.022582,0.001000,0.001000,0.001000,0.001000,0.001000
1005.442308,0.023644,0.001000,0.001000,0.001000,0.001000,0.001000
1005.461538,0.024692,0.001000,0.001000,0.001000,0.001000,0.001000
1005.480769,0.025726,0.001000,0.001000,0.001000,0.001000,0.001000
1005.500000,0.026745,0.001000,0.001000,0.001000,0.001000,0.001000
1005.519231,0.027748,0.001000,0.001000,0.001000,0.001000,0.001000
1005.538462,0.028736,0.001000,0.001000,0.001000,0.001000,0.001000
1005.557692,0.029707,0.001000,0.001000,0.001000,0.001000,0.001000
1005.576923,0.030662,0.001000,0.001000,0.001000,0.001000,0.001000
1005.596154,0.031598,0.001000,0.001000,0.001000,0.001000,0.001000
1005.615385,0.032517,0.001000,0.001000,0.001000,0.001000,0.001000
1005.634615,0.033417,0.001000,0.001000,0.001000,0.001000,0.001000
1005.653846,0.034298,0.001000,0.001000,0.001000,0.001000,0.001000
1005.673077,0.035159,0.001000,0.001000,0.001000,0.001000,0.001000
1005.692308,0.036000,0.001000,0.001000,0.001000,0.001000,0.001000
1005.711538,0.036820,0.001000,0.001000,0.001000,0.001000,0.001000
1005.730769,0.037620,0.001000,0.001000,0.001000,0.001000,0.001000
1005.750000,0.038397,0.001000,0.001000,0.001000,0.001000,0.001000
1005.769231,0.039153,0.001000,0.001000,0.001000,0.001000,0.001000
1005.788462,0.039886,0.001000,0.001000,0.001000,0.001000,0.001000
1005.807692,0.040597,0.001000,0.001000,0.001000,0.001000,0.001000
1005.826923,0.041284,0.001000,0.001000,0.001000,0.001000,0.001000
1005.846154,0.041947,0.001000,0.001000,0.001000,0.001000,0.001000
1005.865385,0.042587,0.001000,0.001000,0.001000,0.001000,0.001000
1005.884615,0.043202,0.001000,0.001000,0.001000,0.001000,0.001000
1005.903846,0.043792,0.001000,0.001000,0.001000,0.001000,0.001000
1005.923077,0.044357,0.001000,0.001000,0.001000,0.001000,0.001000
1005.942308,0.044897,0.001000,0.001000,0.001000,0.001000,0.001000
1005.961538,0.045411,0.001000,0.001000,0.001000,0.001000,0.001000
1005.980769,0.045899,0.001000,0.001000,0.001000,0.001000,0.001000
1006.000000,0.046360,0.001000,0.001000,0.001000,0.001000,0.001000
1006.019231,0.046795,0.001000,0.001000,0.001000,0.001000,0.001000
1006.038462,0.047204,0.001000,0.001000,0.001000,0.001000,0.001000
1006.057692,0.047585,0.001000,0.001000,0.001000,0.001000,0.001000
1006.076923,0.047939,0.001000,0.001000,0.001000,0.001000,0.001000
1006.096154,0.048265,0.001000,0.001000,0.001000,0.001000,0.001000
1006.115385,0.048564,0.001000,0.001000,0.001000,0.001000,0.001000
1006.134615,0.048835,0.001000,0.001000,0.001000,0.001000,0.001000
1006.153846,0.049078,0.001000,0.001000,0.001000,0.001000,0.001000
1006.173077,0.049292,0.001000,0.001000,0.001000,0.001000,0.001000
1006.192308,0.049479,0.001000,0.001000,0.001000,0.001000,0.001000
1006.211538,0.049637,0.001000,0.001000,0.001000,0.001000,0.001000
1006.230769,0.049767,0.001000,0.001000,0.001000,0.001000,0.001000
1006.250000,0.049868,0.001000,0.001000,0.001000,0.001000,0.001000
1006.269231,0.049941,0.001000,0.001000,0.001000,0.001000,0.001000
1006.288462,0.049985,0.001000,0.001000,0.001000,0.001000,0.001000
1006.307692,0.050000,0.001000,0.001000,0.001000,0.001000,0.001000
1006.326923,0.049987,0.001000,0.001000,0.001000,0.001000,0.001000
1006.346154,0.049945,0.001000,0.001000,0.001000,0.001000,0.001000
1006.365385,0.049874,0.001000,0.001000,0.001000,0.001000,0.001000
1006.384615,0.049775,0.001000,0.001000,0.001000,0.001000,0.001000
1006.403846,0.049647,0.001000,0.001000,0.001000,0.001000,0.001000
1006.423077,0.049491,0.001000,0.001000,0.001000,0.001000,0.001000
1006.442308,0.049306,0.001000,0.001000,0.001000,0.001000,0.001000
1006.461538,0.049093,0.001000,0.001000,0.001000,0.001000,0.001000
1006.480769,0.048853,0.001000,0.001000,0.001000,0.001000,0.001000
1006.500000,0.048584,0.001000,0.001000,0.001000,0.001000,0.001000
1006.519231,0.048287,0.001000,0.001000,0.001000,0.001000,0.001000
1006.538462,0.047962,0.001000,0.001000,0.001000,0.001000,0.001000
1006.557692,0.047610,0.001000,0.001000,0.001000,0.001000,0.001000
1006.576923,0.047231,0.001000,0.001000,0.001000,0.001000,0.001000
1006.596154,0.046825,0.001000,0.001000,0.001000,0.001000,0.001000
1006.615385,0.046391,0.001000,0.001000,0.001000,0.001000,0.001000
1006.634615,0.045932,0.001000,0.001000,0.001000,0.001000,0.001000
1006.653846,0.045445,0.001000,0.001000,0.001000,0.001000,0.001000
1006.673077,0.044933,0.001000,0.001000,0.001000,0.001000,0.001000
1006.692308,0.044395,0.001000,0.001000,0.001000,0.001000,0.001000
1006.711538,0.043832,0.001000,0.001000,0.001000,0.001000,0.001000
1006.730769,0.043243,0.001000,0.001000,0.001000,0.001000,0.001000
1006.750000,0.042630,0.001000,0.001000,0.001000,0.001000,0.001000
1006.769231,0.041992,0.001000,0.001000,0.001000,0.001000,0.001000
1006.788462,0.041331,0.001000,0.001000,0.001000,0.001000,0.001000
1006.807692,0.040645,0.001000,0.001000,0.001000,0.001000,0.001000
1006.826923,0.039936,0.001000,0.001000,0.001000,0.001000,0.001000
1006.846154,0.039205,0.001000,0.001000,0.001000,0.001000,0.001000
1006.865385,0.038451,0.001000,0.001000,0.001000,0.001000,0.001000
1006.884615,0.037674,0.001000,0.001000,0.001000,0.001000,0.001000
1006.903846,0.036877,0.001000,0.001000,0.001000,0.001000,0.001000
1006.923077,0.036058,0.001000,0.001000,0.001000,0.001000,0.001000
1006.942308,0.035218,0.001000,0.001000,0.001000,0.001000,0.001000
1006.961538,0.034358,0.001000,0.001000,0.001000,0.001000,0.001000
1006.980769,0.033479,0.001000,0.001000,0.001000,0.001000,0.001000
1007.000000,0.032580,0.001000,0.001000,0.001000,0.001000,0.001000
1007.019231,0.031663,0.001000,0.001000,0.001000,0.001000,0.001000
1007.038462,0.030727,0.001000,0.001000,0.001000,0.001000,0.001000
1007.057692,0.029774,0.001000,0.001000,0.001000,0.001000,0.001000
1007.076923,0.028804,0.001000,0.001000,0.001000,0.001000,0.001000
1007.096154,0.027817,0.001000,0.001000,0.001000,0.001000,0.001000
1007.115385,0.026815,0.001000,0.001000,0.001000,0.001000,0.001000
1007.134615,0.025797,0.001000,0.001000,0.001000,0.001000,0.001000
1007.153846,0.024764,0.001000,0.001000,0.001000,0.001000,0.001000
1007.173077,0.023717,0.001000,0.001000,0.001000,0.001000,0.001000
1007.192308,0.022656,0.001000,0.001000,0.001000,0.001000,0.001000
1007.211538,0.021583,0.001000,0.001000,0.001000,0.001000,0.001000
1007.230769,0.020497,0.001000,0.001000,0.001000,0.001000,0.001000
1007.250000,0.019399,0.001000,0.001000,0.001000,0.001000,0.001000
1007.269231,0.018290,0.001000,0.001000,0.001000,0.001000,0.001000
1007.288462,0.017171,0.001000,0.001000,0.001000,0.001000,0.001000
1007.307692,0.016042,0.001000,0.001000,0.001000,0.001000,0.001000
1007.326923,0.014904,0.001000,0.001000,0.001000,0.001000,0.001000
1007.346154,0.013757,0.001000,0.001000,0.001000,0.001000,0.001000
1007.365385,0.012602,0.001000,0.001000,0.001000,0.001000,0.001000
1007.384615,0.011440,0.001000,0.001000,0.001000,0.001000,0.001000
1007.403846,0.010271,0.001000,0.001000,0.001000,0.001000,0.001000
1007.423077,0.009097,0.001000,0.001000,0.001000,0.001000,0.001000
1007.442308,0.007917,0.001000,0.001000,0.001000,0.001000,0.001000
1007.461538,0.006733,0.001000,0.001000,0.001000,0.001000,0.001000
1007.480769,0.005545,0.001000,0.001000,0.001000,0.001000,0.001000
1007.500000,0.004354,0.001000,0.001000,0.001000,0.001000,0.001000
1007.519231,0.003160,0.001000,0.001000,0.001000,0.001000,0.001000
1007.538462,0.001965,0.001000,0.001000,0.001000,0.001000,0.001000
1007.557692,0.000768,0.001000,0.001000,0.001000,0.001000,0.001000
1007.576923,-0.000429,0.001000,0.001000,0.001000,0.001000,0.001000
1007.596154,-0.001626,0.001000,0.001000,0.001000,0.001000,0.001000
1007.615385,-0.002822,0.001000,0.001000,0.001000,0.001000,0.001000
1007.634615,-0.004016,0.001000,0.001000,0.001000,0.001000,0.001000
1007.653846,-0.005208,0.001000,0.001000,0.001000,0.001000,0.001000
1007.673077,-0.006397,0.001000,0.001000,0.001000,0.001000,0.001000
1007.692308,-0.007582,0.001000,0.001000,0.001000,0.001000,0.001000
1007.711538,-0.008763,0.001000,0.001000,0.001000,0.001000,0.001000
1007.730769,-0.009939,0.001000,0.001000,0.001000,0.001000,0.001000
1007.750000,-0.011110,0.001000,0.001000,0.001000,0.001000,0.001000
1007.769231,-0.012274,0.001000,0.001000,0.001000,0.001000,0.001000
1007.788462,-0.013430,0.001000,0.001000,0.001000,0.001000,0.001000
1007.807692,-0.014580,0.001000,0.001000,0.001000,0.001000,0.001000
1007.826923,-0.015720,0.001000,0.001000,0.001000,0.001000,0.001000
1007.846154,-0.016852,0.001000,0.001000,0.001000,0.001000,0.001000
1007.865385,-0.017974,0.001000,0.001000,0.001000,0.001000,0.001000
1007.884615,-0.019086,0.001000,0.001000,0.001000,0.001000,0.001000
1007.903846,-0.020187,0.001000,0.001000,0.001000,0.001000,0.001000
1007.923077,-0.021276,0.001000,0.001000,0.001000,0.001000,0.001000
1007.942308,-0.022354,0.001000,0.001000,0.001000,0.001000,0.001000
1007.961538,-0.023418,0.001000,0.001000,0.001000,0.001000,0.001000
1007.980769,-0.024469,0.001000,0.001000,0.001000,0.001000,0.001000
1008.000000,-0.025506,0.001000,0.001000,0.001000,0.001000,0.001000
1008.019231,-0.026528,0.001000,0.001000,0.001000,0.001000,0.001000
1008.038462,-0.027535,0.001000,0.001000,0.001000,0.001000,0.001000
1008.057692,-0.028526,0.001000,0.001000,0.001000,0.001000,0.001000
1008.076923,-0.029501,0.001000,0.001000,0.001000,0.001000,0.001000
1008.096154,-0.030459,0.001000,0.001000,0.001000,0.001000,0.001000
1008.115385,-0.031400,0.001000,0.001000,0.001000,0.001000,0.001000
1008.134615,-0.032322,0.001000,0.001000,0.001000,0.001000,0.001000
1008.153846,-0.033226,0.001000,0.001000,0.001000,0.001000,0.001000
1008.173077,-0.034111,0.001000,0.001000,0.001000,0.001000,0.001000
1008.192308,-0.034977,0.001000,0.001000,0.001000,0.001000,0.001000
1008.211538,-0.035822,0.001000,0.001000,0.001000,0.001000,0.001000
1008.230769,-0.036647,0.001000,0.001000,0.001000,0.001000,0.001000
1008.250000,-0.037451,0.001000,0.001000,0.001000,0.001000,0.001000
1008.269231,-0.038233,0.001000,0.001000,0.001000,0.001000,0.001000
1008.288462,-0.038993,0.001000,0.001000,0.001000,0.001000,0.001000
1008.307692,-0.039731,0.001000,0.001000,0.001000,0.001000,0.001000
1008.326923,-0.040447,0.001000,0.001000,0.001000,0.001000,0.001000
1008.346154,-0.041139,0.001000,0.001000,0.001000,0.001000,0.001000
1008.365385,-0.041807,0.001000,0.001000,0.001000,0.001000,0.001000
1008.384615,-0.042452,0.001000,0.001000,0.001000,0.001000,0.001000
1008.403846,-0.043072,0.001000,0.001000,0.001000,0.001000,0.001000
1008.423077,-0.043668,0.001000,0.001000,0.001000,0.001000,0.001000
1008.442308,-0.044238,0.001000,0.001000,0.001000,0.001000,0.001000
1008.461538,-0.044784,0.001000,0.001000,0.001000,0.001000,0.001000
1008.480769,-0.045303,0.001000,0.001000,0.001000,0.001000,0.001000
1008.500000,-0.045797,0.001000,0.001000,0.001000,0.001000,0.001000
1008.519231,-0.046264,0.001000,0.001000,0.001000,0.001000,0.001000
1008.538462,-0.046705,0.001000,0.001000,0.001000,0.001000,0.001000
1008.557692,-0.047119,0.001000,0.001000,0.001000,0.001000,0.001000
1008.576923,-0.047506,0.001000,0.001000,0.001000,0.001000,0.001000
1008.596154,-0.047865,0.001000,0.001000,0.001000,0.001000,0.001000
1008.615385,-0.048198,0.001000,0.001000,0.001000,0.001000,0.001000
1008.634615,-0.048502,0.001000,0.001000,0.001000,0.001000,0.001000
1008.653846,-0.048779,0.001000,0.001000,0.001000,0.001000,0.001000
1008.673077,-0.049028,0.001000,0.001000,0.001000,0.001000,0.001000
1008.692308,-0.049249,0.001000,0.001000,0.001000,0.001000,0.001000
1008.711538,-0.049441,0.001000,0.001000,0.001000,0.001000,0.001000
1008.730769,-0.049606,0.001000,0.001000,0.001000,0.001000,0.001000
1008.750000,-0.049742,0.001000,0.001000,0.001000,0.001000,0.001000
1008.769231,-0.049849,0.001000,0.001000,0.001000,0.001000,0.001000
1008.788462,-0.049928,0.001000,0.001000,0.001000,0.001000,0.001000
1008.807692,-0.049978,0.001000,0.001000,0.001000,0.001000,0.001000
1008.826923,-0.049999,0.001000,0.001000,0.001000,0.001000,0.001000
1008.846154,-0.049992,0.001000,0.001000,0.001000,0.001000,0.001000
1008.865385,-0.049956,0.001000,0.001000,0.001000,0.001000,0.001000
1008.884615,-0.049892,0.001000,0.001000,0.001000,0.001000,0.001000
1008.903846,-0.049798,0.001000,0.001000,0.001000,0.001000,0.001000
1008.923077,-0.049677,0.001000,0.001000,0.001000,0.001000,0.001000
1008.942308,-0.049527,0.001000,0.001000,0.001000,0.001000,0.001000
1008.961538,-0.049348,0.001000,0.001000,0.001000,0.001000,0.001000
1008.980769,-0.049141,0.001000,0.001000,0.001000,0.001000,0.001000
1009.000000,-0.048906,0.001000,0.001000,0.001000,0.001000,0.001000
1009.019231,-0.048643,0.001000,0.001000,0.001000,0.001000,0.001000
1009.038462,-0.048353,0.001000,0.001000,0.001000,0.001000,0.001000
1009.057692,-0.048034,0.001000,0.001000,0.001000,0.001000,0.001000
1009.076923,-0.047688,0.001000,0.001000,0.001000,0.001000,0.001000
1009.096154,-0.047314,0.001000,0.001000,0.001000,0.001000,0.001000
1009.115385,-0.046914,0.001000,0.001000,0.001000,0.001000,0.001000
1009.134615,-0.046486,0.001000,0.001000,0.001000,0.001000,0.001000
1009.153846,-0.046032,0.001000,0.001000,0.001000,0.001000,0.001000
1009.173077,-0.045552,0.001000,0.001000,0.001000,0.001000,0.001000
1009.192308,-0.045045,0.001000,0.001000,0.001000,0.001000,0.001000
1009.211538,-0.044513,0.001000,0.001000,0.001000,0.001000,0.001000
1009.230769,-0.043955,0.001000,0.001000,0.001000,0.001000,0.001000
1009.250000,-0.043371,0.001000,0.001000,0.001000,0.001000,0.001000
1009.269231,-0.042763,0.001000,0.001000,0.001000,0.001000,0.001000
1009.288462,-0.042131,0.001000,0.001000,0.001000,0.001000,0.001000
1009.307692,-0.041474,0.001000,0.001000,0.001000,0.001000,0.001000
1009.326923,-0.040794,0.001000,0.001000,0.001000,0.001000,0.001000
1009.346154,-0.040090,0.001000,0.001000,0.001000,0.001000,0.001000
1009.365385,-0.039363,0.001000,0.001000,0.001000,0.001000,0.001000
1009.384615,-0.038614,0.001000,0.001000,0.001000,0.001000,0.001000
1009.403846,-0.037842,0.001000,0.001000,0.001000,0.001000,0.001000
1009.423077,-0.037049,0.001000,0.001000,0.001000,0.001000,0.001000
1009.442308,-0.036235,0.001000,0.001000,0.001000,0.001000,0.001000
1009.461538,-0.035399,0.001000,0.001000,0.001000,0.001000,0.001000
1009.480769,-0.034544,0.001000,0.001000,0.001000,0.001000,0.001000
1009.500000,-0.033669,0.001000,0.001000,0.001000,0.001000,0.001000
1009.519231,-0.032774,0.001000,0.001000,0.001000,0.001000,0.001000
1009.538462,-0.031861,0.001000,0.001000,0.001000,0.001000,0.001000
1009.557692,-0.030929,0.001000,0.001000,0.001000,0.001000,0.001000
1009.576923,-0.029979,0.001000,0.001000,0.001000,0.001000,0.001000
1009.596154,-0.029013,0.001000,0.001000,0.001000,0.001000,0.001000
1009.615385,-0.028030,0.001000,0.001000,0.001000,0.001000,0.001000
1009.634615,-0.027030,0.001000,0.001000,0.001000,0.001000,0.001000
1009.653846,-0.026016,0.001000,0.001000,0.001000,0.001000,0.001000
1009.673077,-0.024986,0.001000,0.001000,0.001000,0.001000,0.001000
1009.692308,-0.023942,0.001000,0.001000,0.001000,0.001000,0.001000
1009.711538,-0.022884,0.001000,0.001000,0.001000,0.001000,0.001000
1009.730769,-0.021813,0.001000,0.001000,0.001000,0.001000,0.001000
1009.750000,-0.020730,0.001000,0.001000,0.001000,0.001000,0.001000
1009.769231,-0.019635,0.001000,0.001000,0.001000,0.001000,0.001000
1009.788462,-0.018528,0.001000,0.001000,0.001000,0.001000,0.001000
1009.807692,-0.017411,0.001000,0.001000,0.001000,0.001000,0.001000
1009.826923,-0.016284,0.001000,0.001000,0.001000,0.001000,0.001000
1009.846154,-0.015148,0.001000,0.001000,0.001000,0.001000,0.001000
1009.865385,-0.014003,0.001000,0.001000,0.001000,0.001000,0.001000
1009.884615,-0.012850,0.001000,0.001000,0.001000,0.001000,0.001000
1009.903846,-0.011689,0.001000,0.001000,0.001000,0.001000,0.001000
1009.923077,-0.010522,0.001000,0.001000,0.001000,0.001000,0.001000
1009.942308,-0.009349,0.001000,0.001000,0.001000,0.001000,0.001000
1009.961538,-0.008170,0.001000,0.001000,0.001000,0.001000,0.001000
1009.980769,-0.006987,0.001000,0.001000,0.001000,0.001000,0.001000
1010.000000,-0.005800,0.001000,0.001000,0.001000,0.001000,0.001000
1010.019231,-0.004609,0.001000,0.001000,0.001000,0.001000,0.001000
1010.038462,-0.003416,0.001000,0.001000,0.001000,0.001000,0.001000
1010.057692,-0.002221,0.001000,0.001000,0.001000,0.001000,0.001000
1010.076923,-0.001024,0.001000,0.001000,0.001000,0.001000,0.001000
1010.096154,0.000173,0.001000,0.001000,0.001000,0.001000,0.001000
1010.115385,0.001370,0.001000,0.001000,0.001000,0.001000,0.001000
1010.134615,0.002566,0.001000,0.001000,0.001000,0.001000,0.001000
1010.153846,0.003761,0.001000,0.001000,0.001000,0.001000,0.001000
1010.173077,0.004953,0.001000,0.001000,0.001000,0.001000,0.001000
1010.192308,0.006143,0.001000,0.001000,0.001000,0.001000,0.001000
1010.211538,0.007329,0.001000,0.001000,0.001000,0.001000,0.001000
1010.230769,0.008511,0.001000,0.001000,0.001000,0.001000,0.001000
1010.250000,0.009688,0.001000,0.001000,0.001000,0.001000,0.001000
1010.269231,0.010860,0.001000,0.001000,0.001000,0.001000,0.001000
1010.288462,0.012025,0.001000,0.001000,0.001000,0.001000,0.001000
1010.307692,0.013184,0.001000,0.001000,0.001000,0.001000,0.001000
1010.326923,0.014335,0.001000,0.001000,0.001000,0.001000,0.001000
1010.346154,0.015477,0.001000,0.001000,0.001000,0.001000,0.001000
1010.365385,0.016611,0.001000,0.001000,0.001000,0.001000,0.001000
1010.384615,0.017735,0.001000,0.001000,0.001000,0.001000,0.001000
1010.403846,0.018849,0.001000,0.001000,0.001000,0.001000,0.001000
1010.423077,0.019953,0.001000,0.001000,0.001000,0.001000,0.001000
1010.442308,0.021044,0.001000,0.001000,0.001000,0.001000,0.001000
1010.461538,0.022124,0.001000,0.001000,0.001000,0.001000,0.001000
1010.480769,0.023191,0.001000,0.001000,0.001000,0.001000,0.001000
1010.500000,0.024245,0.001000,0.001000,0.001000,0.001000,0.001000
1010.519231,0.025285,0.001000,0.001000,0.001000,0.001000,0.001000
1010.538462,0.026311,0.001000,0.001000,0.001000,0.001000,0.001000
1010.557692,0.027321,0.001000,0.001000,0.001000,0.001000,0.001000
1010.576923,0.028316,0.001000,0.001000,0.001000,0.001000,0.001000
1010.596154,0.029294,0.001000,0.001000,0.001000,0.001000,0.001000
1010.615385,0.030256,0.001000,0.001000,0.001000,0.001000,0.001000
1010.634615,0.031200,0.001000,0.001000,0.001000,0.001000,0.001000
1010.653846,0.032126,0.001000,0.001000,0.001000,0.001000,0.001000
1010.673077,0.033034,0.001000,0.001000,0.001000,0.001000,0.001000
1010.692308,0.033924,0.001000,0.001000,0.001000,0.001000,0.001000
1010.711538,0.034793,0.001000,0.001000,0.001000,0.001000,0.001000
1010.730769,0.035643,0.001000,0.001000,0.001000,0.001000,0.001000
1010.750000,0.036472,0.001000,0.001000,0.001000,0.001000,0.001000
1010.769231,0.037280,0.001000,0.001000,0.001000,0.001000,0.001000
1010.788462,0.038067,0.001000,0.001000,0.001000,0.001000,0.001000
1010.807692,0.038833,0.001000,0.001000,0.001000,0.001000,0.001000
1010.826923,0.039576,0.001000,0.001000,0.001000,0.001000,0.001000
1010.846154,0.040296,0.001000,0.001000,0.001000,0.001000,0.001000
1010.865385,0.040993,0.001000,0.001000,0.001000,0.001000,0.001000
1010.884615,0.041666,0.001000,0.001000,0.001000,0.001000,0.001000
1010.903846,0.042316,0.001000,0.001000,0.001000,0.001000,0.001000
1010.923077,0.042942,0.001000,0.001000,0.001000,0.001000,0.001000
1010.942308,0.043543,0.001000,0.001000,0.001000,0.001000,0.001000
1010.961538,0.044118,0.001000,0.001000,0.001000,0.001000,0.001000
1010.980769,0.044669,0.001000,0.001000,0.001000,0.001000,0.001000
1011.000000,0.045194,0.001000,0.001000,0.001000,0.001000,0.001000
1011.019231,0.045693,0.001000,0.001000,0.001000,0.001000,0.001000
1011.038462,0.046166,0.001000,0.001000,0.001000,0.001000,0.001000
1011.057692,0.046613,0.001000,0.001000,0.001000,0.001000,0.001000
1011.076923,0.047032,0.001000,0.001000,0.001000,0.001000,0.001000
1011.096154,0.047425,0.001000,0.001000,0.001000,0.001000,0.001000
1011.115385,0.047791,0.001000,0.001000,0.001000,0.001000,0.001000
1011.134615,0.048129,0.001000,0.001000,0.001000,0.001000,0.001000
1011.153846,0.048439,0.001000,0.001000,0.001000,0.001000,0.001000
1011.173077,0.048722,0.001000,0.001000,0.001000,0.001000,0.001000
1011.192308,0.048977,0.001000,0.001000,0.001000,0.001000,0.001000
1011.211538,0.049204,0.001000,0.001000,0.001000,0.001000,0.001000
1011.230769,0.049403,0.001000,0.001000,0.001000,0.001000,0.001000
1011.250000,0.049573,0.001000,0.001000,0.001000,0.001000,0.001000
1011.269231,0.049715,0.001000,0.001000,0.001000,0.001000,0.001000
1011.288462,0.049828,0.001000,0.001000,0.001000,0.001000,0.001000
1011.307692,0.049913,0.001000,0.001000,0.001000,0.001000,0.001000
1011.326923,0.049969,0.001000,0.001000,0.001000,0.001000,0.001000
1011.346154,0.049997,0.001000,0.001000,0.001000,0.001000,0.001000
1011.365385,0.049996,0.001000,0.001000,0.001000,0.001000,0.001000
1011.384615,0.049966,0.001000,0.001000,0.001000,0.001000,0.001000
1011.403846,0.049908,0.001000,0.001000,0.001000,0.001000,0.001000
1011.423077,0.049821,0.001000,0.001000,0.001000,0.001000,0.001000
1011.442308,0.049705,0.001000,0.001000,0.001000,0.001000,0.001000
1011.461538,0.049561,0.001000,0.001000,0.001000,0.001000,0.001000
1011.480769,0.049389,0.001000,0.001000,0.001000,0.001000,0.001000
1011.500000,0.049188,0.001000,0.001000,0.001000,0.001000,0.001000
1011.519231,0.048959,0.001000,0.001000,0.001000,0.001000,0.001000
1011.538462,0.048702,0.001000,0.001000,0.001000,0.001000,0.001000
1011.557692,0.048417,0.001000,0.001000,0.001000,0.001000,0.001000
1011.576923,0.048104,0.001000,0.001000,0.001000,0.001000,0.001000
1011.596154,0.047764,0.001000,0.001000,0.001000,0.001000,0.001000
1011.615385,0.047397,0.001000,0.001000,0.001000,0.001000,0.001000
1011.634615,0.047002,0.001000,0.001000,0.001000,0.001000,0.001000
1011.653846,0.046580,0.001000,0.001000,0.001000,0.001000,0.001000
1011.673077,0.046132,0.001000,0.001000,0.001000,0.001000,0.001000
1011.692308,0.045657,0.001000,0.001000,0.001000,0.001000,0.001000
1011.711538,0.045156,0.001000,0.001000,0.001000,0.001000,0.001000
1011.730769,0.044629,0.001000,0.001000,0.001000,0.001000,0.001000
1011.750000,0.044076,0.001000,0.001000,0.001000,0.001000,0.001000
1011.769231,0.043498,0.001000,0.001000,0.001000,0.001000,0.001000
1011.788462,0.042896,0.001000,0.001000,0.001000,0.001000,0.001000
1011.807692,0.042268,0.001000,0.001000,0.001000,0.001000,0.001000
1011.826923,0.041617,0.001000,0.001000,0.001000,0.001000,0.001000
1011.846154,0.040941,0.001000,0.001000,0.001000,0.001000,0.001000
1011.865385,0.040242,0.001000,0.001000,0.001000,0.001000,0.001000
1011.884615,0.039520,0.001000,0.001000,0.001000,0.001000,0.001000
1011.903846,0.038776,0.001000,0.001000,0.001000,0.001000,0.001000
1011.923077,0.038009,0.001000,0.001000,0.001000,0.001000,0.001000
1011.942308,0.037220,0.001000,0.001000,0.001000,0.001000,0.001000
1011.961538,0.036411,0.001000,0.001000,0.001000,0.001000,0.001000
1011.980769,0.035580,0.001000,0.001000,0.001000,0.001000,0.001000
1012.000000,0.034729,0.001000,0.001000,0.001000,0.001000,0.001000
1012.019231,0.033857,0.001000,0.001000,0.001000,0.001000,0.001000
1012.038462,0.032967,0.001000,0.001000,0.001000,0.001000,0.001000
1012.057692,0.032057,0.001000,0.001000,0.001000,0.001000,0.001000
1012.076923,0.031130,0.001000,0.001000,0.001000,0.001000,0.001000
1012.096154,0.030184,0.001000,0.001000,0.001000,0.001000,0.001000
1012.115385,0.029221,0.001000,0.001000,0.001000,0.001000,0.001000
1012.134615,0.028241,0.001000,0.001000,0.001000,0.001000,0.001000
1012.153846,0.027246,0.001000,0.001000,0.001000,0.001000,0.001000
1012.173077,0.026234,0.001000,0.001000,0.001000,0.001000,0.001000
1012.192308,0.025207,0.001000,0.001000,0.001000,0.001000,0.001000
1012.211538,0.024166,0.001000,0.001000,0.001000,0.001000,0.001000
1012.230769,0.023112,0.001000,0.001000,0.001000,0.001000,0.001000
1012.250000,0.022044,0.001000,0.001000,0.001000,0.001000,0.001000
1012.269231,0.020963,0.001000,0.001000,0.001000,0.001000,0.001000
1012.288462,0.019870,0.001000,0.001000,0.001000,0.001000,0.001000
1012.307692,0.018766,0.001000,0.001000,0.001000,0.001000,0.001000
1012.326923,0.017651,0.001000,0.001000,0.001000,0.001000,0.001000
1012.346154,0.016526,0.001000,0.001000,0.001000,0.001000,0.001000
1012.365385,0.015392,0.001000,0.001000,0.001000,0.001000,0.001000
1012.384615,0.014248,0.001000,0.001000,0.001000,0.001000,0.001000
1012.403846,0.013097,0.001000,0.001000,0.001000,0.001000,0.001000
1012.423077,0.011938,0.001000,0.001000,0.001000,0.001000,0.001000
1012.442308,0.010772,0.001000,0.001000,0.001000,0.001000,0.001000
1012.461538,0.009600,0.001000,0.001000,0.001000,0.001000,0.001000
1012.480769,0.008423,0.001000,0.001000,0.001000,0.001000,0.001000
1012.500000,0.007240,0.001000,0.001000,0.001000,0.001000,0.001000
1012.519231,0.006054,0.001000,0.001000,0.001000,0.001000,0.001000
1012.538462,0.004864,0.001000,0.001000,0.001000,0.001000,0.001000
1012.557692,0.003671,0.001000,0.001000,0.001000,0.001000,0.001000
1012.576923,0.002476,0.001000,0.001000,0.001000,0.001000,0.001000
1012.596154,0.001280,0.001000,0.001000,0.001000,0.001000,0.001000
1012.615385,0.000083,0.001000,0.001000,0.001000,0.001000,0.001000
1012.634615,-0.001114,0.001000,0.001000,0.001000,0.001000,0.001000
1012.653846,-0.002310,0.001000,0.001000,0.001000,0.001000,0.001000
1012.673077,-0.003505,0.001000,0.001000,0.001000,0.001000,0.001000
1012.692308,-0.004699,0.001000,0.001000,0.001000,0.001000,0.001000
1012.711538,-0.005889,0.001000,0.001000,0.001000,0.001000,0.001000
1012.730769,-0.007076,0.001000,0.001000,0.001000,0.001000,0.001000
1012.750000,-0.008259,0.001000,0.001000,0.001000,0.001000,0.001000
1012.769231,-0.009437,0.001000,0.001000,0.001000,0.001000,0.001000
1012.788462,-0.010610,0.001000,0.001000,0.001000,0.001000,0.001000
1012.807692,-0.011777,0.001000,0.001000,0.001000,0.001000,0.001000
1012.826923,-0.012936,0.001000,0.001000,0.001000,0.001000,0.001000
1012.846154,-0.014089,0.001000,0.001000,0.001000,0.001000,0.001000
1012.865385,-0.015234,0.001000,0.001000,0.001000,0.001000,0.001000
1012.884615,-0.016369,0.001000,0.001000,0.001000,0.001000,0.001000
1012.903846,-0.017496,0.001000,0.001000,0.001000,0.001000,0.001000
1012.923077,-0.018612,0.001000,0.001000,0.001000,0.001000,0.001000
1012.942308,-0.019718,0.001000,0.001000,0.001000,0.001000,0.001000
1012.961538,-0.020812,0.001000,0.001000,0.001000,0.001000,0.001000
1012.980769,-0.021894,0.001000,0.001000,0.001000,0.001000,0.001000
1013.000000,-0.022964,0.001000,0.001000,0.001000,0.001000,0.001000
1013.019231,-0.024021,0.001000,0.001000,0.001000,0.001000,0.001000
1013.038462,-0.025064,0.001000,0.001000,0.001000,0.001000,0.001000
1013.057692,-0.026092,0.001000,0.001000,0.001000,0.001000,0.001000
1013.076923,-0.027106,0.001000,0.001000,0.001000,0.001000,0.001000
1013.096154,-0.028104,0.001000,0.001000,0.001000,0.001000,0.001000
1013.115385,-0.029086,0.001000,0.001000,0.001000,0.001000,0.001000
1013.134615,-0.030051,0.001000,0.001000,0.001000,0.001000,0.001000
1013.153846,-0.031000,0.001000,0.001000,0.001000,0.001000,0.001000
1013.173077,-0.031930,0.001000,0.001000,0.001000,0.001000,0.001000
1013.192308,-0.032842,0.001000,0.001000,0.001000,0.001000,0.001000
1013.211538,-0.033735,0.001000,0.001000,0.001000,0.001000,0.001000
1013.230769,-0.034609,0.001000,0.001000,0.001000,0.001000,0.001000
1013.250000,-0.035463,0.001000,0.001000,0.001000,0.001000,0.001000
1013.269231,-0.036296,0.001000,0.001000,0.001000,0.001000,0.001000
1013.288462,-0.037109,0.001000,0.001000,0.001000,0.001000,0.001000
1013.307692,-0.037901,0.001000,0.001000,0.001000,0.001000,0.001000
1013.326923,-0.038671,0.001000,0.001000,0.001000,0.001000,0.001000
1013.346154,-0.039419,0.001000,0.001000,0.001000,0.001000,0.001000
1013.365385,-0.040144,0.001000,0.001000,0.001000,0.001000,0.001000
1013.384615,-0.040846,0.001000,0.001000,0.001000,0.001000,0.001000
1013.403846,-0.041524,0.001000,0.001000,0.001000,0.001000,0.001000
1013.423077,-0.042179,0.001000,0.001000,0.001000,0.001000,0.001000
1013.442308,-0.042810,0.001000,0.001000,0.001000,0.001000,0.001000
1013.461538,-0.043416,0.001000,0.001000,0.001000,0.001000,0.001000
1013.480769,-0.043997,0.001000,0.001000,0.001000,0.001000,0.001000
1013.500000,-0.044553,0.001000,0.001000,0.001000,0.001000,0.001000
1013.519231,-0.045084,0.001000,0.001000,0.001000,0.001000,0.001000
1013.538462,-0.045589,0.001000,0.001000,0.001000,0.001000,0.001000
1013.557692,-0.046067,0.001000,0.001000,0.001000,0.001000,0.001000
1013.576923,-0.046519,0.001000,0.001000,0.001000,0.001000,0.001000
1013.596154,-0.046945,0.001000,0.001000,0.001000,0.001000,0.001000
1013.615385,-0.047343,0.001000,0.001000,0.001000,0.001000,0.001000
1013.634615,-0.047715,0.001000,0.001000,0.001000,0.001000,0.001000
1013.653846,-0.048059,0.001000,0.001000,0.001000,0.001000,0.001000
1013.673077,-0.048375,0.001000,0.001000,0.001000,0.001000,0.001000
1013.692308,-0.048664,0.001000,0.001000,0.001000,0.001000,0.001000
1013.711538,-0.048925,0.001000,0.001000,0.001000,0.001000,0.001000
1013.730769,-0.049158,0.001000,0.001000,0.001000,0.001000,0.001000
1013.750000,-0.049363,0.001000,0.001000,0.001000,0.001000,0.001000
1013.769231,-0.049539,0.001000,0.001000,0.001000,0.001000,0.001000
1013.788462,-0.049687,0.001000,0.001000,0.001000,0.001000,0.001000
1013.807692,-0.049806,0.001000,0.001000,0.001000,0.001000,0.001000
1013.826923,-0.049897,0.001000,0.001000,0.001000,0.001000,0.001000
1013.846154,-0.049960,0.001000,0.001000,0.001000,0.001000,0.001000
1013.865385,-0.049993,0.001000,0.001000,0.001000,0.001000,0.001000
1013.884615,-0.049998,0.001000,0.001000,0.001000,0.001000,0.001000
1013.903846,-0.049975,0.001000,0.001000,0.001000,0.001000,0.001000
1013.923077,-0.049923,0.001000,0.001000,0.001000,0.001000,0.001000
1013.942308,-0.049842,0.001000,0.001000,0.001000,0.001000,0.001000
1013.961538,-0.049732,0.001000,0.001000,0.001000,0.001000,0.001000
1013.980769,-0.049594,0.001000,0.001000,0.001000,0.001000,0.001000
1014.000000,-0.049428,0.001000,0.001000,0.001000,0.001000,0.001000
1014.019231,-0.049233,0.001000,0.001000,0.001000,0.001000,0.001000
1014.038462,-0.049010,0.001000,0.001000,0.001000,0.001000,0.001000
1014.057692,-0.048759,0.001000,0.001000,0.001000,0.001000,0.001000
1014.076923,-0.048480,0.001000,0.001000,0.001000,0.001000,0.001000
1014.096154,-0.048174,0.001000,0.001000,0.001000,0.001000,0.001000
1014.115385,-0.047839,0.001000,0.001000,0.001000,0.001000,0.001000
1014.134615,-0.047477,0.001000,0.001000,0.001000,0.001000,0.001000
1014.153846,-0.047088,0.001000,0.001000,0.001000,0.001000,0.001000
1014.173077,-0.046672,0.001000,0.001000,0.001000,0.001000,0.001000
1014.192308,-0.046230,0.001000,0.001000,0.001000,0.001000,0.001000
1014.211538,-0.045760,0.001000,0.001000,0.001000,0.001000,0.001000
1014.230769,-0.045265,0.001000,0.001000,0.001000,0.001000,0.001000
1014.250000,-0.044743,0.001000,0.001000,0.001000,0.001000,0.001000
1014.269231,-0.044196,0.001000,0.001000,0.001000,0.001000,0.001000
1014.288462,-0.043624,0.001000,0.001000,0.001000,0.001000,0.001000
1014.307692,-0.043027,0.001000,0.001000,0.001000,0.001000,0.001000
1014.326923,-0.042404,0.001000,0.001000,0.001000,0.001000,0.001000
1014.346154,-0.041758,0.001000,0.001000,0.001000,0.001000,0.001000
1014.365385,-0.041088,0.001000,0.001000,0.001000,0.001000,0.001000
1014.384615,-0.040394,0.001000,0.001000,0.001000,0.001000,0.001000
1014.403846,-0.039677,0.001000,0.001000,0.001000,0.001000,0.001000
1014.423077,-0.038937,0.001000,0.001000,0.001000,0.001000,0.001000
1014.442308,-0.038175,0.001000,0.001000,0.001000,0.001000,0.001000
1014.461538,-0.037391,0.001000,0.001000,0.001000,0.001000,0.001000
1014.480769,-0.036586,0.001000,0.001000,0.001000,0.001000,0.001000
1014.500000,-0.035759,0.001000,0.001000,0.001000,0.001000,0.001000
1014.519231,-0.034912,0.001000,0.001000,0.001000,0.001000,0.001000
1014.538462,-0.034045,0.001000,0.001000,0.001000,0.001000,0.001000
1014.557692,-0.033159,0.001000,0.001000,0.001000,0.001000,0.001000
1014.576923,-0.032254,0.001000,0.001000,0.001000,0.001000,0.001000
1014.596154,-0.031330,0.001000,0.001000,0.001000,0.001000,0.001000
1014.615385,-0.030388,0.001000,0.001000,0.001000,0.001000,0.001000
1014.634615,-0.029428,0.001000,0.001000,0.001000,0.001000,0.001000
1014.653846,-0.028452,0.001000,0.001000,0.001000,0.001000,0.001000
1014.673077,-0.027460,0.001000,0.001000,0.001000,0.001000,0.001000
1014.692308,-0.026452,0.001000,0.001000,0.001000,0.001000,0.001000
1014.711538,-0.025428,0.001000,0.001000,0.001000,0.001000,0.001000
1014.730769,-0.024390,0.001000,0.001000,0.001000,0.001000,0.001000
1014.750000,-0.023338,0.001000,0.001000,0.001000,0.001000,0.001000
1014.769231,-0.022273,0.001000,0.001000,0.001000,0.001000,0.001000
1014.788462,-0.021195,0.001000,0.001000,0.001000,0.001000,0.001000
1014.807692,-0.020105,0.001000,0.001000,0.001000,0.001000,0.001000
1014.826923,-0.019003,0.001000,0.001000,0.001000,0.001000,0.001000
1014.846154,-0.017890,0.001000,0.001000,0.001000,0.001000,0.001000
1014.865385,-0.016768,0.001000,0.001000,0.001000,0.001000,0.001000
1014.884615,-0.015635,0.001000,0.001000,0.001000,0.001000,0.001000
1014.903846,-0.014494,0.001000,0.001000,0.001000,0.001000,0.001000
1014.923077,-0.013344,0.001000,0.001000,0.001000,0.001000,0.001000
1014.942308,-0.012186,0.001000,0.001000,0.001000,0.001000,0.001000
1014.961538,-0.011022,0.001000,0.001000,0.001000,0.001000,0.001000
1014.980769,-0.009851,0.001000,0.001000,0.001000,0.001000,0.001000
1015.000000,-0.008675,0.001000,0.001000,0.001000,0.001000,0.001000
1015.019231,-0.007494,0.001000,0.001000,0.001000,0.001000,0.001000
1015.038462,-0.006308,0.001000,0.001000,0.001000,0.001000,0.001000
1015.057692,-0.005119,0.001000,0.001000,0.001000,0.001000,0.001000
1015.076923,-0.003926,0.001000,0.001000,0.001000,0.001000,0.001000
1015.096154,-0.002732,0.001000,0.001000,0.001000,0.001000,0.001000
1015.115385,-0.001536,0.001000,0.001000,0.001000,0.001000,0.001000
1015.134615,-0.000339,0.001000,0.001000,0.001000,0.001000,0.001000
1015.153846,0.000858,0.001000,0.001000,0.001000,0.001000,0.001000
1015.173077,0.002055,0.001000,0.001000,0.001000,0.001000,0.001000
1015.192308,0.003250,0.001000,0.001000,0.001000,0.001000,0.001000
1015.211538,0.004444,0.001000,0.001000,0.001000,0.001000,0.001000
1015.230769,0.005635,0.001000,0.001000,0.001000,0.001000,0.001000
1015.250000,0.006822,0.001000,0.001000,0.001000,0.001000,0.001000
1015.269231,0.008006,0.001000,0.001000,0.001000,0.001000,0.001000
1015.288462,0.009185,0.001000,0.001000,0.001000,0.001000,0.001000
1015.307692,0.010359,0.001000,0.001000,0.001000,0.001000,0.001000
1015.326923,0.011528,0.001000,0.001000,0.001000,0.001000,0.001000
1015.346154,0.012689,0.001000,0.001000,0.001000,0.001000,0.001000
1015.365385,0.013843,0.001000,0.001000,0.001000,0.001000,0.001000
1015.384615,0.014989,0.001000,0.001000,0.001000,0.001000,0.001000
1015.403846,0.016127,0.001000,0.001000,0.001000,0.001000,0.001000
1015.423077,0.017256,0.001000,0.001000,0.001000,0.001000,0.001000
1015.442308,0.018374,0.001000,0.001000,0.001000,0.001000,0.001000
1015.461538,0.019482,0.001000,0.001000,0.001000,0.001000,0.001000
1015.480769,0.020579,0.001000,0.001000,0.001000,0.001000,0.001000
1015.500000,0.021664,0.001000,0.001000,0.001000,0.001000,0.001000
1015.519231,0.022736,0.001000,0.001000,0.001000,0.001000,0.001000
1015.538462,0.023796,0.001000,0.001000,0.001000,0.001000,0.001000
1015.557692,0.024842,0.001000,0.001000,0.001000,0.001000,0.001000
1015.576923,0.025874,0.001000,0.001000,0.001000,0.001000,0.001000
1015.596154,0.026891,0.001000,0.001000,0.001000,0.001000,0.001000
1015.615385,0.027892,0.001000,0.001000,0.001000,0.001000,0.001000
1015.634615,0.028877,0.001000,0.001000,0.001000,0.001000,0.001000
1015.653846,0.029846,0.001000,0.001000,0.001000,0.001000,0.001000
1015.673077,0.030798,0.001000,0.001000,0.001000,0.001000,0.001000
1015.692308,0.031732,0.001000,0.001000,0.001000,0.001000,0.001000
1015.711538,0.032648,0.001000,0.001000,0.001000,0.001000,0.001000
1015.730769,0.033546,0.001000,0.001000,0.001000,0.001000,0.001000
1015.750000,0.034424,0.001000,0.001000,0.001000,0.001000,0.001000
1015.769231,0.035282,0.001000,0.001000,0.001000,0.001000,0.001000
1015.788462,0.036120,0.001000,0.001000,0.001000,0.001000,0.001000
1015.807692,0.036937,0.001000,0.001000,0.001000,0.001000,0.001000
1015.826923,0.037733,0.001000,0.001000,0.001000,0.001000,0.001000
1015.846154,0.038508,0.001000,0.001000,0.001000,0.001000,0.001000
1015.865385,0.039260,0.001000,0.001000,0.001000,0.001000,0.001000
1015.884615,0.039990,0.001000,0.001000,0.001000,0.001000,0.001000
1015.903846,0.040698,0.001000,0.001000,0.001000,0.001000,0.001000
1015.923077,0.041381,0.001000,0.001000,0.001000,0.001000,0.001000
1015.942308,0.042041,0.001000,0.001000,0.001000,0.001000,0.001000
1015.961538,0.042677,0.001000,0.001000,0.001000,0.001000,0.001000
1015.980769,0.043289,0.001000,0.001000,0.001000,0.001000,0.001000
1016.000000,0.043875,0.001000,0.001000,0.001000,0.001000,0.001000
1016.019231,0.044437,0.001000,0.001000,0.001000,0.001000,0.001000
1016.038462,0.044973,0.001000,0.001000,0.001000,0.001000,0.001000
1016.057692,0.045483,0.001000,0.001000,0.001000,0.001000,0.001000
1016.076923,0.045967,0.001000,0.001000,0.001000,0.001000,0.001000
1016.096154,0.046425,0.001000,0.001000,0.001000,0.001000,0.001000
1016.115385,0.046856,0.001000,0.001000,0.001000,0.001000,0.001000
1016.134615,0.047260,0.001000,0.001000,0.001000,0.001000,0.001000
1016.153846,0.047638,0.001000,0.001000,0.001000,0.001000,0.001000
1016.173077,0.047988,0.001000,0.001000,0.001000,0.001000,0.001000
1016.192308,0.048310,0.001000,0.001000,0.001000,0.001000,0.001000
1016.211538,0.048605,0.001000,0.001000,0.001000,0.001000,0.001000
1016.230769,0.048872,0.001000,0.001000,0.001000,0.001000,0.001000
1016.250000,0.049110,0.001000,0.001000,0.001000,0.001000,0.001000
1016.269231,0.049321,0.001000,0.001000,0.001000,0.001000,0.001000
1016.288462,0.049504,0.001000,0.001000,0.001000,0.001000,0.001000
1016.307692,0.049658,0.001000,0.001000,0.001000,0.001000,0.001000
1016.326923,0.049783,0.001000,0.001000,0.001000,0.001000,0.001000
1016.346154,0.049880,0.001000,0.001000,0.001000,0.001000,0.001000
1016.365385,0.049949,0.001000,0.001000,0.001000,0.001000,0.001000
1016.384615,0.049989,0.001000,0.001000,0.001000,0.001000,0.001000
1016.403846,0.050000,0.001000,0.001000,0.001000,0.001000,0.001000
1016.423077,0.049982,0.001000,0.001000,0.001000,0.001000,0.001000
1016.442308,0.049936,0.001000,0.001000,0.001000,0.001000,0.001000
1016.461538,0.049861,0.001000,0.001000,0.001000,0.001000,0.001000
1016.480769,0.049758,0.001000,0.001000,0.001000,0.001000,0.001000
1016.500000,0.049626,0.001000,0.001000,0.001000,0.001000,0.001000
1016.519231,0.049466,0.001000,0.001000,0.001000,0.001000,0.001000
1016.538462,0.049277,0.001000,0.001000,0.001000,0.001000,0.001000
1016.557692,0.049060,0.001000,0.001000,0.001000,0.001000,0.001000
1016.576923,0.048815,0.001000,0.001000,0.001000,0.001000,0.001000
1016.596154,0.048542,0.001000,0.001000,0.001000,0.001000,0.001000
1016.615385,0.048242,0.001000,0.001000,0.001000,0.001000,0.001000
1016.634615,0.047913,0.001000,0.001000,0.001000,0.001000,0.001000
1016.653846,0.047557,0.001000,0.001000,0.001000,0.001000,0.001000
1016.673077,0.047174,0.001000,0.001000,0.001000,0.001000,0.001000
1016.692308,0.046764,0.001000,0.001000,0.001000,0.001000,0.001000
1016.711538,0.046327,0.001000,0.001000,0.001000,0.001000,0.001000
1016.730769,0.045863,0.001000,0.001000,0.001000,0.001000,0.001000
1016.750000,0.045373,0.001000,0.001000,0.001000,0.001000,0.001000
1016.769231,0.044857,0.001000,0.001000,0.001000,0.001000,0.001000
1016.788462,0.044316,0.001000,0.001000,0.001000,0.001000,0.001000
1016.807692,0.043749,0.001000,0.001000,0.001000,0.001000,0.001000
1016.826923,0.043156,0.001000,0.001000,0.001000,0.001000,0.001000
1016.846154,0.042540,0.001000,0.001000,0.001000,0.001000,0.001000
1016.865385,0.041898,0.001000,0.001000,0.001000,0.001000,0.001000
1016.884615,0.041233,0.001000,0.001000,0.001000,0.001000,0.001000
1016.903846,0.040544,0.001000,0.001000,0.001000,0.001000,0.001000
1016.923077,0.039832,0.001000,0.001000,0.001000,0.001000,0.001000
1016.942308,0.039097,0.001000,0.001000,0.001000,0.001000,0.001000
1016.961538,0.038340,0.001000,0.001000,0.001000,0.001000,0.001000
1016.980769,0.037560,0.001000,0.001000,0.001000,0.001000,0.001000
1017.000000,0.036760,0.001000,0.001000,0.001000,0.001000,0.001000
1017.019231,0.035938,0.001000,0.001000,0.001000,0.001000,0.001000
1017.038462,0.035095,0.001000,0.001000,0.001000,0.001000,0.001000
1017.057692,0.034232,0.001000,0.001000,0.001000,0.001000,0.001000
1017.076923,0.033350,0.001000,0.001000,0.001000,0.001000,0.001000
1017.096154,0.032449,0.001000,0.001000,0.001000,0.001000,0.001000
1017.115385,0.031529,0.001000,0.001000,0.001000,0.001000,0.001000
1017.134615,0.030591,0.001000,0.001000,0.001000,0.001000,0.001000
1017.153846,0.029635,0.001000,0.001000,0.001000,0.001000,0.001000
1017.173077,0.028662,0.001000,0.001000,0.001000,0.001000,0.001000
1017.192308,0.027673,0.001000,0.001000,0.001000,0.001000,0.001000
1017.211538,0.026669,0.001000,0.001000,0.001000,0.001000,0.001000
1017.230769,0.025648,0.001000,0.001000,0.001000,0.001000,0.001000
1017.250000,0.024613,0.001000,0.001000,0.001000,0.001000,0.001000
1017.269231,0.023565,0.001000,0.001000,0.001000,0.001000,0.001000
1017.288462,0.022502,0.001000,0.001000,0.001000,0.001000,0.001000
1017.307692,0.021427,0.001000,0.001000,0.001000,0.001000,0.001000
1017.326923,0.020339,0.001000,0.001000,0.001000,0.001000,0.001000
1017.346154,0.019240,0.001000,0.001000,0.001000,0.001000,0.001000
1017.365385,0.018129,0.001000,0.001000,0.001000,0.001000,0.001000
1017.384615,0.017009,0.001000,0.001000,0.001000,0.001000,0.001000
1017.403846,0.015878,0.001000,0.001000,0.001000,0.001000,0.001000
1017.423077,0.014738,0.001000,0.001000,0.001000,0.001000,0.001000
1017.442308,0.013590,0.001000,0.001000,0.001000,0.001000,0.001000
1017.461538,0.012435,0.001000,0.001000,0.001000,0.001000,0.001000
1017.480769,0.011272,0.001000,0.001000,0.001000,0.001000,0.001000
1017.500000,0.010102,0.001000,0.001000,0.001000,0.001000,0.001000
1017.519231,0.008927,0.001000,0.001000,0.001000,0.001000,0.001000
1017.538462,0.007747,0.001000,0.001000,0.001000,0.001000,0.001000
1017.557692,0.006562,0.001000,0.001000,0.001000,0.001000,0.001000
1017.576923,0.005373,0.001000,0.001000,0.001000,0.001000,0.001000
1017.596154,0.004182,0.001000,0.001000,0.001000,0.001000,0.001000
1017.615385,0.002988,0.001000,0.001000,0.001000,0.001000,0.001000
1017.634615,0.001792,0.001000,0.001000,0.001000,0.001000,0.001000
1017.653846,0.000595,0.001000,0.001000,0.001000,0.001000,0.001000
1017.673077,-0.000602,0.001000,0.001000,0.001000,0.001000,0.001000
1017.692308,-0.001799,0.001000,0.001000,0.001000,0.001000,0.001000
1017.711538,-0.002994,0.001000,0.001000,0.001000,0.001000,0.001000
1017.730769,-0.004188,0.001000,0.001000,0.001000,0.001000,0.001000
1017.750000,-0.005380,0.001000,0.001000,0.001000,0.001000,0.001000
1017.769231,-0.006569,0.001000,0.001000,0.001000,0.001000,0.001000
1017.788462,-0.007753,0.001000,0.001000,0.001000,0.001000,0.001000
1017.807692,-0.008934,0.001000,0.001000,0.001000,0.001000,0.001000
1017.826923,-0.010109,0.001000,0.001000,0.001000,0.001000,0.001000
1017.846154,-0.011278,0.001000,0.001000,0.001000,0.001000,0.001000
1017.865385,-0.012441,0.001000,0.001000,0.001000,0.001000,0.001000
1017.884615,-0.013597,0.001000,0.001000,0.001000,0.001000,0.001000
1017.903846,-0.014745,0.001000,0.001000,0.001000,0.001000,0.001000
1017.923077,-0.015885,0.001000,0.001000,0.001000,0.001000,0.001000
1017.942308,-0.017015,0.001000,0.001000,0.001000,0.001000,0.001000
1017.961538,-0.018136,0.001000,0.001000,0.001000,0.001000,0.001000
1017.980769,-0.019246,0.001000,0.001000,0.001000,0.001000,0.001000
1018.000000,-0.020345,0.001000,0.001000,0.001000,0.001000,0.001000
1018.019231,-0.021433,0.001000,0.001000,0.001000,0.001000,0.001000
1018.038462,-0.022508,0.001000,0.001000,0.001000,0.001000,0.001000
1018.057692,-0.023571,0.001000,0.001000,0.001000,0.001000,0.001000
1018.076923,-0.024619,0.001000,0.001000,0.001000,0.001000,0.001000
1018.096154,-0.025654,0.001000,0.001000,0.001000,0.001000,0.001000
1018.115385,-0.026674,0.001000,0.001000,0.001000,0.001000,0.001000
1018.134615,-0.027679,0.001000,0.001000,0.001000,0.001000,0.001000
1018.153846,-0.028668,0.001000,0.001000,0.001000,0.001000,0.001000
1018.173077,-0.029641,0.001000,0.001000,0.001000,0.001000,0.001000
1018.192308,-0.030596,0.001000,0.001000,0.001000,0.001000,0.001000
1018.211538,-0.031534,0.001000,0.001000,0.001000,0.001000,0.001000
1018.230769,-0.032454,0.001000,0.001000,0.001000,0.001000,0.001000
1018.250000,-0.033355,0.001000,0.001000,0.001000,0.001000,0.001000
1018.269231,-0.034237,0.001000,0.001000,0.001000,0.001000,0.001000
1018.288462,-0.035100,0.001000,0.001000,0.001000,0.001000,0.001000
1018.307692,-0.035942,0.001000,0.001000,0.001000,0.001000,0.001000
1018.326923,-0.036764,0.001000,0.001000,0.001000,0.001000,0.001000
1018.346154,-0.037565,0.001000,0.001000,0.001000,0.001000,0.001000
1018.365385,-0.038344,0.001000,0.001000,0.001000,0.001000,0.001000
1018.384615,-0.039101,0.001000,0.001000,0.001000,0.001000,0.001000
1018.403846,-0.039836,0.001000,0.001000,0.001000,0.001000,0.001000
1018.423077,-0.040548,0.001000,0.001000,0.001000,0.001000,0.001000
1018.442308,-0.041237,0.001000,0.001000,0.001000,0.001000,0.001000
1018.461538,-0.041902,0.001000,0.001000,0.001000,0.001000,0.001000
1018.480769,-0.042543,0.001000,0.001000,0.001000,0.001000,0.001000
1018.500000,-0.043160,0.001000,0.001000,0.001000,0.001000,0.001000
1018.519231,-0.043752,0.001000,0.001000,0.001000,0.001000,0.001000
1018.538462,-0.044319,0.001000,0.001000,0.001000,0.001000,0.001000
1018.557692,-0.044860,0.001000,0.001000,0.001000,0.001000,0.001000
1018.576923,-0.045376,0.001000,0.001000,0.001000,0.001000,0.001000
1018.596154,-0.045866,0.001000,0.001000,0.001000,0.001000,0.001000
1018.615385,-0.046329,0.001000,0.001000,0.001000,0.001000,0.001000
1018.634615,-0.046766,0.001000,0.001000,0.001000,0.001000,0.001000
1018.653846,-0.047176,0.001000,0.001000,0.001000,0.001000,0.001000
1018.673077,-0.047559,0.001000,0.001000,0.001000,0.001000,0.001000
1018.692308,-0.047915,0.001000,0.001000,0.001000,0.001000,0.001000
1018.711538,-0.048243,0.001000,0.001000,0.001000,0.001000,0.001000
1018.730769,-0.048544,0.001000,0.001000,0.001000,0.001000,0.001000
1018.750000,-0.048817,0.001000,0.001000,0.001000,0.001000,0.001000
1018.769231,-0.049062,0.001000,0.001000,0.001000,0.001000,0.001000
1018.788462,-0.049278,0.001000,0.001000,0.001000,0.001000,0.001000
1018.807692,-0.049467,0.001000,0.001000,0.001000,0.001000,0.001000
1018.826923,-0.049627,0.001000,0.001000,0.001000,0.001000,0.001000
1018.846154,-0.049759,0.001000,0.001000,0.001000,0.001000,0.001000
1018.865385,-0.049862,0.001000,0.001000,0.001000,0.001000,0.001000
1018.884615,-0.049937,0.001000,0.001000,0.001000,0.001000,0.001000
1018.903846,-0.049983,0.001000,0.001000,0.001000,0.001000,0.001000
1018.923077,-0.050000,0.001000,0.001000,0.001000,0.001000,0.001000
1018.942308,-0.049988,0.001000,0.001000,0.001000,0.001000,0.001000
1018.961538,-0.049948,0.001000,0.001000,0.001000,0.001000,0.001000
1018.980769,-0.049880,0.001000,0.001000,0.001000,0.001000,0.001000
1019.000000,-0.049783,0.001000,0.001000,0.001000,0.001000,0.001000
1019.019231,-0.049657,0.001000,0.001000,0.001000,0.001000,0.001000
1019.038462,-0.049503,0.001000,0.001000,0.001000,0.001000,0.001000
1019.057692,-0.049320,0.001000,0.001000,0.001000,0.001000,0.001000
1019.076923,-0.049109,0.001000,0.001000,0.001000,0.001000,0.001000
1019.096154,-0.048870,0.001000,0.001000,0.001000,0.001000,0.001000
1019.115385,-0.048603,0.001000,0.001000,0.001000,0.001000,0.001000
1019.134615,-0.048308,0.001000,0.001000,0.001000,0.001000,0.001000
1019.153846,-0.047986,0.001000,0.001000,0.001000,0.001000,0.001000
1019.173077,-0.047636,0.001000,0.001000,0.001000,0.001000,0.001000
1019.192308,-0.047258,0.001000,0.001000,0.001000,0.001000,0.001000
1019.211538,-0.046854,0.001000,0.001000,0.001000,0.001000,0.001000
1019.230769,-0.046422,0.001000,0.001000,0.001000,0.001000,0.001000
1019.250000,-0.045964,0.001000,0.001000,0.001000,0.001000,0.001000
1019.269231,-0.045480,0.001000,0.001000,0.001000,0.001000,0.001000
1019.288462,-0.044970,0.001000,0.001000,0.001000,0.001000,0.001000
1019.307692,-0.044434,0.001000,0.001000,0.001000,0.001000,0.001000
1019.326923,-0.043872,0.001000,0.001000,0.001000,0.001000,0.001000
1019.346154,-0.043285,0.001000,0.001000,0.001000,0.001000,0.001000
1019.365385,-0.042674,0.001000,0.001000,0.001000,0.001000,0.001000
1019.384615,-0.042037,0.001000,0.001000,0.001000,0.001000,0.001000
1019.403846,-0.041377,0.001000,0.001000,0.001000,0.001000,0.001000
1019.423077,-0.040694,0.001000,0.001000,0.001000,0.001000,0.001000
1019.442308,-0.039986,0.001000,0.001000,0.001000,0.001000,0.001000
1019.461538,-0.039256,0.001000,0.001000,0.001000,0.001000,0.001000
1019.480769,-0.038504,0.001000,0.001000,0.001000,0.001000,0.001000
1019.500000,-0.037729,0.001000,0.001000,0.001000,0.001000,0.001000
1019.519231,-0.036933,0.001000,0.001000,0.001000,0.001000,0.001000
1019.538462,-0.036115,0.001000,0.001000,0.001000,0.001000,0.001000
1019.557692,-0.035277,0.001000,0.001000,0.001000,0.001000,0.001000
1019.576923,-0.034419,0.001000,0.001000,0.001000,0.001000,0.001000
1019.596154,-0.033540,0.001000,0.001000,0.001000,0.001000,0.001000
1019.615385,-0.032643,0.001000,0.001000,0.001000,0.001000,0.001000
1019.634615,-0.031727,0.001000,0.001000,0.001000,0.001000,0.001000
1019.653846,-0.030793,0.001000,0.001000,0.001000,0.001000,0.001000
1019.673077,-0.029841,0.001000,0.001000,0.001000,0.001000,0.001000
1019.692308,-0.028872,0.001000,0.001000,0.001000,0.001000,0.001000
1019.711538,-0.027886,0.001000,0.001000,0.001000,0.001000,0.001000
1019.730769,-0.026885,0.001000,0.001000,0.001000,0.001000,0.001000
1019.750000,-0.025868,0.001000,0.001000,0.001000,0.001000,0.001000
1019.769231,-0.024836,0.001000,0.001000,0.001000,0.001000,0.001000
1019.788462,-0.023790,0.001000,0.001000,0.001000,0.001000,0.001000
1019.807692,-0.022730,0.001000,0.001000,0.001000,0.001000,0.001000
1019.826923,-0.021658,0.001000,0.001000,0.001000,0.001000,0.001000
1019.846154,-0.020573,0.001000,0.001000,0.001000,0.001000,0.001000
1019.865385,-0.019476,0.001000,0.001000,0.001000,0.001000,0.001000
1019.884615,-0.018368,0.001000,0.001000,0.001000,0.001000,0.001000
1019.903846,-0.017249,0.001000,0.001000,0.001000,0.001000,0.001000
1019.923077,-0.016121,0.001000,0.001000,0.001000,0.001000,0.001000
1019.942308,-0.014983,0.001000,0.001000,0.001000,0.001000,0.001000
1019.961538,-0.013837,0.001000,0.001000,0.001000,0.001000,0.001000
1019.980769,-0.012682,0.001000,0.001000,0.001000,0.001000,0.001000
1020.000000,-0.011521,0.001000,0.001000,0.001000,0.001000,0.001000
1020.019231,-0.010353,0.001000,0.001000,0.001000,0.001000,0.001000
1020.038462,-0.009179,0.001000,0.001000,0.001000,0.001000,0.001000
1020.057692,-0.007999,0.001000,0.001000,0.001000,0.001000,0.001000
1020.076923,-0.006816,0.001000,0.001000,0.001000,0.001000,0.001000
1020.096154,-0.005628,0.001000,0.001000,0.001000,0.001000,0.001000
1020.115385,-0.004437,0.001000,0.001000,0.001000,0.001000,0.001000
1020.134615,-0.003243,0.001000,0.001000,0.001000,0.001000,0.001000
1020.153846,-0.002048,0.001000,0.001000,0.001000,0.001000,0.001000
1020.173077,-0.000851,0.001000,0.001000,0.001000,0.001000,0.001000
1020.192308,0.000346,0.001000,0.001000,0.001000,0.001000,0.001000
1020.211538,0.001543,0.001000,0.001000,0.001000,0.001000,0.001000
1020.230769,0.002739,0.001000,0.001000,0.001000,0.001000,0.001000
1020.250000,0.003933,0.001000,0.001000,0.001000,0.001000,0.001000
1020.269231,0.005125,0.001000,0.001000,0.001000,0.001000,0.001000
1020.288462,0.006315,0.001000,0.001000,0.001000,0.001000,0.001000
1020.307692,0.007500,0.001000,0.001000,0.001000,0.001000,0.001000
1020.326923,0.008682,0.001000,0.001000,0.001000,0.001000,0.001000
1020.346154,0.009858,0.001000,0.001000,0.001000,0.001000,0.001000
1020.365385,0.011029,0.001000,0.001000,0.001000,0.001000,0.001000
1020.384615,0.012193,0.001000,0.001000,0.001000,0.001000,0.001000
1020.403846,0.013350,0.001000,0.001000,0.001000,0.001000,0.001000
1020.423077,0.014500,0.001000,0.001000,0.001000,0.001000,0.001000
1020.442308,0.015642,0.001000,0.001000,0.001000,0.001000,0.001000
1020.461538,0.016774,0.001000,0.001000,0.001000,0.001000,0.001000
1020.480769,0.017897,0.001000,0.001000,0.001000,0.001000,0.001000
1020.500000,0.019009,0.001000,0.001000,0.001000,0.001000,0.001000
1020.519231,0.020111,0.001000,0.001000,0.001000,0.001000,0.001000
1020.538462,0.021201,0.001000,0.001000,0.001000,0.001000,0.001000
1020.557692,0.022279,0.001000,0.001000,0.001000,0.001000,0.001000
1020.576923,0.023344,0.001000,0.001000,0.001000,0.001000,0.001000
1020.596154,0.024396,0.001000,0.001000,0.001000,0.001000,0.001000
1020.615385,0.025434,0.001000,0.001000,0.001000,0.001000,0.001000
1020.634615,0.026457,0.001000,0.001000,0.001000,0.001000,0.001000
1020.653846,0.027466,0.001000,0.001000,0.001000,0.001000,0.001000
1020.673077,0.028458,0.001000,0.001000,0.001000,0.001000,0.001000
1020.692308,0.029434,0.001000,0.001000,0.001000,0.001000,0.001000
1020.711538,0.030393,0.001000,0.001000,0.001000,0.001000,0.001000
1020.730769,0.031335,0.001000,0.001000,0.001000,0.001000,0.001000
1020.750000,0.032259,0.001000,0.001000,0.001000,0.001000,0.001000
1020.769231,0.033164,0.001000,0.001000,0.001000,0.001000,0.001000
1020.788462,0.034050,0.001000,0.001000,0.001000,0.001000,0.001000
1020.807692,0.034917,0.001000,0.001000,0.001000,0.001000,0.001000
1020.826923,0.035764,0.001000,0.001000,0.001000,0.001000,0.001000
1020.846154,0.036590,0.001000,0.001000,0.001000,0.001000,0.001000
1020.865385,0.037396,0.001000,0.001000,0.001000,0.001000,0.001000
1020.884615,0.038179,0.001000,0.001000,0.001000,0.001000,0.001000
1020.903846,0.038941,0.001000,0.001000,0.001000,0.001000,0.001000
1020.923077,0.039681,0.001000,0.001000,0.001000,0.001000,0.001000
1020.942308,0.040398,0.001000,0.001000,0.001000,0.001000,0.001000
1020.961538,0.041092,0.001000,0.001000,0.001000,0.001000,0.001000
1020.980769,0.041762,0.001000,0.001000,0.001000,0.001000,0.001000
1021.000000,0.042408,0.001000,0.001000,0.001000,0.001000,0.001000
1021.019231,0.043030,0.001000,0.001000,0.001000,0.001000,0.001000
1021.038462,0.043627,0.001000,0.001000,0.001000,0.001000,0.001000
1021.057692,0.044200,0.001000,0.001000,0.001000,0.001000,0.001000
1021.076923,0.044747,0.001000,0.001000,0.001000,0.001000,0.001000
1021.096154,0.045268,0.001000,0.001000,0.001000,0.001000,0.001000
1021.115385,0.045763,0.001000,0.001000,0.001000,0.001000,0.001000
1021.134615,0.046232,0.001000,0.001000,0.001000,0.001000,0.001000
1021.153846,0.046675,0.001000,0.001000,0.001000,0.001000,0.001000
1021.173077,0.047091,0.001000,0.001000,0.001000,0.001000,0.001000
1021.192308,0.047480,0.001000,0.001000,0.001000,0.001000,0.001000
1021.211538,0.047841,0.001000,0.001000,0.001000,0.001000,0.001000
1021.230769,0.048175,0.001000,0.001000,0.001000,0.001000,0.001000
1021.250000,0.048482,0.001000,0.001000,0.001000,0.001000,0.001000
1021.269231,0.048761,0.001000,0.001000,0.001000,0.001000,0.001000
1021.288462,0.049012,0.001000,0.001000,0.001000,0.001000,0.001000
1021.307692,0.049234,0.001000,0.001000,0.001000,0.001000,0.001000
1021.326923,0.049429,0.001000,0.001000,0.001000,0.001000,0.001000
1021.346154,0.049595,0.001000,0.001000,0.001000,0.001000,0.001000
1021.365385,0.049733,0.001000,0.001000,0.001000,0.001000,0.001000
1021.384615,0.049842,0.001000,0.001000,0.001000,0.001000,0.001000
1021.403846,0.049923,0.001000,0.001000,0.001000,0.001000,0.001000
1021.423077,0.049975,0.001000,0.001000,0.001000,0.001000,0.001000
1021.442308,0.049999,0.001000,0.001000,0.001000,0.001000,0.001000
1021.461538,0.049993,0.001000,0.001000,0.001000,0.001000,0.001000
1021.480769,0.049959,0.001000,0.001000,0.001000,0.001000,0.001000
1021.500000,0.049897,0.001000,0.001000,0.001000,0.001000,0.001000
1021.519231,0.049806,0.001000,0.001000,0.001000,0.001000,0.001000
1021.538462,0.049686,0.001000,0.001000,0.001000,0.001000,0.001000
1021.557692,0.049538,0.001000,0.001000,0.001000,0.001000,0.001000
1021.576923,0.049361,0.001000,0.001000,0.001000,0.001000,0.001000
1021.596154,0.049157,0.001000,0.001000,0.001000,0.001000,0.001000
1021.615385,0.048924,0.001000,0.001000,0.001000,0.001000,0.001000
1021.634615,0.048663,0.001000,0.001000,0.001000,0.001000,0.001000
1021.653846,0.048374,0.001000,0.001000,0.001000,0.001000,0.001000
1021.673077,0.048057,0.001000,0.001000,0.001000,0.001000,0.001000
1021.692308,0.047713,0.001000,0.001000,0.001000,0.001000,0.001000
1021.711538,0.047341,0.001000,0.001000,0.001000,0.001000,0.001000
1021.730769,0.046942,0.001000,0.001000,0.001000,0.001000,0.001000
1021.750000,0.046517,0.001000,0.001000,0.001000,0.001000,0.001000
1021.769231,0.046065,0.001000,0.001000,0.001000,0.001000,0.001000
1021.788462,0.045586,0.001000,0.001000,0.001000,0.001000,0.001000
1021.807692,0.045081,0.001000,0.001000,0.001000,0.001000,0.001000
1021.826923,0.044550,0.001000,0.001000,0.001000,0.001000,0.001000
1021.846154,0.043994,0.001000,0.001000,0.001000,0.001000,0.001000
1021.865385,0.043413,0.001000,0.001000,0.001000,0.001000,0.001000
1021.884615,0.042806,0.001000,0.001000,0.001000,0.001000,0.001000
1021.903846,0.042176,0.001000,0.001000,0.001000,0.001000,0.001000
1021.923077,0.041521,0.001000,0.001000,0.001000,0.001000,0.001000
1021.942308,0.040842,0.001000,0.001000,0.001000,0.001000,0.001000
1021.961538,0.040140,0.001000,0.001000,0.001000,0.001000,0.001000
1021.980769,0.039414,0.001000,0.001000,0.001000,0.001000,0.001000
1022.000000,0.038666,0.001000,0.001000,0.001000,0.001000,0.001000
1022.019231,0.037896,0.001000,0.001000,0.001000,0.001000,0.001000
1022.038462,0.037105,0.001000,0.001000,0.001000,0.001000,0.001000
1022.057692,0.036292,0.001000,0.001000,0.001000,0.001000,0.001000
1022.076923,0.035458,0.001000,0.001000,0.001000,0.001000,0.001000
1022.096154,0.034604,0.001000,0.001000,0.001000,0.001000,0.001000
1022.115385,0.033730,0.001000,0.001000,0.001000,0.001000,0.001000
1022.134615,0.032837,0.001000,0.001000,0.001000,0.001000,0.001000
1022.153846,0.031925,0.001000,0.001000,0.001000,0.001000,0.001000
1022.173077,0.030994,0.001000,0.001000,0.001000,0.001000,0.001000
1022.192308,0.030046,0.001000,0.001000,0.001000,0.001000,0.001000
1022.211538,0.029081,0.001000,0.001000,0.001000,0.001000,0.001000
1022.230769,0.028098,0.001000,0.001000,0.001000,0.001000,0.001000
1022.250000,0.027100,0.001000,0.001000,0.001000,0.001000,0.001000
1022.269231,0.026087,0.001000,0.001000,0.001000,0.001000,0.001000
1022.288462,0.025058,0.001000,0.001000,0.001000,0.001000,0.001000
1022.307692,0.024015,0.001000,0.001000,0.001000,0.001000,0.001000
1022.326923,0.022958,0.001000,0.001000,0.001000,0.001000,0.001000
1022.346154,0.021888,0.001000,0.001000,0.001000,0.001000,0.001000
1022.365385,0.020806,0.001000,0.001000,0.001000,0.001000,0.001000
1022.384615,0.019711,0.001000,0.001000,0.001000,0.001000,0.001000
1022.403846,0.018606,0.001000,0.001000,0.001000,0.001000,0.001000
1022.423077,0.017489,0.001000,0.001000,0.001000,0.001000,0.001000
1022.442308,0.016363,0.001000,0.001000,0.001000,0.001000,0.001000
1022.461538,0.015227,0.001000,0.001000,0.001000,0.001000,0.001000
1022.480769,0.014082,0.001000,0.001000,0.001000,0.001000,0.001000
1022.500000,0.012930,0.001000,0.001000,0.001000,0.001000,0.001000
1022.519231,0.011770,0.001000,0.001000,0.001000,0.001000,0.001000
1022.538462,0.010603,0.001000,0.001000,0.001000,0.001000,0.001000
1022.557692,0.009430,0.001000,0.001000,0.001000,0.001000,0.001000
1022.576923,0.008252,0.001000,0.001000,0.001000,0.001000,0.001000
1022.596154,0.007069,0.001000,0.001000,0.001000,0.001000,0.001000
1022.615385,0.005882,0.001000,0.001000,0.001000,0.001000,0.001000
1022.634615,0.004692,0.001000,0.001000,0.001000,0.001000,0.001000
1022.653846,0.003499,0.001000,0.001000,0.001000,0.001000,0.001000
1022.673077,0.002303,0.001000,0.001000,0.001000,0.001000,0.001000
1022.692308,0.001107,0.001000,0.001000,0.001000,0.001000,0.001000
1022.711538,-0.000090,0.001000,0.001000,0.001000,0.001000,0.001000
1022.730769,-0.001287,0.001000,0.001000,0.001000,0.001000,0.001000
1022.750000,-0.002483,0.001000,0.001000,0.001000,0.001000,0.001000
1022.769231,-0.003678,0.001000,0.001000,0.001000,0.001000,0.001000
1022.788462,-0.004871,0.001000,0.001000,0.001000,0.001000,0.001000
1022.807692,-0.006061,0.001000,0.001000,0.001000,0.001000,0.001000
1022.826923,-0.007247,0.001000,0.001000,0.001000,0.001000,0.001000
1022.846154,-0.008429,0.001000,0.001000,0.001000,0.001000,0.001000
1022.865385,-0.009607,0.001000,0.001000,0.001000,0.001000,0.001000
1022.884615,-0.010779,0.001000,0.001000,0.001000,0.001000,0.001000
1022.903846,-0.011945,0.001000,0.001000,0.001000,0.001000,0.001000
1022.923077,-0.013104,0.001000,0.001000,0.001000,0.001000,0.001000
1022.942308,-0.014255,0.001000,0.001000,0.001000,0.001000,0.001000
1022.961538,-0.015398,0.001000,0.001000,0.001000,0.001000,0.001000
1022.980769,-0.016533,0.001000,0.001000,0.001000,0.001000,0.001000
1023.000000,-0.017658,0.001000,0.001000,0.001000,0.001000,0.001000
1023.019231,-0.018772,0.001000,0.001000,0.001000,0.001000,0.001000
1023.038462,-0.019876,0.001000,0.001000,0.001000,0.001000,0.001000
1023.057692,-0.020969,0.001000,0.001000,0.001000,0.001000,0.001000
1023.076923,-0.022050,0.001000,0.001000,0.001000,0.001000,0.001000
1023.096154,-0.023118,0.001000,0.001000,0.001000,0.001000,0.001000
1023.115385,-0.024173,0.001000,0.001000,0.001000,0.001000,0.001000
1023.134615,-0.025213,0.001000,0.001000,0.001000,0.001000,0.001000
1023.153846,-0.026240,0.001000,0.001000,0.001000,0.001000,0.001000
1023.173077,-0.027251,0.001000,0.001000,0.001000,0.001000,0.001000
1023.192308,-0.028247,0.001000,0.001000,0.001000,0.001000,0.001000
1023.211538,-0.029227,0.001000,0.001000,0.001000,0.001000,0.001000
1023.230769,-0.030190,0.001000,0.001000,0.001000,0.001000,0.001000
1023.250000,-0.031135,0.001000,0.001000,0.001000,0.001000,0.001000
1023.269231,-0.032063,0.001000,0.001000,0.001000,0.001000,0.001000
1023.288462,-0.032972,0.001000,0.001000,0.001000,0.001000,0.001000
1023.307692,-0.033862,0.001000,0.001000,0.001000,0.001000,0.001000
1023.326923,-0.034733,0.001000,0.001000,0.001000,0.001000,0.001000
1023.346154,-0.035585,0.001000,0.001000,0.001000,0.001000,0.001000
1023.365385,-0.036415,0.001000,0.001000,0.001000,0.001000,0.001000
1023.384615,-0.037225,0.001000,0.001000,0.001000,0.001000,0.001000
1023.403846,-0.038014,0.001000,0.001000,0.001000,0.001000,0.001000
1023.423077,-0.038780,0.001000,0.001000,0.001000,0.001000,0.001000
1023.442308,-0.039525,0.001000,0.001000,0.001000,0.001000,0.001000
1023.461538,-0.040247,0.001000,0.001000,0.001000,0.001000,0.001000
1023.480769,-0.040945,0.001000,0.001000,0.001000,0.001000,0.001000
1023.500000,-0.041621,0.001000,0.001000,0.001000,0.001000,0.001000
1023.519231,-0.042272,0.001000,0.001000,0.001000,0.001000,0.001000
1023.538462,-0.042899,0.001000,0.001000,0.001000,0.001000,0.001000
1023.557692,-0.043502,0.001000,0.001000,0.001000,0.001000,0.001000
1023.576923,-0.044079,0.001000,0.001000,0.001000,0.001000,0.001000
1023.596154,-0.044632,0.001000,0.001000,0.001000,0.001000,0.001000
1023.615385,-0.045159,0.001000,0.001000,0.001000,0.001000,0.001000
1023.634615,-0.045659,0.001000,0.001000,0.001000,0.001000,0.001000
1023.653846,-0.046134,0.001000,0.001000,0.001000,0.001000,0.001000
1023.673077,-0.046582,0.001000,0.001000,0.001000,0.001000,0.001000
1023.692308,-0.047004,0.001000,0.001000,0.001000,0.001000,0.001000
1023.711538,-0.047399,0.001000,0.001000,0.001000,0.001000,0.001000
1023.730769,-0.047766,0.001000,0.001000,0.001000,0.001000,0.001000
1023.750000,-0.048106,0.001000,0.001000,0.001000,0.001000,0.001000
1023.769231,-0.048419,0.001000,0.001000,0.001000,0.001000,0.001000
1023.788462,-0.048704,0.001000,0.001000,0.001000,0.001000,0.001000
1023.807692,-0.048960,0.001000,0.001000,0.001000,0.001000,0.001000
1023.826923,-0.049189,0.001000,0.001000,0.001000,0.001000,0.001000
1023.846154,-0.049390,0.001000,0.001000,0.001000,0.001000,0.001000
1023.865385,-0.049562,0.001000,0.001000,0.001000,0.001000,0.001000
1023.884615,-0.049706,0.001000,0.001000,0.001000,0.001000,0.001000
1023.903846,-0.049821,0.001000,0.001000,0.001000,0.001000,0.001000
1023.923077,-0.049908,0.001000,0.001000,0.001000,0.001000,0.001000
1023.942308,-0.049966,0.001000,0.001000,0.001000,0.001000,0.001000
1023.961538,-0.049996,0.001000,0.001000,0.001000,0.001000,0.001000
1023.980769,-0.049997,0.001000,0.001000,0.001000,0.001000,0.001000
1024.000000,-0.049969,0.001000,0.001000,0.001000,0.001000,0.001000
1024.019231,-0.049913,0.001000,0.001000,0.001000,0.001000,0.001000
1024.038462,-0.049828,0.001000,0.001000,0.001000,0.001000,0.001000
1024.057692,-0.049714,0.001000,0.001000,0.001000,0.001000,0.001000
1024.076923,-0.049572,0.001000,0.001000,0.001000,0.001000,0.001000
1024.096154,-0.049402,0.001000,0.001000,0.001000,0.001000,0.001000
1024.115385,-0.049203,0.001000,0.001000,0.001000,0.001000,0.001000
1024.134615,-0.048976,0.001000,0.001000,0.001000,0.001000,0.001000
1024.153846,-0.048721,0.001000,0.001000,0.001000,0.001000,0.001000
1024.173077,-0.048438,0.001000,0.001000,0.001000,0.001000,0.001000
1024.192308,-0.048127,0.001000,0.001000,0.001000,0.001000,0.001000
1024.211538,-0.047789,0.001000,0.001000,0.001000,0.001000,0.001000
1024.230769,-0.047423,0.001000,0.001000,0.001000,0.001000,0.001000
1024.250000,-0.047030,0.001000,0.001000,0.001000,0.001000,0.001000
1024.269231,-0.046610,0.001000,0.001000,0.001000,0.001000,0.001000
1024.288462,-0.046163,0.001000,0.001000,0.001000,0.001000,0.001000
1024.307692,-0.045690,0.001000,0.001000,0.001000,0.001000,0.001000
1024.326923,-0.045191,0.001000,0.001000,0.001000,0.001000,0.001000
1024.346154,-0.044666,0.001000,0.001000,0.001000,0.001000,0.001000
1024.365385,-0.044115,0.001000,0.001000,0.001000,0.001000,0.001000
1024.384615,-0.043539,0.001000,0.001000,0.001000,0.001000,0.001000
1024.403846,-0.042938,0.001000,0.001000,0.001000,0.001000,0.001000
1024.423077,-0.042313,0.001000,0.001000,0.001000,0.001000,0.001000
1024.442308,-0.041663,0.001000,0.001000,0.001000,0.001000,0.001000
1024.461538,-0.040989,0.001000,0.001000,0.001000,0.001000,0.001000
1024.480769,-0.040292,0.001000,0.001000,0.001000,0.001000,0.001000
1024.500000,-0.039571,0.001000,0.001000,0.001000,0.001000,0.001000
1024.519231,-0.038828,0.001000,0.001000,0.001000,0.001000,0.001000
1024.538462,-0.038063,0.001000,0.001000,0.001000,0.001000,0.001000
1024.557692,-0.037276,0.001000,0.001000,0.001000,0.001000,0.001000
1024.576923,-0.036467,0.001000,0.001000,0.001000,0.001000,0.001000
1024.596154,-0.035638,0.001000,0.001000,0.001000,0.001000,0.001000
1024.615385,-0.034788,0.001000,0.001000,0.001000,0.001000,0.001000
1024.634615,-0.033918,0.001000,0.001000,0.001000,0.001000,0.001000
1024.653846,-0.033029,0.001000,0.001000,0.001000,0.001000,0.001000
1024.673077,-0.032121,0.001000,0.001000,0.001000,0.001000,0.001000
1024.692308,-0.031195,0.001000,0.001000,0.001000,0.001000,0.001000
1024.711538,-0.030250,0.001000,0.001000,0.001000,0.001000,0.001000
1024.730769,-0.029288,0.001000,0.001000,0.001000,0.001000,0.001000
1024.750000,-0.028310,0.001000,0.001000,0.001000,0.001000,0.001000
1024.769231,-0.027315,0.001000,0.001000,0.001000,0.001000,0.001000
1024.788462,-0.026305,0.001000,0.001000,0.001000,0.001000,0.001000
1024.807692,-0.025279,0.001000,0.001000,0.001000,0.001000,0.001000
1024.826923,-0.024239,0.001000,0.001000,0.001000,0.001000,0.001000
1024.846154,-0.023185,0.001000,0.001000,0.001000,0.001000,0.001000
1024.865385,-0.022118,0.001000,0.001000,0.001000,0.001000,0.001000
1024.884615,-0.021038,0.001000,0.001000,0.001000,0.001000,0.001000
1024.903846,-0.019946,0.001000,0.001000,0.001000,0.001000,0.001000
1024.923077,-0.018843,0.001000,0.001000,0.001000,0.001000,0.001000
1024.942308,-0.017729,0.001000,0.001000,0.001000,0.001000,0.001000
1024.961538,-0.016604,0.001000,0.001000,0.001000,0.001000,0.001000
1024.980769,-0.015471,0.001000,0.001000,0.001000,0.001000,0.001000
1025.000000,-0.014328,0.001000,0.001000,0.001000,0.001000,0.001000
1025.019231,-0.013177,0.001000,0.001000,0.001000,0.001000,0.001000
1025.038462,-0.012019,0.001000,0.001000,0.001000,0.001000,0.001000
1025.057692,-0.010853,0.001000,0.001000,0.001000,0.001000,0.001000
1025.076923,-0.009682,0.001000,0.001000,0.001000,0.001000,0.001000
1025.096154,-0.008504,0.001000,0.001000,0.001000,0.001000,0.001000
1025.115385,-0.007322,0.001000,0.001000,0.001000,0.001000,0.001000
1025.134615,-0.006136,0.001000,0.001000,0.001000,0.001000,0.001000
1025.153846,-0.004946,0.001000,0.001000,0.001000,0.001000,0.001000
1025.173077,-0.003754,0.001000,0.001000,0.001000,0.001000,0.001000
1025.192308,-0.002559,0.001000,0.001000,0.001000,0.001000,0.001000
1025.211538,-0.001363,0.001000,0.001000,0.001000,0.001000,0.001000
1025.230769,-0.000166,0.001000,0.001000,0.001000,0.001000,0.001000
1025.250000,0.001031,0.001000,0.001000,0.001000,0.001000,0.001000
1025.269231,0.002227,0.001000,0.001000,0.001000,0.001000,0.001000
1025.288462,0.003423,0.001000,0.001000,0.001000,0.001000,0.001000
1025.307692,0.004616,0.001000,0.001000,0.001000,0.001000,0.001000
1025.326923,0.005806,0.001000,0.001000,0.001000,0.001000,0.001000
1025.346154,0.006994,0.001000,0.001000,0.001000,0.001000,0.001000
1025.365385,0.008177,0.001000,0.001000,0.001000,0.001000,0.001000
1025.384615,0.009355,0.001000,0.001000,0.001000,0.001000,0.001000
1025.403846,0.010529,0.001000,0.001000,0.001000,0.001000,0.001000
1025.423077,0.011696,0.001000,0.001000,0.001000,0.001000,0.001000
1025.442308,0.012856,0.001000,0.001000,0.001000,0.001000,0.001000
1025.461538,0.014009,0.001000,0.001000,0.001000,0.001000,0.001000
1025.480769,0.015154,0.001000,0.001000,0.001000,0.001000,0.001000
1025.500000,0.016291,0.001000,0.001000,0.001000,0.001000,0.001000
1025.519231,0.017418,0.001000,0.001000,0.001000,0.001000,0.001000
1025.538462,0.018535,0.001000,0.001000,0.001000,0.001000,0.001000
1025.557692,0.019641,0.001000,0.001000,0.001000,0.001000,0.001000
1025.576923,0.020736,0.001000,0.001000,0.001000,0.001000,0.001000
1025.596154,0.021820,0.001000,0.001000,0.001000,0.001000,0.001000
1025.615385,0.022890,0.001000,0.001000,0.001000,0.001000,0.001000
1025.634615,0.023948,0.001000,0.001000,0.001000,0.001000,0.001000
1025.653846,0.024992,0.001000,0.001000,0.001000,0.001000,0.001000
1025.673077,0.026022,0.001000,0.001000,0.001000,0.001000,0.001000
1025.692308,0.027036,0.001000,0.001000,0.001000,0.001000,0.001000
1025.711538,0.028035,0.001000,0.001000,0.001000,0.001000,0.001000
1025.730769,0.029019,0.001000,0.001000,0.001000,0.001000,0.001000
1025.750000,0.029985,0.001000,0.001000,0.001000,0.001000,0.001000
1025.769231,0.030934,0.001000,0.001000,0.001000,0.001000,0.001000
1025.788462,0.031866,0.001000,0.001000,0.001000,0.001000,0.001000
1025.807692,0.032779,0.001000,0.001000,0.001000,0.001000,0.001000
1025.826923,0.033674,0.001000,0.001000,0.001000,0.001000,0.001000
1025.846154,0.034549,0.001000,0.001000,0.001000,0.001000,0.001000
1025.865385,0.035404,0.001000,0.001000,0.001000,0.001000,0.001000
1025.884615,0.036239,0.001000,0.001000,0.001000,0.001000,0.001000
1025.903846,0.037054,0.001000,0.001000,0.001000,0.001000,0.001000
1025.923077,0.037847,0.001000,0.001000,0.001000,0.001000,0.001000
1025.942308,0.038618,0.001000,0.001000,0.001000,0.001000,0.001000
1025.961538,0.039367,0.001000,0.001000,0.001000,0.001000,0.001000
1025.980769,0.040094,0.001000,0.001000,0.001000,0.001000,0.001000
1026.000000,0.040798,0.001000,0.001000,0.001000,0.001000,0.001000
1026.019231,0.041478,0.001000,0.001000,0.001000,0.001000,0.001000
1026.038462,0.042135,0.001000,0.001000,0.001000,0.001000,0.001000
1026.057692,0.042767,0.001000,0.001000,0.001000,0.001000,0.001000
1026.076923,0.043375,0.001000,0.001000,0.001000,0.001000,0.001000
1026.096154,0.043958,0.001000,0.001000,0.001000,0.001000,0.001000
1026.115385,0.044516,0.001000,0.001000,0.001000,0.001000,0.001000
1026.134615,0.045048,0.001000,0.001000,0.001000,0.001000,0.001000
1026.153846,0.045554,0.001000,0.001000,0.001000,0.001000,0.001000
1026.173077,0.046035,0.001000,0.001000,0.001000,0.001000,0.001000
1026.192308,0.046489,0.001000,0.001000,0.001000,0.001000,0.001000
1026.211538,0.046916,0.001000,0.001000,0.001000,0.001000,0.001000
1026.230769,0.047317,0.001000,0.001000,0.001000,0.001000,0.001000
1026.250000,0.047690,0.001000,0.001000,0.001000,0.001000,0.001000
1026.269231,0.048036,0.001000,0.001000,0.001000,0.001000,0.001000
1026.288462,0.048354,0.001000,0.001000,0.001000,0.001000,0.001000
1026.307692,0.048645,0.001000,0.001000,0.001000,0.001000,0.001000
1026.326923,0.048908,0.001000,0.001000,0.001000,0.001000,0.001000
1026.346154,0.049143,0.001000,0.001000,0.001000,0.001000,0.001000
1026.365385,0.049349,0.001000,0.001000,0.001000,0.001000,0.001000
1026.384615,0.049528,0.001000,0.001000,0.001000,0.001000,0.001000
1026.403846,0.049678,0.001000,0.001000,0.001000,0.001000,0.001000
1026.423077,0.049799,0.001000,0.001000,0.001000,0.001000,0.001000
1026.442308,0.049892,0.001000,0.001000,0.001000,0.001000,0.001000
1026.461538,0.049956,0.001000,0.001000,0.001000,0.001000,0.001000
1026.480769,0.049992,0.001000,0.001000,0.001000,0.001000,0.001000
1026.500000,0.049999,0.001000,0.001000,0.001000,0.001000,0.001000
1026.519231,0.049977,0.001000,0.001000,0.001000,0.001000,0.001000
1026.538462,0.049927,0.001000,0.001000,0.001000,0.001000,0.001000
1026.557692,0.049848,0.001000,0.001000,0.001000,0.001000,0.001000
1026.576923,0.049741,0.001000,0.001000,0.001000,0.001000,0.001000
1026.596154,0.049605,0.001000,0.001000,0.001000,0.001000,0.001000
1026.615385,0.049440,0.001000,0.001000,0.001000,0.001000,0.001000
1026.634615,0.049248,0.001000,0.001000,0.001000,0.001000,0.001000
1026.653846,0.049027,0.001000,0.001000,0.001000,0.001000,0.001000
1026.673077,0.048778,0.001000,0.001000,0.001000,0.001000,0.001000
1026.692308,0.048501,0.001000,0.001000,0.001000,0.001000,0.001000
1026.711538,0.048196,0.001000,0.001000,0.001000,0.001000,0.001000
1026.730769,0.047863,0.001000,0.001000,0.001000,0.001000,0.001000
1026.750000,0.047503,0.001000,0.001000,0.001000,0.001000,0.001000
1026.769231,0.047116,0.001000,0.001000,0.001000,0.001000,0.001000
1026.788462,0.046702,0.001000,0.001000,0.001000,0.001000,0.001000
1026.807692,0.046261,0.001000,0.001000,0.001000,0.001000,0.001000
1026.826923,0.045794,0.001000,0.001000,0.001000,0.001000,0.001000
1026.846154,0.045300,0.001000,0.001000,0.001000,0.001000,0.001000
1026.865385,0.044780,0.001000,0.001000,0.001000,0.001000,0.001000
1026.884615,0.044235,0.001000,0.001000,0.001000,0.001000,0.001000
1026.903846,0.043664,0.001000,0.001000,0.001000,0.001000,0.001000
1026.923077,0.043069,0.001000,0.001000,0.001000,0.001000,0.001000
1026.942308,0.042448,0.001000,0.001000,0.001000,0.001000,0.001000
1026.961538,0.041804,0.001000,0.001000,0.001000,0.001000,0.001000
1026.980769,0.041135,0.001000,0.001000,0.001000,0.001000,0.001000
1027.000000,0.040443,0.001000,0.001000,0.001000,0.001000,0.001000
1027.019231,0.039727,0.001000,0.001000,0.001000,0.001000,0.001000
1027.038462,0.038989,0.001000,0.001000,0.001000,0.001000,0.001000
1027.057692,0.038228,0.001000,0.001000,0.001000,0.001000,0.001000
1027.076923,0.037446,0.001000,0.001000,0.001000,0.001000,0.001000
1027.096154,0.036642,0.001000,0.001000,0.001000,0.001000,0.001000
1027.115385,0.035817,0.001000,0.001000,0.001000,0.001000,0.001000
1027.134615,0.034972,0.001000,0.001000,0.001000,0.001000,0.001000
1027.153846,0.034106,0.001000,0.001000,0.001000,0.001000,0.001000
1027.173077,0.033221,0.001000,0.001000,0.001000,0.001000,0.001000
1027.192308,0.032317,0.001000,0.001000,0.001000,0.001000,0.001000
1027.211538,0.031394,0.001000,0.001000,0.001000,0.001000,0.001000
1027.230769,0.030454,0.001000,0.001000,0.001000,0.001000,0.001000
1027.250000,0.029496,0.001000,0.001000,0.001000,0.001000,0.001000
1027.269231,0.028521,0.001000,0.001000,0.001000,0.001000,0.001000
1027.288462,0.027529,0.001000,0.001000,0.001000,0.001000,0.001000
1027.307692,0.026522,0.001000,0.001000,0.001000,0.001000,0.001000
1027.326923,0.025500,0.001000,0.001000,0.001000,0.001000,0.001000
1027.346154,0.024463,0.001000,0.001000,0.001000,0.001000,0.001000
1027.365385,0.023412,0.001000,0.001000,0.001000,0.001000,0.001000
1027.384615,0.022347,0.001000,0.001000,0.001000,0.001000,0.001000
1027.403846,0.021270,0.001000,0.001000,0.001000,0.001000,0.001000
1027.423077,0.020181,0.001000,0.001000,0.001000,0.001000,0.001000
1027.442308,0.019080,0.001000,0.001000,0.001000,0.001000,0.001000
1027.461538,0.017968,0.001000,0.001000,0.001000,0.001000,0.001000
1027.480769,0.016846,0.001000,0.001000,0.001000,0.001000,0.001000
1027.500000,0.015714,0.001000,0.001000,0.001000,0.001000,0.001000
1027.519231,0.014573,0.001000,0.001000,0.001000,0.001000,0.001000
1027.538462,0.013424,0.001000,0.001000,0.001000,0.001000,0.001000
1027.557692,0.012267,0.001000,0.001000,0.001000,0.001000,0.001000
1027.576923,0.011103,0.001000,0.001000,0.001000,0.001000,0.001000
1027.596154,0.009933,0.001000,0.001000,0.001000,0.001000,0.001000
1027.615385,0.008757,0.001000,0.001000,0.001000,0.001000,0.001000
1027.634615,0.007576,0.001000,0.001000,0.001000,0.001000,0.001000
1027.653846,0.006390,0.001000,0.001000,0.001000,0.001000,0.001000
1027.673077,0.005201,0.001000,0.001000,0.001000,0.001000,0.001000
1027.692308,0.004009,0.001000,0.001000,0.001000,0.001000,0.001000
1027.711538,0.002815,0.001000,0.001000,0.001000,0.001000,0.001000
1027.730769,0.001619,0.001000,0.001000,0.001000,0.001000,0.001000
1027.750000,0.000422,0.001000,0.001000,0.001000,0.001000,0.001000
1027.769231,-0.000775,0.001000,0.001000,0.001000,0.001000,0.001000
1027.788462,-0.001972,0.001000,0.001000,0.001000,0.001000,0.001000
1027.807692,-0.003167,0.001000,0.001000,0.001000,0.001000,0.001000
1027.826923,-0.004361,0.001000,0.001000,0.001000,0.001000,0.001000
1027.846154,-0.005552,0.001000,0.001000,0.001000,0.001000,0.001000
1027.865385,-0.006740,0.001000,0.001000,0.001000,0.001000,0.001000
1027.884615,-0.007924,0.001000,0.001000,0.001000,0.001000,0.001000
1027.903846,-0.009104,0.001000,0.001000,0.001000,0.001000,0.001000
1027.923077,-0.010278,0.001000,0.001000,0.001000,0.001000,0.001000
1027.942308,-0.011447,0.001000,0.001000,0.001000,0.001000,0.001000
1027.961538,-0.012609,0.001000,0.001000,0.001000,0.001000,0.001000
1027.980769,-0.013763,0.001000,0.001000,0.001000,0.001000,0.001000
1028.000000,-0.014910,0.001000,0.001000,0.001000,0.001000,0.001000
1028.019231,-0.016048,0.001000,0.001000,0.001000,0.001000,0.001000
1028.038462,-0.017178,0.001000,0.001000,0.001000,0.001000,0.001000
1028.057692,-0.018297,0.001000,0.001000,0.001000,0.001000,0.001000
1028.076923,-0.019406,0.001000,0.001000,0.001000,0.001000,0.001000
1028.096154,-0.020503,0.001000,0.001000,0.001000,0.001000,0.001000
1028.115385,-0.021589,0.001000,0.001000,0.001000,0.001000,0.001000
1028.134615,-0.022663,0.001000,0.001000,0.001000,0.001000,0.001000
1028.153846,-0.023723,0.001000,0.001000,0.001000,0.001000,0.001000
1028.173077,-0.024770,0.001000,0.001000,0.001000,0.001000,0.001000
1028.192308,-0.025803,0.001000,0.001000,0.001000,0.001000,0.001000
1028.211538,-0.026821,0.001000,0.001000,0.001000,0.001000,0.001000
1028.230769,-0.027823,0.001000,0.001000,0.001000,0.001000,0.001000
1028.250000,-0.028810,0.001000,0.001000,0.001000,0.001000,0.001000
1028.269231,-0.029780,0.001000,0.001000,0.001000,0.001000,0.001000
1028.288462,-0.030733,0.001000,0.001000,0.001000,0.001000,0.001000
1028.307692,-0.031668,0.001000,0.001000,0.001000,0.001000,0.001000
1028.326923,-0.032585,0.001000,0.001000,0.001000,0.001000,0.001000
1028.346154,-0.033484,0.001000,0.001000,0.001000,0.001000,0.001000
1028.365385,-0.034363,0.001000,0.001000,0.001000,0.001000,0.001000
1028.384615,-0.035223,0.001000,0.001000,0.001000,0.001000,0.001000
1028.403846,-0.036062,0.001000,0.001000,0.001000,0.001000,0.001000
1028.423077,-0.036881,0.001000,0.001000,0.001000,0.001000,0.001000
1028.442308,-0.037679,0.001000,0.001000,0.001000,0.001000,0.001000
1028.461538,-0.038455,0.001000,0.001000,0.001000,0.001000,0.001000
1028.480769,-0.039209,0.001000,0.001000,0.001000,0.001000,0.001000
1028.500000,-0.039941,0.001000,0.001000,0.001000,0.001000,0.001000
1028.519231,-0.040649,0.001000,0.001000,0.001000,0.001000,0.001000
1028.538462,-0.041335,0.001000,0.001000,0.001000,0.001000,0.001000
1028.557692,-0.041996,0.001000,0.001000,0.001000,0.001000,0.001000
1028.576923,-0.042634,0.001000,0.001000,0.001000,0.001000,0.001000
1028.596154,-0.043247,0.001000,0.001000,0.001000,0.001000,0.001000
1028.615385,-0.043835,0.001000,0.001000,0.001000,0.001000,0.001000
1028.634615,-0.044399,0.001000,0.001000,0.001000,0.001000,0.001000
1028.653846,-0.044936,0.001000,0.001000,0.001000,0.001000,0.001000
1028.673077,-0.045448,0.001000,0.001000,0.001000,0.001000,0.001000
1028.692308,-0.045934,0.001000,0.001000,0.001000,0.001000,0.001000
1028.711538,-0.046394,0.001000,0.001000,0.001000,0.001000,0.001000
1028.730769,-0.046827,0.001000,0.001000,0.001000,0.001000,0.001000
1028.750000,-0.047233,0.001000,0.001000,0.001000,0.001000,0.001000
1028.769231,-0.047612,0.001000,0.001000,0.001000,0.001000,0.001000
1028.788462,-0.047964,0.001000,0.001000,0.001000,0.001000,0.001000
1028.807692,-0.048289,0.001000,0.001000,0.001000,0.001000,0.001000
1028.826923,-0.048585,0.001000,0.001000,0.001000,0.001000,0.001000
1028.846154,-0.048854,0.001000,0.001000,0.001000,0.001000,0.001000
1028.865385,-0.049095,0.001000,0.001000,0.001000,0.001000,0.001000
1028.884615,-0.049307,0.001000,0.001000,0.001000,0.001000,0.001000
1028.903846,-0.049492,0.001000,0.001000,0.001000,0.001000,0.001000
1028.923077,-0.049648,0.001000,0.001000,0.001000,0.001000,0.001000
1028.942308,-0.049775,0.001000,0.001000,0.001000,0.001000,0.001000
1028.961538,-0.049875,0.001000,0.001000,0.001000,0.001000,0.001000
1028.980769,-0.049945,0.001000,0.001000,0.001000,0.001000,0.001000
1029.000000,-0.049987,0.001000,0.001000,0.001000,0.001000,0.001000
1029.019231,-0.050000,0.001000,0.001000,0.001000,0.001000,0.001000
1029.038462,-0.049984,0.001000,0.001000,0.001000,0.001000,0.001000
1029.057692,-0.049940,0.001000,0.001000,0.001000,0.001000,0.001000
1029.076923,-0.049868,0.001000,0.001000,0.001000,0.001000,0.001000
1029.096154,-0.049766,0.001000,0.001000,0.001000,0.001000,0.001000
1029.115385,-0.049636,0.001000,0.001000,0.001000,0.001000,0.001000
1029.134615,-0.049478,0.001000,0.001000,0.001000,0.001000,0.001000
1029.153846,-0.049291,0.001000,0.001000,0.001000,0.001000,0.001000
1029.173077,-0.049076,0.001000,0.001000,0.001000,0.001000,0.001000
1029.192308,-0.048833,0.001000,0.001000,0.001000,0.001000,0.001000
1029.211538,-0.048562,0.001000,0.001000,0.001000,0.001000,0.001000
1029.230769,-0.048263,0.001000,0.001000,0.001000,0.001000,0.001000
1029.250000,-0.047937,0.001000,0.001000,0.001000,0.001000,0.001000
1029.269231,-0.047583,0.001000,0.001000,0.001000,0.001000,0.001000
1029.288462,-0.047201,0.001000,0.001000,0.001000,0.001000,0.001000
1029.307692,-0.046793,0.001000,0.001000,0.001000,0.001000,0.001000
1029.326923,-0.046358,0.001000,0.001000,0.001000,0.001000,0.001000
1029.346154,-0.045896,0.001000,0.001000,0.001000,0.001000,0.001000
1029.365385,-0.045408,0.001000,0.001000,0.001000,0.001000,0.001000
1029.384615,-0.044894,0.001000,0.001000,0.001000,0.001000,0.001000
1029.403846,-0.044354,0.001000,0.001000,0.001000,0.001000,0.001000
1029.423077,-0.043789,0.001000,0.001000,0.001000,0.001000,0.001000
1029.442308,-0.043198,0.001000,0.001000,0.001000,0.001000,0.001000
1029.461538,-0.042583,0.001000,0.001000,0.001000,0.001000,0.001000
1029.480769,-0.041944,0.001000,0.001000,0.001000,0.001000,0.001000
1029.500000,-0.041280,0.001000,0.001000,0.001000,0.001000,0.001000
1029.519231,-0.040593,0.001000,0.001000,0.001000,0.001000,0.001000
1029.538462,-0.039882,0.001000,0.001000,0.001000,0.001000,0.001000
1029.557692,-0.039149,0.001000,0.001000,0.001000,0.001000,0.001000
1029.576923,-0.038393,0.001000,0.001000,0.001000,0.001000,0.001000
1029.596154,-0.037615,0.001000,0.001000,0.001000,0.001000,0.001000
1029.615385,-0.036816,0.001000,0.001000,0.001000,0.001000,0.001000
1029.634615,-0.035995,0.001000,0.001000,0.001000,0.001000,0.001000
1029.653846,-0.035154,0.001000,0.001000,0.001000,0.001000,0.001000
1029.673077,-0.034293,0.001000,0.001000,0.001000,0.001000,0.001000
1029.692308,-0.033412,0.001000,0.001000,0.001000,0.001000,0.001000
1029.711538,-0.032512,0.001000,0.001000,0.001000,0.001000,0.001000
1029.730769,-0.031593,0.001000,0.001000,0.001000,0.001000,0.001000
1029.750000,-0.030656,0.001000,0.001000,0.001000,0.001000,0.001000
1029.769231,-0.029702,0.001000,0.001000,0.001000,0.001000,0.001000
1029.788462,-0.028730,0.001000,0.001000,0.001000,0.001000,0.001000
1029.807692,-0.027743,0.001000,0.001000,0.001000,0.001000,0.001000
1029.826923,-0.026739,0.001000,0.001000,0.001000,0.001000,0.001000
1029.846154,-0.025720,0.001000,0.001000,0.001000,0.001000,0.001000
1029.865385,-0.024686,0.001000,0.001000,0.001000,0.001000,0.001000
1029.884615,-0.023638,0.001000,0.001000,0.001000,0.001000,0.001000
1029.903846,-0.022576,0.001000,0.001000,0.001000,0.001000,0.001000
1029.923077,-0.021502,0.001000,0.001000,0.001000,0.001000,0.001000
1029.942308,-0.020415,0.001000,0.001000,0.001000,0.001000,0.001000
1029.961538,-0.019316,0.001000,0.001000,0.001000,0.001000,0.001000
1029.980769,-0.018207,0.001000,0.001000,0.001000,0.001000,0.001000
1030.000000,0.000000,0.001000,0.001000,0.001000,0.001000,0.001000
1030.019231,0.001232,0.001000,0.001000,0.001000,0.001000,0.001000
1030.038462,0.002463,0.001000,0.001000,0.001000,0.001000,0.001000
1030.057692,0.003693,0.001000,0.001000,0.001000,0.001000,0.001000
1030.076923,0.004921,0.001000,0.001000,0.001000,0.001000,0.001000
1030.096154,0.006145,0.001000,0.001000,0.001000,0.001000,0.001000
1030.115385,0.007366,0.001000,0.001000,0.001000,0.001000,0.001000
1030.134615,0.008582,0.001000,0.001000,0.001000,0.001000,0.001000
1030.153846,0.009793,0.001000,0.001000,0.001000,0.001000,0.001000
1030.173077,0.010998,0.001000,0.001000,0.001000,0.001000,0.001000
1030.192308,0.012197,0.001000,0.001000,0.001000,0.001000,0.001000
1030.211538,0.013388,0.001000,0.001000,0.001000,0.001000,0.001000
1030.230769,0.014571,0.001000,0.001000,0.001000,0.001000,0.001000
1030.250000,0.015745,0.001000,0.001000,0.001000,0.001000,0.001000
1030.269231,0.016910,0.001000,0.001000,0.001000,0.001000,0.001000
1030.288462,0.018064,0.001000,0.001000,0.001000,0.001000,0.001000
1030.307692,0.019207,0.001000,0.001000,0.001000,0.001000,0.001000
1030.326923,0.020339,0.001000,0.001000,0.001000,0.001000,0.001000
1030.346154,0.021458,0.001000,0.001000,0.001000,0.001000,0.001000
1030.365385,0.022564,0.001000,0.001000,0.001000,0.001000,0.001000
1030.384615,0.023657,0.001000,0.001000,0.001000,0.001000,0.001000
1030.403846,0.024735,0.001000,0.001000,0.001000,0.001000,0.001000
1030.423077,0.025798,0.001000,0.001000,0.001000,0.001000,0.001000
1030.442308,0.026846,0.001000,0.001000,0.001000,0.001000,0.001000
1030.461538,0.027877,0.001000,0.001000,0.001000,0.001000,0.001000
1030.480769,0.028891,0.001000,0.001000,0.001000,0.001000,0.001000
1030.500000,0.029888,0.001000,0.001000,0.001000,0.001000,0.001000
1030.519231,0.030867,0.001000,0.001000,0.001000,0.001000,0.001000
1030.538462,0.031827,0.001000,0.001000,0.001000,0.001000,0.001000
1030.557692,0.032767,0.001000,0.001000,0.001000,0.001000,0.001000
1030.576923,0.033688,0.001000,0.001000,0.001000,0.001000,0.001000
1030.596154,0.034588,0.001000,0.001000,0.001000,0.001000,0.001000
1030.615385,0.035467,0.001000,0.001000,0.001000,0.001000,0.001000
1030.634615,0.036325,0.001000,0.001000,0.001000,0.001000,0.001000
1030.653846,0.037160,0.001000,0.001000,0.001000,0.001000,0.001000
1030.673077,0.037973,0.001000,0.001000,0.001000,0.001000,0.001000
1030.692308,0.038763,0.001000,0.001000,0.001000,0.001000,0.001000
1030.711538,0.039530,0.001000,0.001000,0.001000,0.001000,0.001000
1030.730769,0.040272,0.001000,0.001000,0.001000,0.001000,0.001000
1030.750000,0.040990,0.001000,0.001000,0.001000,0.001000,0.001000
1030.769231,0.041683,0.001000,0.001000,0.001000,0.001000,0.001000
1030.788462,0.042351,0.001000,0.001000,0.001000,0.001000,0.001000
1030.807692,0.042993,0.001000,0.001000,0.001000,0.001000,0.001000
1030.826923,0.043609,0.001000,0.001000,0.001000,0.001000,0.001000
1030.846154,0.044198,0.001000,0.001000,0.001000,0.001000,0.001000
1030.865385,0.044761,0.001000,0.001000,0.001000,0.001000,0.001000
1030.884615,0.045296,0.001000,0.001000,0.001000,0.001000,0.001000
1030.903846,0.045804,0.001000,0.001000,0.001000,0.001000,0.001000
1030.923077,0.046284,0.001000,0.001000,0.001000,0.001000,0.001000
1030.942308,0.046736,0.001000,0.001000,0.001000,0.001000,0.001000
1030.961538,0.047160,0.001000,0.001000,0.001000,0.001000,0.001000
1030.980769,0.047555,0.001000,0.001000,0.001000,0.001000,0.001000
1031.000000,0.047921,0.001000,0.001000,0.001000,0.001000,0.001000
1031.019231,0.048258,0.001000,0.001000,0.001000,0.001000,0.001000
1031.038462,0.048566,0.001000,0.001000,0.001000,0.001000,0.001000
1031.057692,0.048844,0.001000,0.001000,0.001000,0.001000,0.001000
1031.076923,0.049093,0.001000,0.001000,0.001000,0.001000,0.001000
1031.096154,0.049311,0.001000,0.001000,0.001000,0.001000,0.001000
1031.115385,0.049500,0.001000,0.001000,0.001000,0.001000,0.001000
1031.134615,0.049659,0.001000,0.001000,0.001000,0.001000,0.001000
1031.153846,0.049787,0.001000,0.001000,0.001000,0.001000,0.001000
1031.173077,0.049886,0.001000,0.001000,0.001000,0.001000,0.001000
1031.192308,0.049954,0.001000,0.001000,0.001000,0.001000,0.001000
1031.211538,0.049992,0.001000,0.001000,0.001000,0.001000,0.001000
1031.230769,0.049999,0.001000,0.001000,0.001000,0.001000,0.001000
1031.250000,0.049976,0.001000,0.001000,0.001000,0.001000,0.001000
1031.269231,0.049923,0.001000,0.001000,0.001000,0.001000,0.001000
1031.288462,0.049839,0.001000,0.001000,0.001000,0.001000,0.001000
1031.307692,0.049725,0.001000,0.001000,0.001000,0.001000,0.001000
1031.326923,0.049581,0.001000,0.001000,0.001000,0.001000,0.001000
1031.346154,0.049407,0.001000,0.001000,0.001000,0.001000,0.001000
1031.365385,0.049203,0.001000,0.001000,0.001000,0.001000,0.001000
1031.384615,0.048969,0.001000,0.001000,0.001000,0.001000,0.001000
1031.403846,0.048705,0.001000,0.001000,0.001000,0.001000,0.001000
1031.423077,0.048411,0.001000,0.001000,0.001000,0.001000,0.001000
1031.442308,0.048089,0.001000,0.001000,0.001000,0.001000,0.001000
1031.461538,0.047737,0.001000,0.001000,0.001000,0.001000,0.001000
1031.480769,0.047356,0.001000,0.001000,0.001000,0.001000,0.001000
1031.500000,0.046946,0.001000,0.001000,0.001000,0.001000,0.001000
1031.519231,0.046508,0.001000,0.001000,0.001000,0.001000,0.001000
1031.538462,0.046041,0.001000,0.001000,0.001000,0.001000,0.001000
1031.557692,0.045547,0.001000,0.001000,0.001000,0.001000,0.001000
1031.576923,0.045025,0.001000,0.001000,0.001000,0.001000,0.001000
1031.596154,0.044475,0.001000,0.001000,0.001000,0.001000,0.001000
1031.615385,0.043899,0.001000,0.001000,0.001000,0.001000,0.001000
1031.634615,0.043296,0.001000,0.001000,0.001000,0.001000,0.001000
1031.653846,0.042666,0.001000,0.001000,0.001000,0.001000,0.001000
1031.673077,0.042011,0.001000,0.001000,0.001000,0.001000,0.001000
1031.692308,0.041330,0.001000,0.001000,0.001000,0.001000,0.001000
1031.711538,0.040624,0.001000,0.001000,0.001000,0.001000,0.001000
1031.730769,0.039894,0.001000,0.001000,0.001000,0.001000,0.001000
1031.750000,0.039139,0.001000,0.001000,0.001000,0.001000,0.001000
1031.769231,0.038360,0.001000,0.001000,0.001000,0.001000,0.001000
1031.788462,0.037559,0.001000,0.001000,0.001000,0.001000,0.001000
1031.807692,0.036734,0.001000,0.001000,0.001000,0.001000,0.001000
1031.826923,0.035887,0.001000,0.001000,0.001000,0.001000,0.001000
1031.846154,0.035018,0.001000,0.001000,0.001000,0.001000,0.001000
1031.865385,0.034128,0.001000,0.001000,0.001000,0.001000,0.001000
1031.884615,0.033217,0.001000,0.001000,0.001000,0.001000,0.001000
1031.903846,0.032286,0.001000,0.001000,0.001000,0.001000,0.001000
1031.923077,0.031336,0.001000,0.001000,0.001000,0.001000,0.001000
1031.942308,0.030366,0.001000,0.001000,0.001000,0.001000,0.001000
1031.961538,0.029378,0.001000,0.001000,0.001000,0.001000,0.001000
1031.980769,0.028373,0.001000,0.001000,0.001000,0.001000,0.001000
1032.000000,0.027350,0.001000,0.001000,0.001000,0.001000,0.001000
1032.019231,0.026310,0.001000,0.001000,0.001000,0.001000,0.001000
1032.038462,0.025254,0.001000,0.001000,0.001000,0.001000,0.001000
1032.057692,0.024183,0.001000,0.001000,0.001000,0.001000,0.001000
1032.076923,0.023098,0.001000,0.001000,0.001000,0.001000,0.001000
1032.096154,0.021998,0.001000,0.001000,0.001000,0.001000,0.001000
1032.115385,0.020885,0.001000,0.001000,0.001000,0.001000,0.001000
1032.134615,0.019759,0.001000,0.001000,0.001000,0.001000,0.001000
1032.153846,0.018621,0.001000,0.001000,0.001000,0.001000,0.001000
1032.173077,0.017472,0.001000,0.001000,0.001000,0.001000,0.001000
1032.192308,0.016313,0.001000,0.001000,0.001000,0.001000,0.001000
1032.211538,0.015143,0.001000,0.001000,0.001000,0.001000,0.001000
1032.230769,0.013965,0.001000,0.001000,0.001000,0.001000,0.001000
1032.250000,0.012777,0.001000,0.001000,0.001000,0.001000,0.001000
1032.269231,0.011582,0.001000,0.001000,0.001000,0.001000,0.001000
1032.288462,0.010380,0.001000,0.001000,0.001000,0.001000,0.001000
1032.307692,0.009172,0.001000,0.001000,0.001000,0.001000,0.001000
1032.326923,0.007958,0.001000,0.001000,0.001000,0.001000,0.001000
1032.346154,0.006739,0.001000,0.001000,0.001000,0.001000,0.001000
1032.365385,0.005517,0.001000,0.001000,0.001000,0.001000,0.001000
1032.384615,0.004290,0.001000,0.001000,0.001000,0.001000,0.001000
1032.403846,0.003062,0.001000,0.001000,0.001000,0.001000,0.001000
1032.423077,0.001831,0.001000,0.001000,0.001000,0.001000,0.001000
1032.442308,0.000599,0.001000,0.001000,0.001000,0.001000,0.001000
1032.461538,-0.000633,0.001000,0.001000,0.001000,0.001000,0.001000
1032.480769,-0.001864,0.001000,0.001000,0.001000,0.001000,0.001000
1032.500000,-0.003095,0.001000,0.001000,0.001000,0.001000,0.001000
1032.519231,-0.004324,0.001000,0.001000,0.001000,0.001000,0.001000
1032.538462,-0.005550,0.001000,0.001000,0.001000,0.001000,0.001000
1032.557692,-0.006773,0.001000,0.001000,0.001000,0.001000,0.001000
1032.576923,-0.007991,0.001000,0.001000,0.001000,0.001000,0.001000
1032.596154,-0.009205,0.001000,0.001000,0.001000,0.001000,0.001000
1032.615385,-0.010413,0.001000,0.001000,0.001000,0.001000,0.001000
1032.634615,-0.011615,0.001000,0.001000,0.001000,0.001000,0.001000
1032.653846,-0.012810,0.001000,0.001000,0.001000,0.001000,0.001000
1032.673077,-0.013997,0.001000,0.001000,0.001000,0.001000,0.001000
1032.692308,-0.015175,0.001000,0.001000,0.001000,0.001000,0.001000
1032.711538,-0.016344,0.001000,0.001000,0.001000,0.001000,0.001000
1032.730769,-0.017504,0.001000,0.001000,0.001000,0.001000,0.001000
1032.750000,-0.018653,0.001000,0.001000,0.001000,0.001000,0.001000
1032.769231,-0.019790,0.001000,0.001000,0.001000,0.001000,0.001000
1032.788462,-0.020915,0.001000,0.001000,0.001000,0.001000,0.001000
1032.807692,-0.022028,0.001000,0.001000,0.001000,0.001000,0.001000
1032.826923,-0.023127,0.001000,0.001000,0.001000,0.001000,0.001000
1032.846154,-0.024213,0.001000,0.001000,0.001000,0.001000,0.001000
1032.865385,-0.025283,0.001000,0.001000,0.001000,0.001000,0.001000
1032.884615,-0.026338,0.001000,0.001000,0.001000,0.001000,0.001000
1032.903846,-0.027378,0.001000,0.001000,0.001000,0.001000,0.001000
1032.923077,-0.028400,0.001000,0.001000,0.001000,0.001000,0.001000
1032.942308,-0.029405,0.001000,0.001000,0.001000,0.001000,0.001000
1032.961538,-0.030393,0.001000,0.001000,0.001000,0.001000,0.001000
1032.980769,-0.031362,0.001000,0.001000,0.001000,0.001000,0.001000
1033.000000,-0.032312,0.001000,0.001000,0.001000,0.001000,0.001000
1033.019231,-0.033242,0.001000,0.001000,0.001000,0.001000,0.001000
1033.038462,-0.034153,0.001000,0.001000,0.001000,0.001000,0.001000
1033.057692,-0.035042,0.001000,0.001000,0.001000,0.001000,0.001000
1033.076923,-0.035910,0.001000,0.001000,0.001000,0.001000,0.001000
1033.096154,-0.036757,0.001000,0.001000,0.001000,0.001000,0.001000
1033.115385,-0.037581,0.001000,0.001000,0.001000,0.001000,0.001000
1033.134615,-0.038382,0.001000,0.001000,0.001000,0.001000,0.001000
1033.153846,-0.039160,0.001000,0.001000,0.001000,0.001000,0.001000
1033.173077,-0.039914,0.001000,0.001000,0.001000,0.001000,0.001000
1033.192308,-0.040644,0.001000,0.001000,0.001000,0.001000,0.001000
1033.211538,-0.041349,0.001000,0.001000,0.001000,0.001000,0.001000
1033.230769,-0.042029,0.001000,0.001000,0.001000,0.001000,0.001000
1033.250000,-0.042684,0.001000,0.001000,0.001000,0.001000,0.001000
1033.269231,-0.043312,0.001000,0.001000,0.001000,0.001000,0.001000
1033.288462,-0.043915,0.001000,0.001000,0.001000,0.001000,0.001000
1033.307692,-0.044491,0.001000,0.001000,0.001000,0.001000,0.001000
1033.326923,-0.045039,0.001000,0.001000,0.001000,0.001000,0.001000
1033.346154,-0.045561,0.001000,0.001000,0.001000,0.001000,0.001000
1033.365385,-0.046054,0.001000,0.001000,0.001000,0.001000,0.001000
1033.384615,-0.046520,0.001000,0.001000,0.001000,0.001000,0.001000
1033.403846,-0.046957,0.001000,0.001000,0.001000,0.001000,0.001000
1033.423077,-0.047366,0.001000,0.001000,0.001000,0.001000,0.001000
1033.442308,-0.047747,0.001000,0.001000,0.001000,0.001000,0.001000
1033.461538,-0.048098,0.001000,0.001000,0.001000,0.001000,0.001000
1033.480769,-0.048420,0.001000,0.001000,0.001000,0.001000,0.001000
1033.500000,-0.048712,0.001000,0.001000,0.001000,0.001000,0.001000
1033.519231,-0.048975,0.001000,0.001000,0.001000,0.001000,0.001000
1033.538462,-0.049209,0.001000,0.001000,0.001000,0.001000,0.001000
1033.557692,-0.049412,0.001000,0.001000,0.001000,0.001000,0.001000
1033.576923,-0.049585,0.001000,0.001000,0.001000,0.001000,0.001000
1033.596154,-0.049729,0.001000,0.001000,0.001000,0.001000,0.001000
1033.615385,-0.049842,0.001000,0.001000,0.001000,0.001000,0.001000
1033.634615,-0.049925,0.001000,0.001000,0.001000,0.001000,0.001000
1033.653846,-0.049977,0.001000,0.001000,0.001000,0.001000,0.001000
1033.673077,-0.049999,0.001000,0.001000,0.001000,0.001000,0.001000
1033.692308,-0.049991,0.001000,0.001000,0.001000,0.001000,0.001000
1033.711538,-0.049952,0.001000,0.001000,0.001000,0.001000,0.001000
1033.730769,-0.049884,0.001000,0.001000,0.001000,0.001000,0.001000
1033.750000,-0.049784,0.001000,0.001000,0.001000,0.001000,0.001000
1033.769231,-0.049655,0.001000,0.001000,0.001000,0.001000,0.001000
1033.788462,-0.049495,0.001000,0.001000,0.001000,0.001000,0.001000
1033.807692,-0.049306,0.001000,0.001000,0.001000,0.001000,0.001000
1033.826923,-0.049086,0.001000,0.001000,0.001000,0.001000,0.001000
1033.846154,-0.048837,0.001000,0.001000,0.001000,0.001000,0.001000
1033.865385,-0.048558,0.001000,0.001000,0.001000,0.001000,0.001000
1033.884615,-0.048249,0.001000,0.001000,0.001000,0.001000,0.001000
1033.903846,-0.047911,0.001000,0.001000,0.001000,0.001000,0.001000
1033.923077,-0.047545,0.001000,0.001000,0.001000,0.001000,0.001000
1033.942308,-0.047149,0.001000,0.001000,0.001000,0.001000,0.001000
1033.961538,-0.046724,0.001000,0.001000,0.001000,0.001000,0.001000
1033.980769,-0.046272,0.001000,0.001000,0.001000,0.001000,0.001000
1034.000000,-0.045791,0.001000,0.001000,0.001000,0.001000,0.001000
1034.019231,-0.045282,0.001000,0.001000,0.001000,0.001000,0.001000
1034.038462,-0.044746,0.001000,0.001000,0.001000,0.001000,0.001000
1034.057692,-0.044183,0.001000,0.001000,0.001000,0.001000,0.001000
1034.076923,-0.043592,0.001000,0.001000,0.001000,0.001000,0.001000
1034.096154,-0.042976,0.001000,0.001000,0.001000,0.001000,0.001000
1034.115385,-0.042333,0.001000,0.001000,0.001000,0.001000,0.001000
1034.134615,-0.041665,0.001000,0.001000,0.001000,0.001000,0.001000
1034.153846,-0.040971,0.001000,0.001000,0.001000,0.001000,0.001000
1034.173077,-0.040252,0.001000,0.001000,0.001000,0.001000,0.001000
1034.192308,-0.039509,0.001000,0.001000,0.001000,0.001000,0.001000
1034.211538,-0.038742,0.001000,0.001000,0.001000,0.001000,0.001000
1034.230769,-0.037951,0.001000,0.001000,0.001000,0.001000,0.001000
1034.250000,-0.037138,0.001000,0.001000,0.001000,0.001000,0.001000
1034.269231,-0.036302,0.001000,0.001000,0.001000,0.001000,0.001000
1034.288462,-0.035443,0.001000,0.001000,0.001000,0.001000,0.001000
1034.307692,-0.034564,0.001000,0.001000,0.001000,0.001000,0.001000
1034.326923,-0.033663,0.001000,0.001000,0.001000,0.001000,0.001000
1034.346154,-0.032742,0.001000,0.001000,0.001000,0.001000,0.001000
1034.365385,-0.031801,0.001000,0.001000,0.001000,0.001000,0.001000
1034.384615,-0.030840,0.001000,0.001000,0.001000,0.001000,0.001000
1034.403846,-0.029861,0.001000,0.001000,0.001000,0.001000,0.001000
1034.423077,-0.028864,0.001000,0.001000,0.001000,0.001000,0.001000
1034.442308,-0.027849,0.001000,0.001000,0.001000,0.001000,0.001000
1034.461538,-0.026818,0.001000,0.001000,0.001000,0.001000,0.001000
1034.480769,-0.025770,0.001000,0.001000,0.001000,0.001000,0.001000
1034.500000,-0.024706,0.001000,0.001000,0.001000,0.001000,0.001000
1034.519231,-0.023628,0.001000,0.001000,0.001000,0.001000,0.001000
1034.538462,-0.022535,0.001000,0.001000,0.001000,0.001000,0.001000
1034.557692,-0.021428,0.001000,0.001000,0.001000,0.001000,0.001000
1034.576923,-0.020308,0.001000,0.001000,0.001000,0.001000,0.001000
1034.596154,-0.019176,0.001000,0.001000,0.001000,0.001000,0.001000
1034.615385,-0.018033,0.001000,0.001000,0.001000,0.001000,0.001000
1034.634615,-0.016878,0.001000,0.001000,0.001000,0.001000,0.001000
1034.653846,-0.015713,0.001000,0.001000,0.001000,0.001000,0.001000
1034.673077,-0.014539,0.001000,0.001000,0.001000,0.001000,0.001000
