timestamp,ax,ay,az,gx,gy,gz
1000.000000,0.000000,0.001000,0.001000,0.001000,0.001000,0.001000
1000.019231,0.001286,0.001000,0.001000,0.001000,0.001000,0.001000
1000.038462,0.002572,0.001000,0.001000,0.001000,0.001000,0.001000
1000.057692,0.003856,0.001000,0.001000,0.001000,0.001000,0.001000
1000.076923,0.005137,0.001000,0.001000,0.001000,0.001000,0.001000
1000.096154,0.006415,0.001000,0.001000,0.001000,0.001000,0.001000
1000.115385,0.007689,0.001000,0.001000,0.001000,0.001000,0.001000
1000.134615,0.008957,0.001000,0.001000,0.001000,0.001000,0.001000
1000.153846,0.010220,0.001000,0.001000,0.001000,0.001000,0.001000
1000.173077,0.011476,0.001000,0.001000,0.001000,0.001000,0.001000
1000.192308,0.012724,0.001000,0.001000,0.001000,0.001000,0.001000
1000.211538,0.013964,0.001000,0.001000,0.001000,0.001000,0.001000
1000.230769,0.015195,0.001000,0.001000,0.001000,0.001000,0.001000
1000.250000,0.016415,0.001000,0.001000,0.001000,0.001000,0.001000
1000.269231,0.017625,0.001000,0.001000,0.001000,0.001000,0.001000
1000.288462,0.018823,0.001000,0.001000,0.001000,0.001000,0.001000
1000.307692,0.020008,0.001000,0.001000,0.001000,0.001000,0.001000
1000.326923,0.021181,0.001000,0.001000,0.001000,0.001000,0.001000
1000.346154,0.022339,0.001000,0.001000,0.001000,0.001000,0.001000
1000.365385,0.023482,0.001000,0.001000,0.001000,0.001000,0.001000
1000.384615,0.024610,0.001000,0.001000,0.001000,0.001000,0.001000
1000.403846,0.025722,0.001000,0.001000,0.001000,0.001000,0.001000
1000.423077,0.026817,0.001000,0.001000,0.001000,0.001000,0.001000
1000.442308,0.027894,0.001000,0.001000,0.001000,0.001000,0.001000
1000.461538,0.028952,0.001000,0.001000,0.001000,0.001000,0.001000
1000.480769,0.029991,0.001000,0.001000,0.001000,0.001000,0.001000
1000.500000,0.031011,0.001000,0.001000,0.001000,0.001000,0.001000
1000.519231,0.032009,0.001000,0.001000,0.001000,0.001000,0.001000
1000.538462,0.032987,0.001000,0.001000,0.001000,0.001000,0.001000
1000.557692,0.033943,0.001000,0.001000,0.001000,0.001000,0.001000
1000.576923,0.034876,0.001000,0.001000,0.001000,0.001000,0.001000
1000.596154,0.035787,0.001000,0.001000,0.001000,0.001000,0.001000
1000.615385,0.036673,0.001000,0.001000,0.001000,0.001000,0.001000
1000.634615,0.037535,0.001000,0.001000,0.001000,0.001000,0.001000
1000.653846,0.038373,0.001000,0.001000,0.001000,0.001000,0.001000
1000.673077,0.039185,0.001000,0.001000,0.001000,0.001000,0.001000
1000.692308,0.039971,0.001000,0.001000,0.001000,0.001000,0.001000
1000.711538,0.040731,0.001000,0.001000,0.001000,0.001000,0.001000
1000.730769,0.041463,0.001000,0.001000,0.001000,0.001000,0.001000
1000.750000,0.042168,0.001000,0.001000,0.001000,0.001000,0.001000
1000.769231,0.042846,0.001000,0.001000,0.001000,0.001000,0.001000
1000.788462,0.043495,0.001000,0.001000,0.001000,0.001000,0.001000
1000.807692,0.044115,0.001000,0.001000,0.001000,0.001000,0.001000
1000.826923,0.044706,0.001000,0.001000,0.001000,0.001000,0.001000
1000.846154,0.045267,0.001000,0.001000,0.001000,0.001000,0.001000
1000.865385,0.045798,0.001000,0.001000,0.001000,0.001000,0.001000
1000.884615,0.046299,0.001000,0.001000,0.001000,0.001000,0.001000
1000.903846,0.046770,0.001000,0.001000,0.001000,0.001000,0.001000
1000.923077,0.047209,0.001000,0.001000,0.001000,0.001000,0.001000
1000.942308,0.047617,0.001000,0.001000,0.001000,0.001000,0.001000
1000.961538,0.047994,0.001000,0.001000,0.001000,0.001000,0.001000
1000.980769,0.048339,0.001000,0.001000,0.001000,0.001000,0.001000
1001.000000,0.048652,0.001000,0.001000,0.001000,0.001000,0.001000
1001.019231,0.048932,0.001000,0.001000,0.001000,0.001000,0.001000
1001.038462,0.049180,0.001000,0.001000,0.001000,0.001000,0.001000
1001.057692,0.049396,0.001000,0.001000,0.001000,0.001000,0.001000
1001.076923,0.049579,0.001000,0.001000,0.001000,0.001000,0.001000
1001.096154,0.049729,0.001000,0.001000,0.001000,0.001000,0.001000
1001.115385,0.049846,0.001000,0.001000,0.001000,0.001000,0.001000
1001.134615,0.049931,0.001000,0.001000,0.001000,0.001000,0.001000
1001.153846,0.049982,0.001000,0.001000,0.001000,0.001000,0.001000
1001.173077,0.050000,0.001000,0.001000,0.001000,0.001000,0.001000
1001.192308,0.049985,0.001000,0.001000,0.001000,0.001000,0.001000
1001.211538,0.049937,0.001000,0.001000,0.001000,0.001000,0.001000
1001.230769,0.049856,0.001000,0.001000,0.001000,0.001000,0.001000
1001.250000,0.049741,0.001000,0.001000,0.001000,0.001000,0.001000
1001.269231,0.049594,0.001000,0.001000,0.001000,0.001000,0.001000
1001.288462,0.049414,0.001000,0.001000,0.001000,0.001000,0.001000
1001.307692,0.049202,0.001000,0.001000,0.001000,0.001000,0.001000
1001.326923,0.048956,0.001000,0.001000,0.001000,0.001000,0.001000
1001.346154,0.048679,0.001000,0.001000,0.001000,0.001000,0.001000
1001.365385,0.048369,0.001000,0.001000,0.001000,0.001000,0.001000
1001.384615,0.048027,0.001000,0.001000,0.001000,0.001000,0.001000
1001.403846,0.047653,0.001000,0.001000,0.001000,0.001000,0.001000
1001.423077,0.047248,0.001000,0.001000,0.001000,0.001000,0.001000
1001.442308,0.046812,0.001000,0.001000,0.001000,0.001000,0.001000
1001.461538,0.046344,0.001000,0.001000,0.001000,0.001000,0.001000
1001.480769,0.045846,0.001000,0.001000,0.001000,0.001000,0.001000
1001.500000,0.045317,0.001000,0.001000,0.001000,0.001000,0.001000
1001.519231,0.044759,0.001000,0.001000,0.001000,0.001000,0.001000
1001.538462,0.044171,0.001000,0.001000,0.001000,0.001000,0.001000
1001.557692,0.043553,0.001000,0.001000,0.001000,0.001000,0.001000
1001.576923,0.042907,0.001000,0.001000,0.001000,0.001000,0.001000
1001.596154,0.042232,0.001000,0.001000,0.001000,0.001000,0.001000
1001.615385,0.041529,0.001000,0.001000,0.001000,0.001000,0.001000
1001.634615,0.040799,0.001000,0.001000,0.001000,0.001000,0.001000
1001.653846,0.040042,0.001000,0.001000,0.001000,0.001000,0.001000
1001.673077,0.039259,0.001000,0.001000,0.001000,0.001000,0.001000
1001.692308,0.038449,0.001000,0.001000,0.001000,0.001000,0.001000
1001.711538,0.037614,0.001000,0.001000,0.001000,0.001000,0.001000
1001.730769,0.036754,0.001000,0.001000,0.001000,0.001000,0.001000
1001.750000,0.035869,0.001000,0.001000,0.001000,0.001000,0.001000
1001.769231,0.034961,0.001000,0.001000,0.001000,0.001000,0.001000
1001.788462,0.034030,0.001000,0.001000,0.001000,0.001000,0.001000
1001.807692,0.033076,0.001000,0.001000,0.001000,0.001000,0.001000
1001.826923,0.032101,0.001000,0.001000,0.001000,0.001000,0.001000
1001.846154,0.031104,0.001000,0.001000,0.001000,0.001000,0.001000
1001.865385,0.030086,0.001000,0.001000,0.001000,0.001000,0.001000
1001.884615,0.029049,0.001000,0.001000,0.001000,0.001000,0.001000
1001.903846,0.027992,0.001000,0.001000,0.001000,0.001000,0.001000
1001.923077,0.026917,0.001000,0.001000,0.001000,0.001000,0.001000
1001.942308,0.025824,0.001000,0.001000,0.001000,0.001000,0.001000
1001.961538,0.024714,0.001000,0.001000,0.001000,0.001000,0.001000
1001.980769,0.023587,0.001000,0.001000,0.001000,0.001000,0.001000
1002.000000,0.022445,0.001000,0.001000,0.001000,0.001000,0.001000
1002.019231,0.021288,0.001000,0.001000,0.001000,0.001000,0.001000
1002.038462,0.020117,0.001000,0.001000,0.001000,0.001000,0.001000
1002.057692,0.018933,0.001000,0.001000,0.001000,0.001000,0.001000
1002.076923,0.017736,0.001000,0.001000,0.001000,0.001000,0.001000
1002.096154,0.016527,0.001000,0.001000,0.001000,0.001000,0.001000
1002.115385,0.015308,0.001000,0.001000,0.001000,0.001000,0.001000
1002.134615,0.014078,0.001000,0.001000,0.001000,0.001000,0.001000
1002.153846,0.012839,0.001000,0.001000,0.001000,0.001000,0.001000
1002.173077,0.011592,0.001000,0.001000,0.001000,0.001000,0.001000
1002.192308,0.010336,0.001000,0.001000,0.001000,0.001000,0.001000
1002.211538,0.009074,0.001000,0.001000,0.001000,0.001000,0.001000
1002.230769,0.007806,0.001000,0.001000,0.001000,0.001000,0.001000
1002.250000,0.006533,0.001000,0.001000,0.001000,0.001000,0.001000
1002.269231,0.005255,0.001000,0.001000,0.001000,0.001000,0.001000
1002.288462,0.003974,0.001000,0.001000,0.001000,0.001000,0.001000
1002.307692,0.002691,0.001000,0.001000,0.001000,0.001000,0.001000
1002.326923,0.001405,0.001000,0.001000,0.001000,0.001000,0.001000
1002.346154,0.000119,0.001000,0.001000,0.001000,0.001000,0.001000
1002.365385,-0.001168,0.001000,0.001000,0.001000,0.001000,0.001000
1002.384615,-0.002453,0.001000,0.001000,0.001000,0.001000,0.001000
1002.403846,-0.003737,0.001000,0.001000,0.001000,0.001000,0.001000
1002.423077,-0.005019,0.001000,0.001000,0.001000,0.001000,0.001000
1002.442308,-0.006297,0.001000,0.001000,0.001000,0.001000,0.001000
1002.461538,-0.007571,0.001000,0.001000,0.001000,0.001000,0.001000
1002.480769,-0.008840,0.001000,0.001000,0.001000,0.001000,0.001000
1002.500000,-0.010104,0.001000,0.001000,0.001000,0.001000,0.001000
1002.519231,-0.011360,0.001000,0.001000,0.001000,0.001000,0.001000
1002.538462,-0.012609,0.001000,0.001000,0.001000,0.001000,0.001000
1002.557692,-0.013850,0.001000,0.001000,0.001000,0.001000,0.001000
1002.576923,-0.015081,0.001000,0.001000,0.001000,0.001000,0.001000
1002.596154,-0.016303,0.001000,0.001000,0.001000,0.001000,0.001000
1002.615385,-0.017514,0.001000,0.001000,0.001000,0.001000,0.001000
1002.634615,-0.018713,0.001000,0.001000,0.001000,0.001000,0.001000
1002.653846,-0.019899,0.001000,0.001000,0.001000,0.001000,0.001000
1002.673077,-0.021073,0.001000,0.001000,0.001000,0.001000,0.001000
1002.692308,-0.022233,0.001000,0.001000,0.001000,0.001000,0.001000
1002.711538,-0.023377,0.001000,0.001000,0.001000,0.001000,0.001000
1002.730769,-0.024507,0.001000,0.001000,0.001000,0.001000,0.001000
1002.750000,-0.025620,0.001000,0.001000,0.001000,0.001000,0.001000
1002.769231,-0.026716,0.001000,0.001000,0.001000,0.001000,0.001000
1002.788462,-0.027795,0.001000,0.001000,0.001000,0.001000,0.001000
1002.807692,-0.028855,0.001000,0.001000,0.001000,0.001000,0.001000
1002.826923,-0.029896,0.001000,0.001000,0.001000,0.001000,0.001000
1002.846154,-0.030917,0.001000,0.001000,0.001000,0.001000,0.001000
1002.865385,-0.031918,0.001000,0.001000,0.001000,0.001000,0.001000
1002.884615,-0.032898,0.001000,0.001000,0.001000,0.001000,0.001000
1002.903846,-0.033856,0.001000,0.001000,0.001000,0.001000,0.001000
1002.923077,-0.034791,0.001000,0.001000,0.001000,0.001000,0.001000
1002.942308,-0.035703,0.001000,0.001000,0.001000,0.001000,0.001000
1002.961538,-0.036592,0.001000,0.001000,0.001000,0.001000,0.001000
1002.980769,-0.037457,0.001000,0.001000,0.001000,0.001000,0.001000
1003.000000,-0.038296,0.001000,0.001000,0.001000,0.001000,0.001000
1003.019231,-0.039111,0.001000,0.001000,0.001000,0.001000,0.001000
1003.038462,-0.039899,0.001000,0.001000,0.001000,0.001000,0.001000
1003.057692,-0.040661,0.001000,0.001000,0.001000,0.001000,0.001000
1003.076923,-0.041397,0.001000,0.001000,0.001000,0.001000,0.001000
1003.096154,-0.042104,0.001000,0.001000,0.001000,0.001000,0.001000
1003.115385,-0.042784,0.001000,0.001000,0.001000,0.001000,0.001000
1003.134615,-0.043436,0.001000,0.001000,0.001000,0.001000,0.001000
1003.153846,-0.044059,0.001000,0.001000,0.001000,0.001000,0.001000
1003.173077,-0.044652,0.001000,0.001000,0.001000,0.001000,0.001000
1003.192308,-0.045216,0.001000,0.001000,0.001000,0.001000,0.001000
1003.211538,-0.045750,0.001000,0.001000,0.001000,0.001000,0.001000
1003.230769,-0.046254,0.001000,0.001000,0.001000,0.001000,0.001000
1003.250000,-0.046727,0.001000,0.001000,0.001000,0.001000,0.001000
1003.269231,-0.047170,0.001000,0.001000,0.001000,0.001000,0.001000
1003.288462,-0.047581,0.001000,0.001000,0.001000,0.001000,0.001000
1003.307692,-0.047960,0.001000,0.001000,0.001000,0.001000,0.001000
1003.326923,-0.048308,0.001000,0.001000,0.001000,0.001000,0.001000
1003.346154,-0.048624,0.001000,0.001000,0.001000,0.001000,0.001000
1003.365385,-0.048908,0.001000,0.001000,0.001000,0.001000,0.001000
1003.384615,-0.049159,0.001000,0.001000,0.001000,0.001000,0.001000
1003.403846,-0.049378,0.001000,0.001000,0.001000,0.001000,0.001000
1003.423077,-0.049564,0.001000,0.001000,0.001000,0.001000,0.001000
1003.442308,-0.049717,0.001000,0.001000,0.001000,0.001000,0.001000
1003.461538,-0.049837,0.001000,0.001000,0.001000,0.001000,0.001000
1003.480769,-0.049924,0.001000,0.001000,0.001000,0.001000,0.001000
1003.500000,-0.049979,0.001000,0.001000,0.001000,0.001000,0.001000
1003.519231,-0.050000,0.001000,0.001000,0.001000,0.001000,0.001000
1003.538462,-0.049988,0.001000,0.001000,0.001000,0.001000,0.001000
1003.557692,-0.049943,0.001000,0.001000,0.001000,0.001000,0.001000
1003.576923,-0.049865,0.001000,0.001000,0.001000,0.001000,0.001000
1003.596154,-0.049753,0.001000,0.001000,0.001000,0.001000,0.001000
1003.615385,-0.049609,0.001000,0.001000,0.001000,0.001000,0.001000
1003.634615,-0.049432,0.001000,0.001000,0.001000,0.001000,0.001000
1003.653846,-0.049223,0.001000,0.001000,0.001000,0.001000,0.001000
1003.673077,-0.048981,0.001000,0.001000,0.001000,0.001000,0.001000
1003.692308,-0.048706,0.001000,0.001000,0.001000,0.001000,0.001000
1003.711538,-0.048399,0.001000,0.001000,0.001000,0.001000,0.001000
1003.730769,-0.048060,0.001000,0.001000,0.001000,0.001000,0.001000
1003.750000,-0.047689,0.001000,0.001000,0.001000,0.001000,0.001000
1003.769231,-0.047287,0.001000,0.001000,0.001000,0.001000,0.001000
1003.788462,-0.046853,0.001000,0.001000,0.001000,0.001000,0.001000
1003.807692,-0.046389,0.001000,0.001000,0.001000,0.001000,0.001000
1003.826923,-0.045893,0.001000,0.001000,0.001000,0.001000,0.001000
1003.846154,-0.045367,0.001000,0.001000,0.001000,0.001000,0.001000
1003.865385,-0.044812,0.001000,0.001000,0.001000,0.001000,0.001000
1003.884615,-0.044226,0.001000,0.001000,0.001000,0.001000,0.001000
1003.903846,-0.043611,0.001000,0.001000,0.001000,0.001000,0.001000
1003.923077,-0.042968,0.001000,0.001000,0.001000,0.001000,0.001000
1003.942308,-0.042296,0.001000,0.001000,0.001000,0.001000,0.001000
1003.961538,-0.041596,0.001000,0.001000,0.001000,0.001000,0.001000
1003.980769,-0.040868,0.001000,0.001000,0.001000,0.001000,0.001000
1004.000000,-0.040113,0.001000,0.001000,0.001000,0.001000,0.001000
1004.019231,-0.039332,0.001000,0.001000,0.001000,0.001000,0.001000
1004.038462,-0.038525,0.001000,0.001000,0.001000,0.001000,0.001000
1004.057692,-0.037692,0.001000,0.001000,0.001000,0.001000,0.001000
1004.076923,-0.036834,0.001000,0.001000,0.001000,0.001000,0.001000
1004.096154,-0.035952,0.001000,0.001000,0.001000,0.001000,0.001000
1004.115385,-0.035046,0.001000,0.001000,0.001000,0.001000,0.001000
1004.134615,-0.034117,0.001000,0.001000,0.001000,0.001000,0.001000
1004.153846,-0.033165,0.001000,0.001000,0.001000,0.001000,0.001000
1004.173077,-0.032192,0.001000,0.001000,0.001000,0.001000,0.001000
1004.192308,-0.031197,0.001000,0.001000,0.001000,0.001000,0.001000
1004.211538,-0.030181,0.001000,0.001000,0.001000,0.001000,0.001000
1004.230769,-0.029146,0.001000,0.001000,0.001000,0.001000,0.001000
1004.250000,-0.028091,0.001000,0.001000,0.001000,0.001000,0.001000
1004.269231,-0.027017,0.001000,0.001000,0.001000,0.001000,0.001000
1004.288462,-0.025926,0.001000,0.001000,0.001000,0.001000,0.001000
1004.307692,-0.024817,0.001000,0.001000,0.001000,0.001000,0.001000
1004.326923,-0.023692,0.001000,0.001000,0.001000,0.001000,0.001000
1004.346154,-0.022551,0.001000,0.001000,0.001000,0.001000,0.001000
1004.365385,-0.021396,0.001000,0.001000,0.001000,0.001000,0.001000
1004.384615,-0.020226,0.001000,0.001000,0.001000,0.001000,0.001000
1004.403846,-0.019043,0.001000,0.001000,0.001000,0.001000,0.001000
1004.423077,-0.017847,0.001000,0.001000,0.001000,0.001000,0.001000
1004.442308,-0.016640,0.001000,0.001000,0.001000,0.001000,0.001000
1004.461538,-0.015421,0.001000,0.001000,0.001000,0.001000,0.001000
1004.480769,-0.014192,0.001000,0.001000,0.001000,0.001000,0.001000
1004.500000,-0.012954,0.001000,0.001000,0.001000,0.001000,0.001000
1004.519231,-0.011707,0.001000,0.001000,0.001000,0.001000,0.001000
1004.538462,-0.010453,0.001000,0.001000,0.001000,0.001000,0.001000
1004.557692,-0.009191,0.001000,0.001000,0.001000,0.001000,0.001000
1004.576923,-0.007924,0.001000,0.001000,0.001000,0.001000,0.001000
1004.596154,-0.006651,0.001000,0.001000,0.001000,0.001000,0.001000
1004.615385,-0.005374,0.001000,0.001000,0.001000,0.001000,0.001000
1004.634615,-0.004093,0.001000,0.001000,0.001000,0.001000,0.001000
1004.653846,-0.002809,0.001000,0.001000,0.001000,0.001000,0.001000
1004.673077,-0.001524,0.001000,0.001000,0.001000,0.001000,0.001000
1004.692308,-0.000238,0.001000,0.001000,0.001000,0.001000,0.001000
1004.711538,0.001049,0.001000,0.001000,0.001000,0.001000,0.001000
1004.730769,0.002335,0.001000,0.001000,0.001000,0.001000,0.001000
1004.750000,0.003619,0.001000,0.001000,0.001000,0.001000,0.001000
1004.769231,0.004901,0.001000,0.001000,0.001000,0.001000,0.001000
1004.788462,0.006179,0.001000,0.001000,0.001000,0.001000,0.001000
1004.807692,0.007454,0.001000,0.001000,0.001000,0.001000,0.001000
1004.826923,0.008723,0.001000,0.001000,0.001000,0.001000,0.001000
1004.846154,0.009987,0.001000,0.001000,0.001000,0.001000,0.001000
1004.865385,0.011244,0.001000,0.001000,0.001000,0.001000,0.001000
1004.884615,0.012494,0.001000,0.001000,0.001000,0.001000,0.001000
1004.903846,0.013736,0.001000,0.001000,0.001000,0.001000,0.001000
1004.923077,0.014968,0.001000,0.001000,0.001000,0.001000,0.001000
1004.942308,0.016190,0.001000,0.001000,0.001000,0.001000,0.001000
1004.961538,0.017402,0.001000,0.001000,0.001000,0.001000,0.001000
1004.980769,0.018602,0.001000,0.001000,0.001000,0.001000,0.001000
1005.000000,0.019790,0.001000,0.001000,0.001000,0.001000,0.001000
1005.019231,0.020965,0.001000,0.001000,0.001000,0.001000,0.001000
1005.038462,0.022126,0.001000,0.001000,0.001000,0.001000,0.001000
1005.057692,0.023272,0.001000,0.001000,0.001000,0.001000,0.001000
1005.076923,0.024403,0.001000,0.001000,0.001000,0.001000,0.001000
1005.096154,0.025518,0.001000,0.001000,0.001000,0.001000,0.001000
1005.115385,0.026616,0.001000,0.001000,0.001000,0.001000,0.001000
1005.134615,0.027696,0.001000,0.001000,0.001000,0.001000,0.001000
1005.153846,0.028758,0.001000,0.001000,0.001000,0.001000,0.001000
1005.173077,0.029801,0.001000,0.001000,0.001000,0.001000,0.001000
1005.192308,0.030824,0.001000,0.001000,0.001000,0.001000,0.001000
1005.211538,0.031826,0.001000,0.001000,0.001000,0.001000,0.001000
1005.230769,0.032808,0.001000,0.001000,0.001000,0.001000,0.001000
1005.250000,0.033768,0.001000,0.001000,0.001000,0.001000,0.001000
1005.269231,0.034705,0.001000,0.001000,0.001000,0.001000,0.001000
1005.288462,0.035620,0.001000,0.001000,0.001000,0.001000,0.001000
1005.307692,0.036511,0.001000,0.001000,0.001000,0.001000,0.001000
1005.326923,0.037378,0.001000,0.001000,0.001000,0.001000,0.001000
1005.346154,0.038220,0.001000,0.001000,0.001000,0.001000,0.001000
1005.365385,0.039037,0.001000,0.001000,0.001000,0.001000,0.001000
1005.384615,0.039828,0.001000,0.001000,0.001000,0.001000,0.001000
1005.403846,0.040592,0.001000,0.001000,0.001000,0.001000,0.001000
1005.423077,0.041330,0.001000,0.001000,0.001000,0.001000,0.001000
1005.442308,0.042040,0.001000,0.001000,0.001000,0.001000,0.001000
1005.461538,0.042723,0.001000,0.001000,0.001000,0.001000,0.001000
1005.480769,0.043377,0.001000,0.001000,0.001000,0.001000,0.001000
1005.500000,0.044002,0.001000,0.001000,0.001000,0.001000,0.001000
1005.519231,0.044599,0.001000,0.001000,0.001000,0.001000,0.001000
1005.538462,0.045165,0.001000,0.001000,0.001000,0.001000,0.001000
1005.557692,0.045702,0.001000,0.001000,0.001000,0.001000,0.001000
1005.576923,0.046209,0.001000,0.001000,0.001000,0.001000,0.001000
1005.596154,0.046685,0.001000,0.001000,0.001000,0.001000,0.001000
1005.615385,0.047130,0.001000,0.001000,0.001000,0.001000,0.001000
1005.634615,0.047544,0.001000,0.001000,0.001000,0.001000,0.001000
1005.653846,0.047927,0.001000,0.001000,0.001000,0.001000,0.001000
1005.673077,0.048277,0.001000,0.001000,0.001000,0.001000,0.001000
1005.692308,0.048596,0.001000,0.001000,0.001000,0.001000,0.001000
1005.711538,0.048883,0.001000,0.001000,0.001000,0.001000,0.001000
1005.730769,0.049137,0.001000,0.001000,0.001000,0.001000,0.001000
1005.750000,0.049359,0.001000,0.001000,0.001000,0.001000,0.001000
1005.769231,0.049548,0.001000,0.001000,0.001000,0.001000,0.001000
1005.788462,0.049704,0.001000,0.001000,0.001000,0.001000,0.001000
1005.807692,0.049827,0.001000,0.001000,0.001000,0.001000,0.001000
1005.826923,0.049918,0.001000,0.001000,0.001000,0.001000,0.001000
1005.846154,0.049975,0.001000,0.001000,0.001000,0.001000,0.001000
1005.865385,0.049999,0.001000,0.001000,0.001000,0.001000,0.001000
1005.884615,0.049990,0.001000,0.001000,0.001000,0.001000,0.001000
1005.903846,0.049948,0.001000,0.001000,0.001000,0.001000,0.001000
1005.923077,0.049873,0.001000,0.001000,0.001000,0.001000,0.001000
1005.942308,0.049765,0.001000,0.001000,0.001000,0.001000,0.001000
1005.961538,0.049624,0.001000,0.001000,0.001000,0.001000,0.001000
1005.980769,0.049450,0.001000,0.001000,0.001000,0.001000,0.001000
1006.000000,0.049243,0.001000,0.001000,0.001000,0.001000,0.001000
1006.019231,0.049004,0.001000,0.001000,0.001000,0.001000,0.001000
1006.038462,0.048733,0.001000,0.001000,0.001000,0.001000,0.001000
1006.057692,0.048429,0.001000,0.001000,0.001000,0.001000,0.001000
1006.076923,0.048093,0.001000,0.001000,0.001000,0.001000,0.001000
1006.096154,0.047725,0.001000,0.001000,0.001000,0.001000,0.001000
1006.115385,0.047325,0.001000,0.001000,0.001000,0.001000,0.001000
1006.134615,0.046895,0.001000,0.001000,0.001000,0.001000,0.001000
1006.153846,0.046433,0.001000,0.001000,0.001000,0.001000,0.001000
1006.173077,0.045940,0.001000,0.001000,0.001000,0.001000,0.001000
1006.192308,0.045417,0.001000,0.001000,0.001000,0.001000,0.001000
1006.211538,0.044864,0.001000,0.001000,0.001000,0.001000,0.001000
1006.230769,0.044281,0.001000,0.001000,0.001000,0.001000,0.001000
1006.250000,0.043669,0.001000,0.001000,0.001000,0.001000,0.001000
1006.269231,0.043028,0.001000,0.001000,0.001000,0.001000,0.001000
1006.288462,0.042359,0.001000,0.001000,0.001000,0.001000,0.001000
1006.307692,0.041661,0.001000,0.001000,0.001000,0.001000,0.001000
1006.326923,0.040936,0.001000,0.001000,0.001000,0.001000,0.001000
1006.346154,0.040184,0.001000,0.001000,0.001000,0.001000,0.001000
1006.365385,0.039405,0.001000,0.001000,0.001000,0.001000,0.001000
1006.384615,0.038600,0.001000,0.001000,0.001000,0.001000,0.001000
1006.403846,0.037770,0.001000,0.001000,0.001000,0.001000,0.001000
1006.423077,0.036915,0.001000,0.001000,0.001000,0.001000,0.001000
1006.442308,0.036035,0.001000,0.001000,0.001000,0.001000,0.001000
1006.461538,0.035131,0.001000,0.001000,0.001000,0.001000,0.001000
1006.480769,0.034204,0.001000,0.001000,0.001000,0.001000,0.001000
1006.500000,0.033254,0.001000,0.001000,0.001000,0.001000,0.001000
1006.519231,0.032283,0.001000,0.001000,0.001000,0.001000,0.001000
1006.538462,0.031290,0.001000,0.001000,0.001000,0.001000,0.001000
1006.557692,0.030276,0.001000,0.001000,0.001000,0.001000,0.001000
1006.576923,0.029242,0.001000,0.001000,0.001000,0.001000,0.001000
1006.596154,0.028189,0.001000,0.001000,0.001000,0.001000,0.001000
1006.615385,0.027117,0.001000,0.001000,0.001000,0.001000,0.001000
1006.634615,0.026027,0.001000,0.001000,0.001000,0.001000,0.001000
1006.653846,0.024920,0.001000,0.001000,0.001000,0.001000,0.001000
1006.673077,0.023797,0.001000,0.001000,0.001000,0.001000,0.001000
1006.692308,0.022658,0.001000,0.001000,0.001000,0.001000,0.001000
1006.711538,0.021503,0.001000,0.001000,0.001000,0.001000,0.001000
1006.730769,0.020335,0.001000,0.001000,0.001000,0.001000,0.001000
1006.750000,0.019153,0.001000,0.001000,0.001000,0.001000,0.001000
1006.769231,0.017958,0.001000,0.001000,0.001000,0.001000,0.001000
1006.788462,0.016752,0.001000,0.001000,0.001000,0.001000,0.001000
1006.807692,0.015534,0.001000,0.001000,0.001000,0.001000,0.001000
1006.826923,0.014306,0.001000,0.001000,0.001000,0.001000,0.001000
1006.846154,0.013069,0.001000,0.001000,0.001000,0.001000,0.001000
1006.865385,0.011823,0.001000,0.001000,0.001000,0.001000,0.001000
1006.884615,0.010569,0.001000,0.001000,0.001000,0.001000,0.001000
1006.903846,0.009308,0.001000,0.001000,0.001000,0.001000,0.001000
1006.923077,0.008041,0.001000,0.001000,0.001000,0.001000,0.001000
1006.942308,0.006769,0.001000,0.001000,0.001000,0.001000,0.001000
1006.961538,0.005492,0.001000,0.001000,0.001000,0.001000,0.001000
1006.980769,0.004211,0.001000,0.001000,0.001000,0.001000,0.001000
1007.000000,0.002928,0.001000,0.001000,0.001000,0.001000,0.001000
1007.019231,0.001643,0.001000,0.001000,0.001000,0.001000,0.001000
1007.038462,0.000357,0.001000,0.001000,0.001000,0.001000,0.001000
1007.057692,-0.000930,0.001000,0.001000,0.001000,0.001000,0.001000
1007.076923,-0.002216,0.001000,0.001000,0.001000,0.001000,0.001000
1007.096154,-0.003500,0.001000,0.001000,0.001000,0.001000,0.001000
1007.115385,-0.004782,0.001000,0.001000,0.001000,0.001000,0.001000
1007.134615,-0.006061,0.001000,0.001000,0.001000,0.001000,0.001000
1007.153846,-0.007336,0.001000,0.001000,0.001000,0.001000,0.001000
1007.173077,-0.008606,0.001000,0.001000,0.001000,0.001000,0.001000
1007.192308,-0.009871,0.001000,0.001000,0.001000,0.001000,0.001000
1007.211538,-0.011128,0.001000,0.001000,0.001000,0.001000,0.001000
1007.230769,-0.012379,0.001000,0.001000,0.001000,0.001000,0.001000
1007.250000,-0.013621,0.001000,0.001000,0.001000,0.001000,0.001000
1007.269231,-0.014854,0.001000,0.001000,0.001000,0.001000,0.001000
1007.288462,-0.016078,0.001000,0.001000,0.001000,0.001000,0.001000
1007.307692,-0.017291,0.001000,0.001000,0.001000,0.001000,0.001000
1007.326923,-0.018492,0.001000,0.001000,0.001000,0.001000,0.001000
1007.346154,-0.019681,0.001000,0.001000,0.001000,0.001000,0.001000
1007.365385,-0.020857,0.001000,0.001000,0.001000,0.001000,0.001000
1007.384615,-0.022019,0.001000,0.001000,0.001000,0.001000,0.001000
1007.403846,-0.023167,0.001000,0.001000,0.001000,0.001000,0.001000
1007.423077,-0.024299,0.001000,0.001000,0.001000,0.001000,0.001000
1007.442308,-0.025416,0.001000,0.001000,0.001000,0.001000,0.001000
1007.461538,-0.026515,0.001000,0.001000,0.001000,0.001000,0.001000
1007.480769,-0.027597,0.001000,0.001000,0.001000,0.001000,0.001000
1007.500000,-0.028660,0.001000,0.001000,0.001000,0.001000,0.001000
1007.519231,-0.029705,0.001000,0.001000,0.001000,0.001000,0.001000
1007.538462,-0.030730,0.001000,0.001000,0.001000,0.001000,0.001000
1007.557692,-0.031735,0.001000,0.001000,0.001000,0.001000,0.001000
1007.576923,-0.032718,0.001000,0.001000,0.001000,0.001000,0.001000
1007.596154,-0.033680,0.001000,0.001000,0.001000,0.001000,0.001000
1007.615385,-0.034620,0.001000,0.001000,0.001000,0.001000,0.001000
1007.634615,-0.035537,0.001000,0.001000,0.001000,0.001000,0.001000
1007.653846,-0.036430,0.001000,0.001000,0.001000,0.001000,0.001000
1007.673077,-0.037299,0.001000,0.001000,0.001000,0.001000,0.001000
1007.692308,-0.038143,0.001000,0.001000,0.001000,0.001000,0.001000
1007.711538,-0.038962,0.001000,0.001000,0.001000,0.001000,0.001000
1007.730769,-0.039756,0.001000,0.001000,0.001000,0.001000,0.001000
1007.750000,-0.040523,0.001000,0.001000,0.001000,0.001000,0.001000
1007.769231,-0.041263,0.001000,0.001000,0.001000,0.001000,0.001000
1007.788462,-0.041976,0.001000,0.001000,0.001000,0.001000,0.001000
1007.807692,-0.042661,0.001000,0.001000,0.001000,0.001000,0.001000
1007.826923,-0.043318,0.001000,0.001000,0.001000,0.001000,0.001000
1007.846154,-0.043946,0.001000,0.001000,0.001000,0.001000,0.001000
1007.865385,-0.044545,0.001000,0.001000,0.001000,0.001000,0.001000
1007.884615,-0.045114,0.001000,0.001000,0.001000,0.001000,0.001000
1007.903846,-0.045654,0.001000,0.001000,0.001000,0.001000,0.001000
1007.923077,-0.046163,0.001000,0.001000,0.001000,0.001000,0.001000
1007.942308,-0.046642,0.001000,0.001000,0.001000,0.001000,0.001000
1007.961538,-0.047090,0.001000,0.001000,0.001000,0.001000,0.001000
1007.980769,-0.047507,0.001000,0.001000,0.001000,0.001000,0.001000
1008.000000,-0.047893,0.001000,0.001000,0.001000,0.001000,0.001000
1008.019231,-0.048246,0.001000,0.001000,0.001000,0.001000,0.001000
1008.038462,-0.048568,0.001000,0.001000,0.001000,0.001000,0.001000
1008.057692,-0.048858,0.001000,0.001000,0.001000,0.001000,0.001000
1008.076923,-0.049115,0.001000,0.001000,0.001000,0.001000,0.001000
1008.096154,-0.049340,0.001000,0.001000,0.001000,0.001000,0.001000
1008.115385,-0.049532,0.001000,0.001000,0.001000,0.001000,0.001000
1008.134615,-0.049691,0.001000,0.001000,0.001000,0.001000,0.001000
1008.153846,-0.049817,0.001000,0.001000,0.001000,0.001000,0.001000
1008.173077,-0.049911,0.001000,0.001000,0.001000,0.001000,0.001000
1008.192308,-0.049971,0.001000,0.001000,0.001000,0.001000,0.001000
1008.211538,-0.049998,0.001000,0.001000,0.001000,0.001000,0.001000
1008.230769,-0.049992,0.001000,0.001000,0.001000,0.001000,0.001000
1008.250000,-0.049953,0.001000,0.001000,0.001000,0.001000,0.001000
1008.269231,-0.049881,0.001000,0.001000,0.001000,0.001000,0.001000
1008.288462,-0.049776,0.001000,0.001000,0.001000,0.001000,0.001000
1008.307692,-0.049638,0.001000,0.001000,0.001000,0.001000,0.001000
1008.326923,-0.049468,0.001000,0.001000,0.001000,0.001000,0.001000
1008.346154,-0.049264,0.001000,0.001000,0.001000,0.001000,0.001000
1008.365385,-0.049028,0.001000,0.001000,0.001000,0.001000,0.001000
1008.384615,-0.048759,0.001000,0.001000,0.001000,0.001000,0.001000
1008.403846,-0.048458,0.001000,0.001000,0.001000,0.001000,0.001000
1008.423077,-0.048125,0.001000,0.001000,0.001000,0.001000,0.001000
1008.442308,-0.047760,0.001000,0.001000,0.001000,0.001000,0.001000
1008.461538,-0.047364,0.001000,0.001000,0.001000,0.001000,0.001000
1008.480769,-0.046936,0.001000,0.001000,0.001000,0.001000,0.001000
1008.500000,-0.046477,0.001000,0.001000,0.001000,0.001000,0.001000
1008.519231,-0.045987,0.001000,0.001000,0.001000,0.001000,0.001000
1008.538462,-0.045467,0.001000,0.001000,0.001000,0.001000,0.001000
1008.557692,-0.044917,0.001000,0.001000,0.001000,0.001000,0.001000
1008.576923,-0.044337,0.001000,0.001000,0.001000,0.001000,0.001000
1008.596154,-0.043727,0.001000,0.001000,0.001000,0.001000,0.001000
1008.615385,-0.043089,0.001000,0.001000,0.001000,0.001000,0.001000
1008.634615,-0.042422,0.001000,0.001000,0.001000,0.001000,0.001000
1008.653846,-0.041727,0.001000,0.001000,0.001000,0.001000,0.001000
1008.673077,-0.041004,0.001000,0.001000,0.001000,0.001000,0.001000
1008.692308,-0.040255,0.001000,0.001000,0.001000,0.001000,0.001000
1008.711538,-0.039478,0.001000,0.001000,0.001000,0.001000,0.001000
1008.730769,-0.038676,0.001000,0.001000,0.001000,0.001000,0.001000
1008.750000,-0.037848,0.001000,0.001000,0.001000,0.001000,0.001000
1008.769231,-0.036995,0.001000,0.001000,0.001000,0.001000,0.001000
1008.788462,-0.036117,0.001000,0.001000,0.001000,0.001000,0.001000
1008.807692,-0.035215,0.001000,0.001000,0.001000,0.001000,0.001000
1008.826923,-0.034291,0.001000,0.001000,0.001000,0.001000,0.001000
1008.846154,-0.033343,0.001000,0.001000,0.001000,0.001000,0.001000
1008.865385,-0.032373,0.001000,0.001000,0.001000,0.001000,0.001000
1008.884615,-0.031382,0.001000,0.001000,0.001000,0.001000,0.001000
1008.903846,-0.030370,0.001000,0.001000,0.001000,0.001000,0.001000
1008.923077,-0.029338,0.001000,0.001000,0.001000,0.001000,0.001000
1008.942308,-0.028287,0.001000,0.001000,0.001000,0.001000,0.001000
1008.961538,-0.027217,0.001000,0.001000,0.001000,0.001000,0.001000
1008.980769,-0.026129,0.001000,0.001000,0.001000,0.001000,0.001000
1009.000000,-0.025023,0.001000,0.001000,0.001000,0.001000,0.001000
1009.019231,-0.023901,0.001000,0.001000,0.001000,0.001000,0.001000
1009.038462,-0.022763,0.001000,0.001000,0.001000,0.001000,0.001000
1009.057692,-0.021611,0.001000,0.001000,0.001000,0.001000,0.001000
1009.076923,-0.020443,0.001000,0.001000,0.001000,0.001000,0.001000
1009.096154,-0.019263,0.001000,0.001000,0.001000,0.001000,0.001000
1009.115385,-0.018069,0.001000,0.001000,0.001000,0.001000,0.001000
1009.134615,-0.016864,0.001000,0.001000,0.001000,0.001000,0.001000
1009.153846,-0.015647,0.001000,0.001000,0.001000,0.001000,0.001000
1009.173077,-0.014420,0.001000,0.001000,0.001000,0.001000,0.001000
1009.192308,-0.013183,0.001000,0.001000,0.001000,0.001000,0.001000
1009.211538,-0.011938,0.001000,0.001000,0.001000,0.001000,0.001000
1009.230769,-0.010685,0.001000,0.001000,0.001000,0.001000,0.001000
1009.250000,-0.009425,0.001000,0.001000,0.001000,0.001000,0.001000
1009.269231,-0.008158,0.001000,0.001000,0.001000,0.001000,0.001000
1009.288462,-0.006886,0.001000,0.001000,0.001000,0.001000,0.001000
1009.307692,-0.005610,0.001000,0.001000,0.001000,0.001000,0.001000
1009.326923,-0.004330,0.001000,0.001000,0.001000,0.001000,0.001000
1009.346154,-0.003047,0.001000,0.001000,0.001000,0.001000,0.001000
1009.365385,-0.001762,0.001000,0.001000,0.001000,0.001000,0.001000
1009.384615,-0.000476,0.001000,0.001000,0.001000,0.001000,0.001000
1009.403846,0.000811,0.001000,0.001000,0.001000,0.001000,0.001000
1009.423077,0.002097,0.001000,0.001000,0.001000,0.001000,0.001000
1009.442308,0.003382,0.001000,0.001000,0.001000,0.001000,0.001000
1009.461538,0.004664,0.001000,0.001000,0.001000,0.001000,0.001000
1009.480769,0.005943,0.001000,0.001000,0.001000,0.001000,0.001000
1009.500000,0.007219,0.001000,0.001000,0.001000,0.001000,0.001000
1009.519231,0.008489,0.001000,0.001000,0.001000,0.001000,0.001000
1009.538462,0.009754,0.001000,0.001000,0.001000,0.001000,0.001000
1009.557692,0.011013,0.001000,0.001000,0.001000,0.001000,0.001000
1009.576923,0.012264,0.001000,0.001000,0.001000,0.001000,0.001000
1009.596154,0.013507,0.001000,0.001000,0.001000,0.001000,0.001000
1009.615385,0.014741,0.001000,0.001000,0.001000,0.001000,0.001000
1009.634615,0.015965,0.001000,0.001000,0.001000,0.001000,0.001000
1009.653846,0.017179,0.001000,0.001000,0.001000,0.001000,0.001000
1009.673077,0.018381,0.001000,0.001000,0.001000,0.001000,0.001000
1009.692308,0.019572,0.001000,0.001000,0.001000,0.001000,0.001000
1009.711538,0.020749,0.001000,0.001000,0.001000,0.001000,0.001000
1009.730769,0.021913,0.001000,0.001000,0.001000,0.001000,0.001000
1009.750000,0.023062,0.001000,0.001000,0.001000,0.001000,0.001000
1009.769231,0.024195,0.001000,0.001000,0.001000,0.001000,0.001000
1009.788462,0.025313,0.001000,0.001000,0.001000,0.001000,0.001000
1009.807692,0.026414,0.001000,0.001000,0.001000,0.001000,0.001000
1009.826923,0.027498,0.001000,0.001000,0.001000,0.001000,0.001000
1009.846154,0.028563,0.001000,0.001000,0.001000,0.001000,0.001000
1009.865385,0.029609,0.001000,0.001000,0.001000,0.001000,0.001000
1009.884615,0.030636,0.001000,0.001000,0.001000,0.001000,0.001000
1009.903846,0.031643,0.001000,0.001000,0.001000,0.001000,0.001000
1009.923077,0.032628,0.001000,0.001000,0.001000,0.001000,0.001000
1009.942308,0.033592,0.001000,0.001000,0.001000,0.001000,0.001000
1009.961538,0.034534,0.001000,0.001000,0.001000,0.001000,0.001000
1009.980769,0.035453,0.001000,0.001000,0.001000,0.001000,0.001000
1010.000000,0.036348,0.001000,0.001000,0.001000,0.001000,0.001000
1010.019231,0.037220,0.001000,0.001000,0.001000,0.001000,0.001000
1010.038462,0.038066,0.001000,0.001000,0.001000,0.001000,0.001000
1010.057692,0.038888,0.001000,0.001000,0.001000,0.001000,0.001000
1010.076923,0.039683,0.001000,0.001000,0.001000,0.001000,0.001000
1010.096154,0.040453,0.001000,0.001000,0.001000,0.001000,0.001000
1010.115385,0.041196,0.001000,0.001000,0.001000,0.001000,0.001000
1010.134615,0.041911,0.001000,0.001000,0.001000,0.001000,0.001000
1010.153846,0.042599,0.001000,0.001000,0.001000,0.001000,0.001000
1010.173077,0.043258,0.001000,0.001000,0.001000,0.001000,0.001000
1010.192308,0.043889,0.001000,0.001000,0.001000,0.001000,0.001000
1010.211538,0.044491,0.001000,0.001000,0.001000,0.001000,0.001000
1010.230769,0.045063,0.001000,0.001000,0.001000,0.001000,0.001000
1010.250000,0.045605,0.001000,0.001000,0.001000,0.001000,0.001000
1010.269231,0.046118,0.001000,0.001000,0.001000,0.001000,0.001000
1010.288462,0.046599,0.001000,0.001000,0.001000,0.001000,0.001000
1010.307692,0.047050,0.001000,0.001000,0.001000,0.001000,0.001000
1010.326923,0.047470,0.001000,0.001000,0.001000,0.001000,0.001000
1010.346154,0.047858,0.001000,0.001000,0.001000,0.001000,0.001000
1010.365385,0.048215,0.001000,0.001000,0.001000,0.001000,0.001000
1010.384615,0.048540,0.001000,0.001000,0.001000,0.001000,0.001000
1010.403846,0.048832,0.001000,0.001000,0.001000,0.001000,0.001000
1010.423077,0.049092,0.001000,0.001000,0.001000,0.001000,0.001000
1010.442308,0.049320,0.001000,0.001000,0.001000,0.001000,0.001000
1010.461538,0.049515,0.001000,0.001000,0.001000,0.001000,0.001000
1010.480769,0.049678,0.001000,0.001000,0.001000,0.001000,0.001000
1010.500000,0.049807,0.001000,0.001000,0.001000,0.001000,0.001000
1010.519231,0.049903,0.001000,0.001000,0.001000,0.001000,0.001000
1010.538462,0.049967,0.001000,0.001000,0.001000,0.001000,0.001000
1010.557692,0.049997,0.001000,0.001000,0.001000,0.001000,0.001000
1010.576923,0.049994,0.001000,0.001000,0.001000,0.001000,0.001000
1010.596154,0.049958,0.001000,0.001000,0.001000,0.001000,0.001000
1010.615385,0.049890,0.001000,0.001000,0.001000,0.001000,0.001000
1010.634615,0.049788,0.001000,0.001000,0.001000,0.001000,0.001000
1010.653846,0.049653,0.001000,0.001000,0.001000,0.001000,0.001000
1010.673077,0.049485,0.001000,0.001000,0.001000,0.001000,0.001000
1010.692308,0.049284,0.001000,0.001000,0.001000,0.001000,0.001000
1010.711538,0.049051,0.001000,0.001000,0.001000,0.001000,0.001000
1010.730769,0.048785,0.001000,0.001000,0.001000,0.001000,0.001000
1010.750000,0.048487,0.001000,0.001000,0.001000,0.001000,0.001000
1010.769231,0.048157,0.001000,0.001000,0.001000,0.001000,0.001000
1010.788462,0.047795,0.001000,0.001000,0.001000,0.001000,0.001000
1010.807692,0.047402,0.001000,0.001000,0.001000,0.001000,0.001000
1010.826923,0.046977,0.001000,0.001000,0.001000,0.001000,0.001000
1010.846154,0.046520,0.001000,0.001000,0.001000,0.001000,0.001000
1010.865385,0.046034,0.001000,0.001000,0.001000,0.001000,0.001000
1010.884615,0.045516,0.001000,0.001000,0.001000,0.001000,0.001000
1010.903846,0.044969,0.001000,0.001000,0.001000,0.001000,0.001000
1010.923077,0.044391,0.001000,0.001000,0.001000,0.001000,0.001000
1010.942308,0.043785,0.001000,0.001000,0.001000,0.001000,0.001000
1010.961538,0.043149,0.001000,0.001000,0.001000,0.001000,0.001000
1010.980769,0.042485,0.001000,0.001000,0.001000,0.001000,0.001000
1011.000000,0.041792,0.001000,0.001000,0.001000,0.001000,0.001000
1011.019231,0.041072,0.001000,0.001000,0.001000,0.001000,0.001000
1011.038462,0.040325,0.001000,0.001000,0.001000,0.001000,0.001000
1011.057692,0.039551,0.001000,0.001000,0.001000,0.001000,0.001000
1011.076923,0.038751,0.001000,0.001000,0.001000,0.001000,0.001000
1011.096154,0.037925,0.001000,0.001000,0.001000,0.001000,0.001000
1011.115385,0.037075,0.001000,0.001000,0.001000,0.001000,0.001000
1011.134615,0.036199,0.001000,0.001000,0.001000,0.001000,0.001000
1011.153846,0.035300,0.001000,0.001000,0.001000,0.001000,0.001000
1011.173077,0.034377,0.001000,0.001000,0.001000,0.001000,0.001000
1011.192308,0.033431,0.001000,0.001000,0.001000,0.001000,0.001000
1011.211538,0.032464,0.001000,0.001000,0.001000,0.001000,0.001000
1011.230769,0.031475,0.001000,0.001000,0.001000,0.001000,0.001000
1011.250000,0.030465,0.001000,0.001000,0.001000,0.001000,0.001000
1011.269231,0.029435,0.001000,0.001000,0.001000,0.001000,0.001000
1011.288462,0.028385,0.001000,0.001000,0.001000,0.001000,0.001000
1011.307692,0.027317,0.001000,0.001000,0.001000,0.001000,0.001000
1011.326923,0.026230,0.001000,0.001000,0.001000,0.001000,0.001000
1011.346154,0.025126,0.001000,0.001000,0.001000,0.001000,0.001000
1011.365385,0.024006,0.001000,0.001000,0.001000,0.001000,0.001000
1011.384615,0.022869,0.001000,0.001000,0.001000,0.001000,0.001000
1011.403846,0.021718,0.001000,0.001000,0.001000,0.001000,0.001000
1011.423077,0.020552,0.001000,0.001000,0.001000,0.001000,0.001000
1011.442308,0.019372,0.001000,0.001000,0.001000,0.001000,0.001000
1011.461538,0.018180,0.001000,0.001000,0.001000,0.001000,0.001000
1011.480769,0.016975,0.001000,0.001000,0.001000,0.001000,0.001000
1011.500000,0.015760,0.001000,0.001000,0.001000,0.001000,0.001000
1011.519231,0.014534,0.001000,0.001000,0.001000,0.001000,0.001000
1011.538462,0.013298,0.001000,0.001000,0.001000,0.001000,0.001000
1011.557692,0.012054,0.001000,0.001000,0.001000,0.001000,0.001000
1011.576923,0.010801,0.001000,0.001000,0.001000,0.001000,0.001000
1011.596154,0.009541,0.001000,0.001000,0.001000,0.001000,0.001000
1011.615385,0.008276,0.001000,0.001000,0.001000,0.001000,0.001000
1011.634615,0.007004,0.001000,0.001000,0.001000,0.001000,0.001000
1011.653846,0.005728,0.001000,0.001000,0.001000,0.001000,0.001000
1011.673077,0.004448,0.001000,0.001000,0.001000,0.001000,0.001000
1011.692308,0.003165,0.001000,0.001000,0.001000,0.001000,0.001000
1011.711538,0.001881,0.001000,0.001000,0.001000,0.001000,0.001000
1011.730769,0.000594,0.001000,0.001000,0.001000,0.001000,0.001000
1011.750000,-0.000692,0.001000,0.001000,0.001000,0.001000,0.001000
1011.769231,-0.001978,0.001000,0.001000,0.001000,0.001000,0.001000
1011.788462,-0.003263,0.001000,0.001000,0.001000,0.001000,0.001000
1011.807692,-0.004546,0.001000,0.001000,0.001000,0.001000,0.001000
1011.826923,-0.005825,0.001000,0.001000,0.001000,0.001000,0.001000
1011.846154,-0.007101,0.001000,0.001000,0.001000,0.001000,0.001000
1011.865385,-0.008372,0.001000,0.001000,0.001000,0.001000,0.001000
1011.884615,-0.009637,0.001000,0.001000,0.001000,0.001000,0.001000
1011.903846,-0.010897,0.001000,0.001000,0.001000,0.001000,0.001000
1011.923077,-0.012148,0.001000,0.001000,0.001000,0.001000,0.001000
1011.942308,-0.013392,0.001000,0.001000,0.001000,0.001000,0.001000
1011.961538,-0.014627,0.001000,0.001000,0.001000,0.001000,0.001000
1011.980769,-0.015853,0.001000,0.001000,0.001000,0.001000,0.001000
1012.000000,-0.017067,0.001000,0.001000,0.001000,0.001000,0.001000
1012.019231,-0.018271,0.001000,0.001000,0.001000,0.001000,0.001000
1012.038462,-0.019462,0.001000,0.001000,0.001000,0.001000,0.001000
1012.057692,-0.020641,0.001000,0.001000,0.001000,0.001000,0.001000
1012.076923,-0.021806,0.001000,0.001000,0.001000,0.001000,0.001000
1012.096154,-0.022956,0.001000,0.001000,0.001000,0.001000,0.001000
1012.115385,-0.024091,0.001000,0.001000,0.001000,0.001000,0.001000
1012.134615,-0.025211,0.001000,0.001000,0.001000,0.001000,0.001000
1012.153846,-0.026313,0.001000,0.001000,0.001000,0.001000,0.001000
1012.173077,-0.027398,0.001000,0.001000,0.001000,0.001000,0.001000
1012.192308,-0.028465,0.001000,0.001000,0.001000,0.001000,0.001000
1012.211538,-0.029514,0.001000,0.001000,0.001000,0.001000,0.001000
1012.230769,-0.030542,0.001000,0.001000,0.001000,0.001000,0.001000
1012.250000,-0.031551,0.001000,0.001000,0.001000,0.001000,0.001000
1012.269231,-0.032538,0.001000,0.001000,0.001000,0.001000,0.001000
1012.288462,-0.033504,0.001000,0.001000,0.001000,0.001000,0.001000
1012.307692,-0.034448,0.001000,0.001000,0.001000,0.001000,0.001000
1012.326923,-0.035369,0.001000,0.001000,0.001000,0.001000,0.001000
1012.346154,-0.036266,0.001000,0.001000,0.001000,0.001000,0.001000
1012.365385,-0.037140,0.001000,0.001000,0.001000,0.001000,0.001000
1012.384615,-0.037989,0.001000,0.001000,0.001000,0.001000,0.001000
1012.403846,-0.038813,0.001000,0.001000,0.001000,0.001000,0.001000
1012.423077,-0.039611,0.001000,0.001000,0.001000,0.001000,0.001000
1012.442308,-0.040383,0.001000,0.001000,0.001000,0.001000,0.001000
1012.461538,-0.041128,0.001000,0.001000,0.001000,0.001000,0.001000
1012.480769,-0.041846,0.001000,0.001000,0.001000,0.001000,0.001000
1012.500000,-0.042536,0.001000,0.001000,0.001000,0.001000,0.001000
1012.519231,-0.043198,0.001000,0.001000,0.001000,0.001000,0.001000
1012.538462,-0.043832,0.001000,0.001000,0.001000,0.001000,0.001000
1012.557692,-0.044436,0.001000,0.001000,0.001000,0.001000,0.001000
1012.576923,-0.045011,0.001000,0.001000,0.001000,0.001000,0.001000
1012.596154,-0.045557,0.001000,0.001000,0.001000,0.001000,0.001000
1012.615385,-0.046072,0.001000,0.001000,0.001000,0.001000,0.001000
1012.634615,-0.046556,0.001000,0.001000,0.001000,0.001000,0.001000
1012.653846,-0.047010,0.001000,0.001000,0.001000,0.001000,0.001000
1012.673077,-0.047433,0.001000,0.001000,0.001000,0.001000,0.001000
1012.692308,-0.047824,0.001000,0.001000,0.001000,0.001000,0.001000
1012.711538,-0.048183,0.001000,0.001000,0.001000,0.001000,0.001000
1012.730769,-0.048511,0.001000,0.001000,0.001000,0.001000,0.001000
1012.750000,-0.048807,0.001000,0.001000,0.001000,0.001000,0.001000
1012.769231,-0.049070,0.001000,0.001000,0.001000,0.001000,0.001000
1012.788462,-0.049301,0.001000,0.001000,0.001000,0.001000,0.001000
1012.807692,-0.049499,0.001000,0.001000,0.001000,0.001000,0.001000
1012.826923,-0.049664,0.001000,0.001000,0.001000,0.001000,0.001000
1012.846154,-0.049796,0.001000,0.001000,0.001000,0.001000,0.001000
1012.865385,-0.049896,0.001000,0.001000,0.001000,0.001000,0.001000
1012.884615,-0.049962,0.001000,0.001000,0.001000,0.001000,0.001000
1012.903846,-0.049996,0.001000,0.001000,0.001000,0.001000,0.001000
1012.923077,-0.049996,0.001000,0.001000,0.001000,0.001000,0.001000
1012.942308,-0.049963,0.001000,0.001000,0.001000,0.001000,0.001000
1012.961538,-0.049897,0.001000,0.001000,0.001000,0.001000,0.001000
1012.980769,-0.049798,0.001000,0.001000,0.001000,0.001000,0.001000
1013.000000,-0.049666,0.001000,0.001000,0.001000,0.001000,0.001000
1013.019231,-0.049502,0.001000,0.001000,0.001000,0.001000,0.001000
1013.038462,-0.049304,0.001000,0.001000,0.001000,0.001000,0.001000
1013.057692,-0.049074,0.001000,0.001000,0.001000,0.001000,0.001000
1013.076923,-0.048811,0.001000,0.001000,0.001000,0.001000,0.001000
1013.096154,-0.048516,0.001000,0.001000,0.001000,0.001000,0.001000
1013.115385,-0.048189,0.001000,0.001000,0.001000,0.001000,0.001000
1013.134615,-0.047830,0.001000,0.001000,0.001000,0.001000,0.001000
1013.153846,-0.047439,0.001000,0.001000,0.001000,0.001000,0.001000
1013.173077,-0.047017,0.001000,0.001000,0.001000,0.001000,0.001000
1013.192308,-0.046564,0.001000,0.001000,0.001000,0.001000,0.001000
1013.211538,-0.046080,0.001000,0.001000,0.001000,0.001000,0.001000
1013.230769,-0.045565,0.001000,0.001000,0.001000,0.001000,0.001000
1013.250000,-0.045020,0.001000,0.001000,0.001000,0.001000,0.001000
1013.269231,-0.044446,0.001000,0.001000,0.001000,0.001000,0.001000
1013.288462,-0.043842,0.001000,0.001000,0.001000,0.001000,0.001000
1013.307692,-0.043209,0.001000,0.001000,0.001000,0.001000,0.001000
1013.326923,-0.042547,0.001000,0.001000,0.001000,0.001000,0.001000
1013.346154,-0.041858,0.001000,0.001000,0.001000,0.001000,0.001000
1013.365385,-0.041140,0.001000,0.001000,0.001000,0.001000,0.001000
1013.384615,-0.040395,0.001000,0.001000,0.001000,0.001000,0.001000
1013.403846,-0.039624,0.001000,0.001000,0.001000,0.001000,0.001000
1013.423077,-0.038826,0.001000,0.001000,0.001000,0.001000,0.001000
1013.442308,-0.038003,0.001000,0.001000,0.001000,0.001000,0.001000
1013.461538,-0.037154,0.001000,0.001000,0.001000,0.001000,0.001000
1013.480769,-0.036281,0.001000,0.001000,0.001000,0.001000,0.001000
1013.500000,-0.035384,0.001000,0.001000,0.001000,0.001000,0.001000
1013.519231,-0.034463,0.001000,0.001000,0.001000,0.001000,0.001000
1013.538462,-0.033520,0.001000,0.001000,0.001000,0.001000,0.001000
1013.557692,-0.032554,0.001000,0.001000,0.001000,0.001000,0.001000
1013.576923,-0.031567,0.001000,0.001000,0.001000,0.001000,0.001000
1013.596154,-0.030559,0.001000,0.001000,0.001000,0.001000,0.001000
1013.615385,-0.029531,0.001000,0.001000,0.001000,0.001000,0.001000
1013.634615,-0.028483,0.001000,0.001000,0.001000,0.001000,0.001000
1013.653846,-0.027416,0.001000,0.001000,0.001000,0.001000,0.001000
1013.673077,-0.026331,0.001000,0.001000,0.001000,0.001000,0.001000
1013.692308,-0.025229,0.001000,0.001000,0.001000,0.001000,0.001000
1013.711538,-0.024110,0.001000,0.001000,0.001000,0.001000,0.001000
1013.730769,-0.022975,0.001000,0.001000,0.001000,0.001000,0.001000
1013.750000,-0.021825,0.001000,0.001000,0.001000,0.001000,0.001000
1013.769231,-0.020660,0.001000,0.001000,0.001000,0.001000,0.001000
1013.788462,-0.019482,0.001000,0.001000,0.001000,0.001000,0.001000
1013.807692,-0.018291,0.001000,0.001000,0.001000,0.001000,0.001000
1013.826923,-0.017087,0.001000,0.001000,0.001000,0.001000,0.001000
1013.846154,-0.015873,0.001000,0.001000,0.001000,0.001000,0.001000
1013.865385,-0.014647,0.001000,0.001000,0.001000,0.001000,0.001000
1013.884615,-0.013413,0.001000,0.001000,0.001000,0.001000,0.001000
1013.903846,-0.012169,0.001000,0.001000,0.001000,0.001000,0.001000
1013.923077,-0.010917,0.001000,0.001000,0.001000,0.001000,0.001000
1013.942308,-0.009658,0.001000,0.001000,0.001000,0.001000,0.001000
1013.961538,-0.008393,0.001000,0.001000,0.001000,0.001000,0.001000
1013.980769,-0.007122,0.001000,0.001000,0.001000,0.001000,0.001000
1014.000000,-0.005846,0.001000,0.001000,0.001000,0.001000,0.001000
1014.019231,-0.004567,0.001000,0.001000,0.001000,0.001000,0.001000
1014.038462,-0.003284,0.001000,0.001000,0.001000,0.001000,0.001000
1014.057692,-0.001999,0.001000,0.001000,0.001000,0.001000,0.001000
1014.076923,-0.000713,0.001000,0.001000,0.001000,0.001000,0.001000
1014.096154,0.000573,0.001000,0.001000,0.001000,0.001000,0.001000
1014.115385,0.001859,0.001000,0.001000,0.001000,0.001000,0.001000
1014.134615,0.003144,0.001000,0.001000,0.001000,0.001000,0.001000
1014.153846,0.004427,0.001000,0.001000,0.001000,0.001000,0.001000
1014.173077,0.005707,0.001000,0.001000,0.001000,0.001000,0.001000
1014.192308,0.006983,0.001000,0.001000,0.001000,0.001000,0.001000
1014.211538,0.008255,0.001000,0.001000,0.001000,0.001000,0.001000
1014.230769,0.009521,0.001000,0.001000,0.001000,0.001000,0.001000
1014.250000,0.010780,0.001000,0.001000,0.001000,0.001000,0.001000
1014.269231,0.012033,0.001000,0.001000,0.001000,0.001000,0.001000
1014.288462,0.013278,0.001000,0.001000,0.001000,0.001000,0.001000
1014.307692,0.014514,0.001000,0.001000,0.001000,0.001000,0.001000
1014.326923,0.015740,0.001000,0.001000,0.001000,0.001000,0.001000
1014.346154,0.016956,0.001000,0.001000,0.001000,0.001000,0.001000
1014.365385,0.018160,0.001000,0.001000,0.001000,0.001000,0.001000
1014.384615,0.019353,0.001000,0.001000,0.001000,0.001000,0.001000
1014.403846,0.020532,0.001000,0.001000,0.001000,0.001000,0.001000
1014.423077,0.021699,0.001000,0.001000,0.001000,0.001000,0.001000
1014.442308,0.022850,0.001000,0.001000,0.001000,0.001000,0.001000
1014.461538,0.023987,0.001000,0.001000,0.001000,0.001000,0.001000
1014.480769,0.025108,0.001000,0.001000,0.001000,0.001000,0.001000
1014.500000,0.026212,0.001000,0.001000,0.001000,0.001000,0.001000
1014.519231,0.027299,0.001000,0.001000,0.001000,0.001000,0.001000
1014.538462,0.028368,0.001000,0.001000,0.001000,0.001000,0.001000
1014.557692,0.029417,0.001000,0.001000,0.001000,0.001000,0.001000
1014.576923,0.030448,0.001000,0.001000,0.001000,0.001000,0.001000
1014.596154,0.031458,0.001000,0.001000,0.001000,0.001000,0.001000
1014.615385,0.032448,0.001000,0.001000,0.001000,0.001000,0.001000
1014.634615,0.033416,0.001000,0.001000,0.001000,0.001000,0.001000
1014.653846,0.034362,0.001000,0.001000,0.001000,0.001000,0.001000
1014.673077,0.035285,0.001000,0.001000,0.001000,0.001000,0.001000
1014.692308,0.036185,0.001000,0.001000,0.001000,0.001000,0.001000
1014.711538,0.037060,0.001000,0.001000,0.001000,0.001000,0.001000
1014.730769,0.037912,0.001000,0.001000,0.001000,0.001000,0.001000
1014.750000,0.038738,0.001000,0.001000,0.001000,0.001000,0.001000
1014.769231,0.039538,0.001000,0.001000,0.001000,0.001000,0.001000
1014.788462,0.040313,0.001000,0.001000,0.001000,0.001000,0.001000
1014.807692,0.041060,0.001000,0.001000,0.001000,0.001000,0.001000
1014.826923,0.041781,0.001000,0.001000,0.001000,0.001000,0.001000
1014.846154,0.042474,0.001000,0.001000,0.001000,0.001000,0.001000
1014.865385,0.043138,0.001000,0.001000,0.001000,0.001000,0.001000
1014.884615,0.043774,0.001000,0.001000,0.001000,0.001000,0.001000
1014.903846,0.044382,0.001000,0.001000,0.001000,0.001000,0.001000
1014.923077,0.044959,0.001000,0.001000,0.001000,0.001000,0.001000
1014.942308,0.045507,0.001000,0.001000,0.001000,0.001000,0.001000
1014.961538,0.046025,0.001000,0.001000,0.001000,0.001000,0.001000
1014.980769,0.046513,0.001000,0.001000,0.001000,0.001000,0.001000
1015.000000,0.046969,0.001000,0.001000,0.001000,0.001000,0.001000
1015.019231,0.047395,0.001000,0.001000,0.001000,0.001000,0.001000
1015.038462,0.047789,0.001000,0.001000,0.001000,0.001000,0.001000
1015.057692,0.048151,0.001000,0.001000,0.001000,0.001000,0.001000
1015.076923,0.048482,0.001000,0.001000,0.001000,0.001000,0.001000
1015.096154,0.048781,0.001000,0.001000,0.001000,0.001000,0.001000
1015.115385,0.049047,0.001000,0.001000,0.001000,0.001000,0.001000
1015.134615,0.049281,0.001000,0.001000,0.001000,0.001000,0.001000
1015.153846,0.049482,0.001000,0.001000,0.001000,0.001000,0.001000
1015.173077,0.049650,0.001000,0.001000,0.001000,0.001000,0.001000
1015.192308,0.049786,0.001000,0.001000,0.001000,0.001000,0.001000
1015.211538,0.049888,0.001000,0.001000,0.001000,0.001000,0.001000
1015.230769,0.049958,0.001000,0.001000,0.001000,0.001000,0.001000
1015.250000,0.049994,0.001000,0.001000,0.001000,0.001000,0.001000
1015.269231,0.049997,0.001000,0.001000,0.001000,0.001000,0.001000
1015.288462,0.049968,0.001000,0.001000,0.001000,0.001000,0.001000
1015.307692,0.049905,0.001000,0.001000,0.001000,0.001000,0.001000
1015.326923,0.049809,0.001000,0.001000,0.001000,0.001000,0.001000
1015.346154,0.049680,0.001000,0.001000,0.001000,0.001000,0.001000
1015.365385,0.049518,0.001000,0.001000,0.001000,0.001000,0.001000
1015.384615,0.049324,0.001000,0.001000,0.001000,0.001000,0.001000
1015.403846,0.049096,0.001000,0.001000,0.001000,0.001000,0.001000
1015.423077,0.048837,0.001000,0.001000,0.001000,0.001000,0.001000
1015.442308,0.048545,0.001000,0.001000,0.001000,0.001000,0.001000
1015.461538,0.048221,0.001000,0.001000,0.001000,0.001000,0.001000
1015.480769,0.047864,0.001000,0.001000,0.001000,0.001000,0.001000
1015.500000,0.047477,0.001000,0.001000,0.001000,0.001000,0.001000
1015.519231,0.047057,0.001000,0.001000,0.001000,0.001000,0.001000
1015.538462,0.046607,0.001000,0.001000,0.001000,0.001000,0.001000
1015.557692,0.046126,0.001000,0.001000,0.001000,0.001000,0.001000
1015.576923,0.045614,0.001000,0.001000,0.001000,0.001000,0.001000
1015.596154,0.045072,0.001000,0.001000,0.001000,0.001000,0.001000
1015.615385,0.044500,0.001000,0.001000,0.001000,0.001000,0.001000
1015.634615,0.043899,0.001000,0.001000,0.001000,0.001000,0.001000
1015.653846,0.043269,0.001000,0.001000,0.001000,0.001000,0.001000
1015.673077,0.042610,0.001000,0.001000,0.001000,0.001000,0.001000
1015.692308,0.041922,0.001000,0.001000,0.001000,0.001000,0.001000
1015.711538,0.041208,0.001000,0.001000,0.001000,0.001000,0.001000
1015.730769,0.040465,0.001000,0.001000,0.001000,0.001000,0.001000
1015.750000,0.039696,0.001000,0.001000,0.001000,0.001000,0.001000
1015.769231,0.038901,0.001000,0.001000,0.001000,0.001000,0.001000
1015.788462,0.038080,0.001000,0.001000,0.001000,0.001000,0.001000
1015.807692,0.037234,0.001000,0.001000,0.001000,0.001000,0.001000
1015.826923,0.036363,0.001000,0.001000,0.001000,0.001000,0.001000
1015.846154,0.035468,0.001000,0.001000,0.001000,0.001000,0.001000
1015.865385,0.034549,0.001000,0.001000,0.001000,0.001000,0.001000
1015.884615,0.033608,0.001000,0.001000,0.001000,0.001000,0.001000
1015.903846,0.032644,0.001000,0.001000,0.001000,0.001000,0.001000
1015.923077,0.031659,0.001000,0.001000,0.001000,0.001000,0.001000
1015.942308,0.030653,0.001000,0.001000,0.001000,0.001000,0.001000
1015.961538,0.029626,0.001000,0.001000,0.001000,0.001000,0.001000
1015.980769,0.028580,0.001000,0.001000,0.001000,0.001000,0.001000
1016.000000,0.027515,0.001000,0.001000,0.001000,0.001000,0.001000
1016.019231,0.026432,0.001000,0.001000,0.001000,0.001000,0.001000
1016.038462,0.025331,0.001000,0.001000,0.001000,0.001000,0.001000
1016.057692,0.024214,0.001000,0.001000,0.001000,0.001000,0.001000
1016.076923,0.023080,0.001000,0.001000,0.001000,0.001000,0.001000
1016.096154,0.021932,0.001000,0.001000,0.001000,0.001000,0.001000
1016.115385,0.020768,0.001000,0.001000,0.001000,0.001000,0.001000
1016.134615,0.019591,0.001000,0.001000,0.001000,0.001000,0.001000
1016.153846,0.018401,0.001000,0.001000,0.001000,0.001000,0.001000
1016.173077,0.017199,0.001000,0.001000,0.001000,0.001000,0.001000
1016.192308,0.015985,0.001000,0.001000,0.001000,0.001000,0.001000
1016.211538,0.014761,0.001000,0.001000,0.001000,0.001000,0.001000
1016.230769,0.013527,0.001000,0.001000,0.001000,0.001000,0.001000
1016.250000,0.012284,0.001000,0.001000,0.001000,0.001000,0.001000
1016.269231,0.011033,0.001000,0.001000,0.001000,0.001000,0.001000
1016.288462,0.009775,0.001000,0.001000,0.001000,0.001000,0.001000
1016.307692,0.008510,0.001000,0.001000,0.001000,0.001000,0.001000
1016.326923,0.007239,0.001000,0.001000,0.001000,0.001000,0.001000
1016.346154,0.005964,0.001000,0.001000,0.001000,0.001000,0.001000
1016.365385,0.004685,0.001000,0.001000,0.001000,0.001000,0.001000
1016.384615,0.003403,0.001000,0.001000,0.001000,0.001000,0.001000
1016.403846,0.002118,0.001000,0.001000,0.001000,0.001000,0.001000
1016.423077,0.000832,0.001000,0.001000,0.001000,0.001000,0.001000
1016.442308,-0.000454,0.001000,0.001000,0.001000,0.001000,0.001000
1016.461538,-0.001741,0.001000,0.001000,0.001000,0.001000,0.001000
1016.480769,-0.003026,0.001000,0.001000,0.001000,0.001000,0.001000
1016.500000,-0.004309,0.001000,0.001000,0.001000,0.001000,0.001000
1016.519231,-0.005589,0.001000,0.001000,0.001000,0.001000,0.001000
1016.538462,-0.006865,0.001000,0.001000,0.001000,0.001000,0.001000
1016.557692,-0.008137,0.001000,0.001000,0.001000,0.001000,0.001000
1016.576923,-0.009404,0.001000,0.001000,0.001000,0.001000,0.001000
1016.596154,-0.010664,0.001000,0.001000,0.001000,0.001000,0.001000
1016.615385,-0.011918,0.001000,0.001000,0.001000,0.001000,0.001000
1016.634615,-0.013163,0.001000,0.001000,0.001000,0.001000,0.001000
1016.653846,-0.014400,0.001000,0.001000,0.001000,0.001000,0.001000
1016.673077,-0.015627,0.001000,0.001000,0.001000,0.001000,0.001000
1016.692308,-0.016844,0.001000,0.001000,0.001000,0.001000,0.001000
1016.711538,-0.018049,0.001000,0.001000,0.001000,0.001000,0.001000
1016.730769,-0.019243,0.001000,0.001000,0.001000,0.001000,0.001000
1016.750000,-0.020424,0.001000,0.001000,0.001000,0.001000,0.001000
1016.769231,-0.021591,0.001000,0.001000,0.001000,0.001000,0.001000
1016.788462,-0.022745,0.001000,0.001000,0.001000,0.001000,0.001000
1016.807692,-0.023883,0.001000,0.001000,0.001000,0.001000,0.001000
1016.826923,-0.025005,0.001000,0.001000,0.001000,0.001000,0.001000
1016.846154,-0.026111,0.001000,0.001000,0.001000,0.001000,0.001000
1016.865385,-0.027199,0.001000,0.001000,0.001000,0.001000,0.001000
1016.884615,-0.028270,0.001000,0.001000,0.001000,0.001000,0.001000
1016.903846,-0.029321,0.001000,0.001000,0.001000,0.001000,0.001000
1016.923077,-0.030354,0.001000,0.001000,0.001000,0.001000,0.001000
1016.942308,-0.031366,0.001000,0.001000,0.001000,0.001000,0.001000
1016.961538,-0.032357,0.001000,0.001000,0.001000,0.001000,0.001000
1016.980769,-0.033327,0.001000,0.001000,0.001000,0.001000,0.001000
1017.000000,-0.034275,0.001000,0.001000,0.001000,0.001000,0.001000
1017.019231,-0.035200,0.001000,0.001000,0.001000,0.001000,0.001000
1017.038462,-0.036102,0.001000,0.001000,0.001000,0.001000,0.001000
1017.057692,-0.036980,0.001000,0.001000,0.001000,0.001000,0.001000
1017.076923,-0.037834,0.001000,0.001000,0.001000,0.001000,0.001000
1017.096154,-0.038663,0.001000,0.001000,0.001000,0.001000,0.001000
1017.115385,-0.039465,0.001000,0.001000,0.001000,0.001000,0.001000
1017.134615,-0.040242,0.001000,0.001000,0.001000,0.001000,0.001000
1017.153846,-0.040992,0.001000,0.001000,0.001000,0.001000,0.001000
1017.173077,-0.041715,0.001000,0.001000,0.001000,0.001000,0.001000
1017.192308,-0.042411,0.001000,0.001000,0.001000,0.001000,0.001000
1017.211538,-0.043078,0.001000,0.001000,0.001000,0.001000,0.001000
1017.230769,-0.043717,0.001000,0.001000,0.001000,0.001000,0.001000
1017.250000,-0.044327,0.001000,0.001000,0.001000,0.001000,0.001000
1017.269231,-0.044907,0.001000,0.001000,0.001000,0.001000,0.001000
1017.288462,-0.045458,0.001000,0.001000,0.001000,0.001000,0.001000
1017.307692,-0.045979,0.001000,0.001000,0.001000,0.001000,0.001000
1017.326923,-0.046469,0.001000,0.001000,0.001000,0.001000,0.001000
1017.346154,-0.046928,0.001000,0.001000,0.001000,0.001000,0.001000
1017.365385,-0.047357,0.001000,0.001000,0.001000,0.001000,0.001000
1017.384615,-0.047754,0.001000,0.001000,0.001000,0.001000,0.001000
1017.403846,-0.048119,0.001000,0.001000,0.001000,0.001000,0.001000
1017.423077,-0.048453,0.001000,0.001000,0.001000,0.001000,0.001000
1017.442308,-0.048754,0.001000,0.001000,0.001000,0.001000,0.001000
1017.461538,-0.049024,0.001000,0.001000,0.001000,0.001000,0.001000
1017.480769,-0.049260,0.001000,0.001000,0.001000,0.001000,0.001000
1017.500000,-0.049464,0.001000,0.001000,0.001000,0.001000,0.001000
1017.519231,-0.049636,0.001000,0.001000,0.001000,0.001000,0.001000
1017.538462,-0.049774,0.001000,0.001000,0.001000,0.001000,0.001000
1017.557692,-0.049880,0.001000,0.001000,0.001000,0.001000,0.001000
1017.576923,-0.049953,0.001000,0.001000,0.001000,0.001000,0.001000
1017.596154,-0.049992,0.001000,0.001000,0.001000,0.001000,0.001000
1017.615385,-0.049998,0.001000,0.001000,0.001000,0.001000,0.001000
1017.634615,-0.049972,0.001000,0.001000,0.001000,0.001000,0.001000
1017.653846,-0.049912,0.001000,0.001000,0.001000,0.001000,0.001000
1017.673077,-0.049819,0.001000,0.001000,0.001000,0.001000,0.001000
1017.692308,-0.049693,0.001000,0.001000,0.001000,0.001000,0.001000
1017.711538,-0.049535,0.001000,0.001000,0.001000,0.001000,0.001000
1017.730769,-0.049343,0.001000,0.001000,0.001000,0.001000,0.001000
1017.750000,-0.049119,0.001000,0.001000,0.001000,0.001000,0.001000
1017.769231,-0.048862,0.001000,0.001000,0.001000,0.001000,0.001000
1017.788462,-0.048573,0.001000,0.001000,0.001000,0.001000,0.001000
1017.807692,-0.048252,0.001000,0.001000,0.001000,0.001000,0.001000
1017.826923,-0.047899,0.001000,0.001000,0.001000,0.001000,0.001000
1017.846154,-0.047514,0.001000,0.001000,0.001000,0.001000,0.001000
1017.865385,-0.047097,0.001000,0.001000,0.001000,0.001000,0.001000
1017.884615,-0.046650,0.001000,0.001000,0.001000,0.001000,0.001000
1017.903846,-0.046172,0.001000,0.001000,0.001000,0.001000,0.001000
1017.923077,-0.045663,0.001000,0.001000,0.001000,0.001000,0.001000
1017.942308,-0.045123,0.001000,0.001000,0.001000,0.001000,0.001000
1017.961538,-0.044554,0.001000,0.001000,0.001000,0.001000,0.001000
1017.980769,-0.043956,0.001000,0.001000,0.001000,0.001000,0.001000
1018.000000,-0.043328,0.001000,0.001000,0.001000,0.001000,0.001000
1018.019231,-0.042672,0.001000,0.001000,0.001000,0.001000,0.001000
1018.038462,-0.041987,0.001000,0.001000,0.001000,0.001000,0.001000
1018.057692,-0.041275,0.001000,0.001000,0.001000,0.001000,0.001000
1018.076923,-0.040535,0.001000,0.001000,0.001000,0.001000,0.001000
1018.096154,-0.039768,0.001000,0.001000,0.001000,0.001000,0.001000
1018.115385,-0.038976,0.001000,0.001000,0.001000,0.001000,0.001000
1018.134615,-0.038157,0.001000,0.001000,0.001000,0.001000,0.001000
1018.153846,-0.037313,0.001000,0.001000,0.001000,0.001000,0.001000
1018.173077,-0.036444,0.001000,0.001000,0.001000,0.001000,0.001000
1018.192308,-0.035551,0.001000,0.001000,0.001000,0.001000,0.001000
1018.211538,-0.034635,0.001000,0.001000,0.001000,0.001000,0.001000
1018.230769,-0.033696,0.001000,0.001000,0.001000,0.001000,0.001000
1018.250000,-0.032734,0.001000,0.001000,0.001000,0.001000,0.001000
1018.269231,-0.031751,0.001000,0.001000,0.001000,0.001000,0.001000
1018.288462,-0.030747,0.001000,0.001000,0.001000,0.001000,0.001000
1018.307692,-0.029722,0.001000,0.001000,0.001000,0.001000,0.001000
1018.326923,-0.028678,0.001000,0.001000,0.001000,0.001000,0.001000
1018.346154,-0.027615,0.001000,0.001000,0.001000,0.001000,0.001000
1018.365385,-0.026533,0.001000,0.001000,0.001000,0.001000,0.001000
1018.384615,-0.025434,0.001000,0.001000,0.001000,0.001000,0.001000
1018.403846,-0.024318,0.001000,0.001000,0.001000,0.001000,0.001000
1018.423077,-0.023186,0.001000,0.001000,0.001000,0.001000,0.001000
1018.442308,-0.022038,0.001000,0.001000,0.001000,0.001000,0.001000
1018.461538,-0.020876,0.001000,0.001000,0.001000,0.001000,0.001000
1018.480769,-0.019700,0.001000,0.001000,0.001000,0.001000,0.001000
1018.500000,-0.018512,0.001000,0.001000,0.001000,0.001000,0.001000
1018.519231,-0.017310,0.001000,0.001000,0.001000,0.001000,0.001000
1018.538462,-0.016098,0.001000,0.001000,0.001000,0.001000,0.001000
1018.557692,-0.014875,0.001000,0.001000,0.001000,0.001000,0.001000
1018.576923,-0.013642,0.001000,0.001000,0.001000,0.001000,0.001000
1018.596154,-0.012399,0.001000,0.001000,0.001000,0.001000,0.001000
1018.615385,-0.011149,0.001000,0.001000,0.001000,0.001000,0.001000
1018.634615,-0.009891,0.001000,0.001000,0.001000,0.001000,0.001000
1018.653846,-0.008627,0.001000,0.001000,0.001000,0.001000,0.001000
1018.673077,-0.007357,0.001000,0.001000,0.001000,0.001000,0.001000
1018.692308,-0.006082,0.001000,0.001000,0.001000,0.001000,0.001000
1018.711538,-0.004803,0.001000,0.001000,0.001000,0.001000,0.001000
1018.730769,-0.003521,0.001000,0.001000,0.001000,0.001000,0.001000
1018.750000,-0.002237,0.001000,0.001000,0.001000,0.001000,0.001000
1018.769231,-0.000951,0.001000,0.001000,0.001000,0.001000,0.001000
1018.788462,0.000335,0.001000,0.001000,0.001000,0.001000,0.001000
1018.807692,0.001622,0.001000,0.001000,0.001000,0.001000,0.001000
1018.826923,0.002907,0.001000,0.001000,0.001000,0.001000,0.001000
1018.846154,0.004190,0.001000,0.001000,0.001000,0.001000,0.001000
1018.865385,0.005471,0.001000,0.001000,0.001000,0.001000,0.001000
1018.884615,0.006748,0.001000,0.001000,0.001000,0.001000,0.001000
1018.903846,0.008020,0.001000,0.001000,0.001000,0.001000,0.001000
1018.923077,0.009287,0.001000,0.001000,0.001000,0.001000,0.001000
1018.942308,0.010548,0.001000,0.001000,0.001000,0.001000,0.001000
1018.961538,0.011802,0.001000,0.001000,0.001000,0.001000,0.001000
1018.980769,0.013048,0.001000,0.001000,0.001000,0.001000,0.001000
1019.000000,0.014286,0.001000,0.001000,0.001000,0.001000,0.001000
1019.019231,0.015514,0.001000,0.001000,0.001000,0.001000,0.001000
1019.038462,0.016732,0.001000,0.001000,0.001000,0.001000,0.001000
1019.057692,0.017938,0.001000,0.001000,0.001000,0.001000,0.001000
1019.076923,0.019133,0.001000,0.001000,0.001000,0.001000,0.001000
1019.096154,0.020315,0.001000,0.001000,0.001000,0.001000,0.001000
1019.115385,0.021484,0.001000,0.001000,0.001000,0.001000,0.001000
1019.134615,0.022639,0.001000,0.001000,0.001000,0.001000,0.001000
1019.153846,0.023778,0.001000,0.001000,0.001000,0.001000,0.001000
1019.173077,0.024902,0.001000,0.001000,0.001000,0.001000,0.001000
1019.192308,0.026009,0.001000,0.001000,0.001000,0.001000,0.001000
1019.211538,0.027099,0.001000,0.001000,0.001000,0.001000,0.001000
1019.230769,0.028171,0.001000,0.001000,0.001000,0.001000,0.001000
1019.250000,0.029225,0.001000,0.001000,0.001000,0.001000,0.001000
1019.269231,0.030259,0.001000,0.001000,0.001000,0.001000,0.001000
1019.288462,0.031273,0.001000,0.001000,0.001000,0.001000,0.001000
1019.307692,0.032266,0.001000,0.001000,0.001000,0.001000,0.001000
1019.326923,0.033238,0.001000,0.001000,0.001000,0.001000,0.001000
1019.346154,0.034189,0.001000,0.001000,0.001000,0.001000,0.001000
1019.365385,0.035116,0.001000,0.001000,0.001000,0.001000,0.001000
1019.384615,0.036020,0.001000,0.001000,0.001000,0.001000,0.001000
1019.403846,0.036900,0.001000,0.001000,0.001000,0.001000,0.001000
1019.423077,0.037756,0.001000,0.001000,0.001000,0.001000,0.001000
1019.442308,0.038587,0.001000,0.001000,0.001000,0.001000,0.001000
1019.461538,0.039392,0.001000,0.001000,0.001000,0.001000,0.001000
1019.480769,0.040172,0.001000,0.001000,0.001000,0.001000,0.001000
1019.500000,0.040924,0.001000,0.001000,0.001000,0.001000,0.001000
1019.519231,0.041650,0.001000,0.001000,0.001000,0.001000,0.001000
1019.538462,0.042348,0.001000,0.001000,0.001000,0.001000,0.001000
1019.557692,0.043018,0.001000,0.001000,0.001000,0.001000,0.001000
1019.576923,0.043659,0.001000,0.001000,0.001000,0.001000,0.001000
1019.596154,0.044272,0.001000,0.001000,0.001000,0.001000,0.001000
1019.615385,0.044855,0.001000,0.001000,0.001000,0.001000,0.001000
1019.634615,0.045408,0.001000,0.001000,0.001000,0.001000,0.001000
1019.653846,0.045932,0.001000,0.001000,0.001000,0.001000,0.001000
1019.673077,0.046425,0.001000,0.001000,0.001000,0.001000,0.001000
1019.692308,0.046887,0.001000,0.001000,0.001000,0.001000,0.001000
1019.711538,0.047319,0.001000,0.001000,0.001000,0.001000,0.001000
1019.730769,0.047718,0.001000,0.001000,0.001000,0.001000,0.001000
1019.750000,0.048087,0.001000,0.001000,0.001000,0.001000,0.001000
1019.769231,0.048423,0.001000,0.001000,0.001000,0.001000,0.001000
1019.788462,0.048728,0.001000,0.001000,0.001000,0.001000,0.001000
1019.807692,0.049000,0.001000,0.001000,0.001000,0.001000,0.001000
1019.826923,0.049240,0.001000,0.001000,0.001000,0.001000,0.001000
1019.846154,0.049447,0.001000,0.001000,0.001000,0.001000,0.001000
1019.865385,0.049621,0.001000,0.001000,0.001000,0.001000,0.001000
1019.884615,0.049763,0.001000,0.001000,0.001000,0.001000,0.001000
1019.903846,0.049872,0.001000,0.001000,0.001000,0.001000,0.001000
1019.923077,0.049947,0.001000,0.001000,0.001000,0.001000,0.001000
1019.942308,0.049990,0.001000,0.001000,0.001000,0.001000,0.001000
1019.961538,0.049999,0.001000,0.001000,0.001000,0.001000,0.001000
1019.980769,0.049976,0.001000,0.001000,0.001000,0.001000,0.001000
1020.000000,0.049919,0.001000,0.001000,0.001000,0.001000,0.001000
1020.019231,0.049829,0.001000,0.001000,0.001000,0.001000,0.001000
1020.038462,0.049706,0.001000,0.001000,0.001000,0.001000,0.001000
1020.057692,0.049551,0.001000,0.001000,0.001000,0.001000,0.001000
1020.076923,0.049362,0.001000,0.001000,0.001000,0.001000,0.001000
1020.096154,0.049141,0.001000,0.001000,0.001000,0.001000,0.001000
1020.115385,0.048887,0.001000,0.001000,0.001000,0.001000,0.001000
1020.134615,0.048601,0.001000,0.001000,0.001000,0.001000,0.001000
1020.153846,0.048283,0.001000,0.001000,0.001000,0.001000,0.001000
1020.173077,0.047933,0.001000,0.001000,0.001000,0.001000,0.001000
1020.192308,0.047551,0.001000,0.001000,0.001000,0.001000,0.001000
1020.211538,0.047137,0.001000,0.001000,0.001000,0.001000,0.001000
1020.230769,0.046693,0.001000,0.001000,0.001000,0.001000,0.001000
1020.250000,0.046217,0.001000,0.001000,0.001000,0.001000,0.001000
1020.269231,0.045711,0.001000,0.001000,0.001000,0.001000,0.001000
1020.288462,0.045175,0.001000,0.001000,0.001000,0.001000,0.001000
1020.307692,0.044608,0.001000,0.001000,0.001000,0.001000,0.001000
1020.326923,0.044012,0.001000,0.001000,0.001000,0.001000,0.001000
1020.346154,0.043387,0.001000,0.001000,0.001000,0.001000,0.001000
1020.365385,0.042734,0.001000,0.001000,0.001000,0.001000,0.001000
1020.384615,0.042052,0.001000,0.001000,0.001000,0.001000,0.001000
1020.403846,0.041342,0.001000,0.001000,0.001000,0.001000,0.001000
1020.423077,0.040604,0.001000,0.001000,0.001000,0.001000,0.001000
1020.442308,0.039840,0.001000,0.001000,0.001000,0.001000,0.001000
1020.461538,0.039050,0.001000,0.001000,0.001000,0.001000,0.001000
1020.480769,0.038234,0.001000,0.001000,0.001000,0.001000,0.001000
1020.500000,0.037392,0.001000,0.001000,0.001000,0.001000,0.001000
1020.519231,0.036525,0.001000,0.001000,0.001000,0.001000,0.001000
1020.538462,0.035635,0.001000,0.001000,0.001000,0.001000,0.001000
1020.557692,0.034721,0.001000,0.001000,0.001000,0.001000,0.001000
1020.576923,0.033784,0.001000,0.001000,0.001000,0.001000,0.001000
1020.596154,0.032824,0.001000,0.001000,0.001000,0.001000,0.001000
1020.615385,0.031843,0.001000,0.001000,0.001000,0.001000,0.001000
1020.634615,0.030840,0.001000,0.001000,0.001000,0.001000,0.001000
1020.653846,0.029818,0.001000,0.001000,0.001000,0.001000,0.001000
1020.673077,0.028775,0.001000,0.001000,0.001000,0.001000,0.001000
1020.692308,0.027714,0.001000,0.001000,0.001000,0.001000,0.001000
1020.711538,0.026634,0.001000,0.001000,0.001000,0.001000,0.001000
1020.730769,0.025536,0.001000,0.001000,0.001000,0.001000,0.001000
1020.750000,0.024422,0.001000,0.001000,0.001000,0.001000,0.001000
1020.769231,0.023291,0.001000,0.001000,0.001000,0.001000,0.001000
1020.788462,0.022145,0.001000,0.001000,0.001000,0.001000,0.001000
1020.807692,0.020984,0.001000,0.001000,0.001000,0.001000,0.001000
1020.826923,0.019810,0.001000,0.001000,0.001000,0.001000,0.001000
1020.846154,0.018622,0.001000,0.001000,0.001000,0.001000,0.001000
1020.865385,0.017422,0.001000,0.001000,0.001000,0.001000,0.001000
1020.884615,0.016210,0.001000,0.001000,0.001000,0.001000,0.001000
1020.903846,0.014988,0.001000,0.001000,0.001000,0.001000,0.001000
1020.923077,0.013756,0.001000,0.001000,0.001000,0.001000,0.001000
1020.942308,0.012515,0.001000,0.001000,0.001000,0.001000,0.001000
1020.961538,0.011265,0.001000,0.001000,0.001000,0.001000,0.001000
1020.980769,0.010008,0.001000,0.001000,0.001000,0.001000,0.001000
1021.000000,0.008744,0.001000,0.001000,0.001000,0.001000,0.001000
1021.019231,0.007475,0.001000,0.001000,0.001000,0.001000,0.001000
1021.038462,0.006200,0.001000,0.001000,0.001000,0.001000,0.001000
1021.057692,0.004922,0.001000,0.001000,0.001000,0.001000,0.001000
1021.076923,0.003640,0.001000,0.001000,0.001000,0.001000,0.001000
1021.096154,0.002356,0.001000,0.001000,0.001000,0.001000,0.001000
1021.115385,0.001070,0.001000,0.001000,0.001000,0.001000,0.001000
1021.134615,-0.000217,0.001000,0.001000,0.001000,0.001000,0.001000
1021.153846,-0.001503,0.001000,0.001000,0.001000,0.001000,0.001000
1021.173077,-0.002788,0.001000,0.001000,0.001000,0.001000,0.001000
1021.192308,-0.004072,0.001000,0.001000,0.001000,0.001000,0.001000
1021.211538,-0.005353,0.001000,0.001000,0.001000,0.001000,0.001000
1021.230769,-0.006630,0.001000,0.001000,0.001000,0.001000,0.001000
1021.250000,-0.007903,0.001000,0.001000,0.001000,0.001000,0.001000
1021.269231,-0.009170,0.001000,0.001000,0.001000,0.001000,0.001000
1021.288462,-0.010432,0.001000,0.001000,0.001000,0.001000,0.001000
1021.307692,-0.011687,0.001000,0.001000,0.001000,0.001000,0.001000
1021.326923,-0.012933,0.001000,0.001000,0.001000,0.001000,0.001000
1021.346154,-0.014172,0.001000,0.001000,0.001000,0.001000,0.001000
1021.365385,-0.015401,0.001000,0.001000,0.001000,0.001000,0.001000
1021.384615,-0.016620,0.001000,0.001000,0.001000,0.001000,0.001000
1021.403846,-0.017827,0.001000,0.001000,0.001000,0.001000,0.001000
1021.423077,-0.019023,0.001000,0.001000,0.001000,0.001000,0.001000
1021.442308,-0.020207,0.001000,0.001000,0.001000,0.001000,0.001000
1021.461538,-0.021377,0.001000,0.001000,0.001000,0.001000,0.001000
1021.480769,-0.022533,0.001000,0.001000,0.001000,0.001000,0.001000
1021.500000,-0.023674,0.001000,0.001000,0.001000,0.001000,0.001000
1021.519231,-0.024799,0.001000,0.001000,0.001000,0.001000,0.001000
1021.538462,-0.025908,0.001000,0.001000,0.001000,0.001000,0.001000
1021.557692,-0.026999,0.001000,0.001000,0.001000,0.001000,0.001000
1021.576923,-0.028073,0.001000,0.001000,0.001000,0.001000,0.001000
1021.596154,-0.029128,0.001000,0.001000,0.001000,0.001000,0.001000
1021.615385,-0.030164,0.001000,0.001000,0.001000,0.001000,0.001000
1021.634615,-0.031180,0.001000,0.001000,0.001000,0.001000,0.001000
1021.653846,-0.032176,0.001000,0.001000,0.001000,0.001000,0.001000
1021.673077,-0.033150,0.001000,0.001000,0.001000,0.001000,0.001000
1021.692308,-0.034102,0.001000,0.001000,0.001000,0.001000,0.001000
1021.711538,-0.035031,0.001000,0.001000,0.001000,0.001000,0.001000
1021.730769,-0.035937,0.001000,0.001000,0.001000,0.001000,0.001000
1021.750000,-0.036820,0.001000,0.001000,0.001000,0.001000,0.001000
1021.769231,-0.037678,0.001000,0.001000,0.001000,0.001000,0.001000
1021.788462,-0.038511,0.001000,0.001000,0.001000,0.001000,0.001000
1021.807692,-0.039319,0.001000,0.001000,0.001000,0.001000,0.001000
1021.826923,-0.040101,0.001000,0.001000,0.001000,0.001000,0.001000
1021.846154,-0.040856,0.001000,0.001000,0.001000,0.001000,0.001000
1021.865385,-0.041584,0.001000,0.001000,0.001000,0.001000,0.001000
1021.884615,-0.042284,0.001000,0.001000,0.001000,0.001000,0.001000
1021.903846,-0.042957,0.001000,0.001000,0.001000,0.001000,0.001000
1021.923077,-0.043601,0.001000,0.001000,0.001000,0.001000,0.001000
1021.942308,-0.044216,0.001000,0.001000,0.001000,0.001000,0.001000
1021.961538,-0.044802,0.001000,0.001000,0.001000,0.001000,0.001000
1021.980769,-0.045358,0.001000,0.001000,0.001000,0.001000,0.001000
1022.000000,-0.045885,0.001000,0.001000,0.001000,0.001000,0.001000
1022.019231,-0.046381,0.001000,0.001000,0.001000,0.001000,0.001000
1022.038462,-0.046846,0.001000,0.001000,0.001000,0.001000,0.001000
1022.057692,-0.047280,0.001000,0.001000,0.001000,0.001000,0.001000
1022.076923,-0.047683,0.001000,0.001000,0.001000,0.001000,0.001000
1022.096154,-0.048054,0.001000,0.001000,0.001000,0.001000,0.001000
1022.115385,-0.048394,0.001000,0.001000,0.001000,0.001000,0.001000
1022.134615,-0.048701,0.001000,0.001000,0.001000,0.001000,0.001000
1022.153846,-0.048976,0.001000,0.001000,0.001000,0.001000,0.001000
1022.173077,-0.049219,0.001000,0.001000,0.001000,0.001000,0.001000
1022.192308,-0.049429,0.001000,0.001000,0.001000,0.001000,0.001000
1022.211538,-0.049607,0.001000,0.001000,0.001000,0.001000,0.001000
1022.230769,-0.049751,0.001000,0.001000,0.001000,0.001000,0.001000
1022.250000,-0.049863,0.001000,0.001000,0.001000,0.001000,0.001000
1022.269231,-0.049942,0.001000,0.001000,0.001000,0.001000,0.001000
1022.288462,-0.049987,0.001000,0.001000,0.001000,0.001000,0.001000
1022.307692,-0.050000,0.001000,0.001000,0.001000,0.001000,0.001000
1022.326923,-0.049979,0.001000,0.001000,0.001000,0.001000,0.001000
1022.346154,-0.049925,0.001000,0.001000,0.001000,0.001000,0.001000
1022.365385,-0.049839,0.001000,0.001000,0.001000,0.001000,0.001000
1022.384615,-0.049719,0.001000,0.001000,0.001000,0.001000,0.001000
1022.403846,-0.049566,0.001000,0.001000,0.001000,0.001000,0.001000
1022.423077,-0.049381,0.001000,0.001000,0.001000,0.001000,0.001000
1022.442308,-0.049163,0.001000,0.001000,0.001000,0.001000,0.001000
1022.461538,-0.048912,0.001000,0.001000,0.001000,0.001000,0.001000
1022.480769,-0.048629,0.001000,0.001000,0.001000,0.001000,0.001000
1022.500000,-0.048314,0.001000,0.001000,0.001000,0.001000,0.001000
1022.519231,-0.047966,0.001000,0.001000,0.001000,0.001000,0.001000
1022.538462,-0.047587,0.001000,0.001000,0.001000,0.001000,0.001000
1022.557692,-0.047177,0.001000,0.001000,0.001000,0.001000,0.001000
1022.576923,-0.046735,0.001000,0.001000,0.001000,0.001000,0.001000
1022.596154,-0.046262,0.001000,0.001000,0.001000,0.001000,0.001000
1022.615385,-0.045759,0.001000,0.001000,0.001000,0.001000,0.001000
1022.634615,-0.045225,0.001000,0.001000,0.001000,0.001000,0.001000
1022.653846,-0.044662,0.001000,0.001000,0.001000,0.001000,0.001000
1022.673077,-0.044069,0.001000,0.001000,0.001000,0.001000,0.001000
1022.692308,-0.043446,0.001000,0.001000,0.001000,0.001000,0.001000
1022.711538,-0.042795,0.001000,0.001000,0.001000,0.001000,0.001000
1022.730769,-0.042116,0.001000,0.001000,0.001000,0.001000,0.001000
1022.750000,-0.041408,0.001000,0.001000,0.001000,0.001000,0.001000
1022.769231,-0.040674,0.001000,0.001000,0.001000,0.001000,0.001000
1022.788462,-0.039912,0.001000,0.001000,0.001000,0.001000,0.001000
1022.807692,-0.039124,0.001000,0.001000,0.001000,0.001000,0.001000
1022.826923,-0.038310,0.001000,0.001000,0.001000,0.001000,0.001000
1022.846154,-0.037471,0.001000,0.001000,0.001000,0.001000,0.001000
1022.865385,-0.036607,0.001000,0.001000,0.001000,0.001000,0.001000
1022.884615,-0.035718,0.001000,0.001000,0.001000,0.001000,0.001000
1022.903846,-0.034806,0.001000,0.001000,0.001000,0.001000,0.001000
1022.923077,-0.033871,0.001000,0.001000,0.001000,0.001000,0.001000
1022.942308,-0.032914,0.001000,0.001000,0.001000,0.001000,0.001000
1022.961538,-0.031934,0.001000,0.001000,0.001000,0.001000,0.001000
1022.980769,-0.030934,0.001000,0.001000,0.001000,0.001000,0.001000
1023.000000,-0.029913,0.001000,0.001000,0.001000,0.001000,0.001000
1023.019231,-0.028872,0.001000,0.001000,0.001000,0.001000,0.001000
1023.038462,-0.027812,0.001000,0.001000,0.001000,0.001000,0.001000
1023.057692,-0.026734,0.001000,0.001000,0.001000,0.001000,0.001000
1023.076923,-0.025638,0.001000,0.001000,0.001000,0.001000,0.001000
1023.096154,-0.024525,0.001000,0.001000,0.001000,0.001000,0.001000
1023.115385,-0.023396,0.001000,0.001000,0.001000,0.001000,0.001000
1023.134615,-0.022252,0.001000,0.001000,0.001000,0.001000,0.001000
1023.153846,-0.021092,0.001000,0.001000,0.001000,0.001000,0.001000
1023.173077,-0.019919,0.001000,0.001000,0.001000,0.001000,0.001000
1023.192308,-0.018732,0.001000,0.001000,0.001000,0.001000,0.001000
1023.211538,-0.017533,0.001000,0.001000,0.001000,0.001000,0.001000
1023.230769,-0.016323,0.001000,0.001000,0.001000,0.001000,0.001000
1023.250000,-0.015101,0.001000,0.001000,0.001000,0.001000,0.001000
1023.269231,-0.013870,0.001000,0.001000,0.001000,0.001000,0.001000
1023.288462,-0.012630,0.001000,0.001000,0.001000,0.001000,0.001000
1023.307692,-0.011381,0.001000,0.001000,0.001000,0.001000,0.001000
1023.326923,-0.010124,0.001000,0.001000,0.001000,0.001000,0.001000
1023.346154,-0.008861,0.001000,0.001000,0.001000,0.001000,0.001000
1023.365385,-0.007592,0.001000,0.001000,0.001000,0.001000,0.001000
1023.384615,-0.006318,0.001000,0.001000,0.001000,0.001000,0.001000
1023.403846,-0.005040,0.001000,0.001000,0.001000,0.001000,0.001000
1023.423077,-0.003758,0.001000,0.001000,0.001000,0.001000,0.001000
1023.442308,-0.002474,0.001000,0.001000,0.001000,0.001000,0.001000
1023.461538,-0.001189,0.001000,0.001000,0.001000,0.001000,0.001000
1023.480769,0.000098,0.001000,0.001000,0.001000,0.001000,0.001000
1023.500000,0.001384,0.001000,0.001000,0.001000,0.001000,0.001000
1023.519231,0.002670,0.001000,0.001000,0.001000,0.001000,0.001000
1023.538462,0.003953,0.001000,0.001000,0.001000,0.001000,0.001000
1023.557692,0.005234,0.001000,0.001000,0.001000,0.001000,0.001000
1023.576923,0.006512,0.001000,0.001000,0.001000,0.001000,0.001000
1023.596154,0.007785,0.001000,0.001000,0.001000,0.001000,0.001000
1023.615385,0.009053,0.001000,0.001000,0.001000,0.001000,0.001000
1023.634615,0.010316,0.001000,0.001000,0.001000,0.001000,0.001000
1023.653846,0.011571,0.001000,0.001000,0.001000,0.001000,0.001000
1023.673077,0.012819,0.001000,0.001000,0.001000,0.001000,0.001000
1023.692308,0.014058,0.001000,0.001000,0.001000,0.001000,0.001000
1023.711538,0.015288,0.001000,0.001000,0.001000,0.001000,0.001000
1023.730769,0.016507,0.001000,0.001000,0.001000,0.001000,0.001000
1023.750000,0.017716,0.001000,0.001000,0.001000,0.001000,0.001000
1023.769231,0.018913,0.001000,0.001000,0.001000,0.001000,0.001000
1023.788462,0.020098,0.001000,0.001000,0.001000,0.001000,0.001000
1023.807692,0.021269,0.001000,0.001000,0.001000,0.001000,0.001000
1023.826923,0.022426,0.001000,0.001000,0.001000,0.001000,0.001000
1023.846154,0.023569,0.001000,0.001000,0.001000,0.001000,0.001000
1023.865385,0.024695,0.001000,0.001000,0.001000,0.001000,0.001000
1023.884615,0.025806,0.001000,0.001000,0.001000,0.001000,0.001000
1023.903846,0.026899,0.001000,0.001000,0.001000,0.001000,0.001000
1023.923077,0.027975,0.001000,0.001000,0.001000,0.001000,0.001000
1023.942308,0.029032,0.001000,0.001000,0.001000,0.001000,0.001000
1023.961538,0.030069,0.001000,0.001000,0.001000,0.001000,0.001000
1023.980769,0.031087,0.001000,0.001000,0.001000,0.001000,0.001000
1024.000000,0.032084,0.001000,0.001000,0.001000,0.001000,0.001000
1024.019231,0.033060,0.001000,0.001000,0.001000,0.001000,0.001000
1024.038462,0.034015,0.001000,0.001000,0.001000,0.001000,0.001000
1024.057692,0.034946,0.001000,0.001000,0.001000,0.001000,0.001000
1024.076923,0.035855,0.001000,0.001000,0.001000,0.001000,0.001000
1024.096154,0.036739,0.001000,0.001000,0.001000,0.001000,0.001000
1024.115385,0.037600,0.001000,0.001000,0.001000,0.001000,0.001000
1024.134615,0.038435,0.001000,0.001000,0.001000,0.001000,0.001000
1024.153846,0.039245,0.001000,0.001000,0.001000,0.001000,0.001000
1024.173077,0.040030,0.001000,0.001000,0.001000,0.001000,0.001000
1024.192308,0.040787,0.001000,0.001000,0.001000,0.001000,0.001000
1024.211538,0.041518,0.001000,0.001000,0.001000,0.001000,0.001000
1024.230769,0.042221,0.001000,0.001000,0.001000,0.001000,0.001000
1024.250000,0.042896,0.001000,0.001000,0.001000,0.001000,0.001000
1024.269231,0.043543,0.001000,0.001000,0.001000,0.001000,0.001000
1024.288462,0.044161,0.001000,0.001000,0.001000,0.001000,0.001000
1024.307692,0.044749,0.001000,0.001000,0.001000,0.001000,0.001000
1024.326923,0.045308,0.001000,0.001000,0.001000,0.001000,0.001000
1024.346154,0.045837,0.001000,0.001000,0.001000,0.001000,0.001000
1024.365385,0.046336,0.001000,0.001000,0.001000,0.001000,0.001000
1024.384615,0.046804,0.001000,0.001000,0.001000,0.001000,0.001000
1024.403846,0.047241,0.001000,0.001000,0.001000,0.001000,0.001000
1024.423077,0.047647,0.001000,0.001000,0.001000,0.001000,0.001000
1024.442308,0.048021,0.001000,0.001000,0.001000,0.001000,0.001000
1024.461538,0.048364,0.001000,0.001000,0.001000,0.001000,0.001000
1024.480769,0.048674,0.001000,0.001000,0.001000,0.001000,0.001000
1024.500000,0.048952,0.001000,0.001000,0.001000,0.001000,0.001000
1024.519231,0.049198,0.001000,0.001000,0.001000,0.001000,0.001000
1024.538462,0.049411,0.001000,0.001000,0.001000,0.001000,0.001000
1024.557692,0.049592,0.001000,0.001000,0.001000,0.001000,0.001000
1024.576923,0.049739,0.001000,0.001000,0.001000,0.001000,0.001000
1024.596154,0.049854,0.001000,0.001000,0.001000,0.001000,0.001000
1024.615385,0.049936,0.001000,0.001000,0.001000,0.001000,0.001000
1024.634615,0.049984,0.001000,0.001000,0.001000,0.001000,0.001000
1024.653846,0.050000,0.001000,0.001000,0.001000,0.001000,0.001000
1024.673077,0.049982,0.001000,0.001000,0.001000,0.001000,0.001000
1024.692308,0.049932,0.001000,0.001000,0.001000,0.001000,0.001000
1024.711538,0.049848,0.001000,0.001000,0.001000,0.001000,0.001000
1024.730769,0.049731,0.001000,0.001000,0.001000,0.001000,0.001000
1024.750000,0.049582,0.001000,0.001000,0.001000,0.001000,0.001000
1024.769231,0.049399,0.001000,0.001000,0.001000,0.001000,0.001000
1024.788462,0.049184,0.001000,0.001000,0.001000,0.001000,0.001000
1024.807692,0.048937,0.001000,0.001000,0.001000,0.001000,0.001000
1024.826923,0.048656,0.001000,0.001000,0.001000,0.001000,0.001000
1024.846154,0.048344,0.001000,0.001000,0.001000,0.001000,0.001000
1024.865385,0.048000,0.001000,0.001000,0.001000,0.001000,0.001000
1024.884615,0.047624,0.001000,0.001000,0.001000,0.001000,0.001000
1024.903846,0.047216,0.001000,0.001000,0.001000,0.001000,0.001000
1024.923077,0.046777,0.001000,0.001000,0.001000,0.001000,0.001000
1024.942308,0.046307,0.001000,0.001000,0.001000,0.001000,0.001000
1024.961538,0.045807,0.001000,0.001000,0.001000,0.001000,0.001000
1024.980769,0.045276,0.001000,0.001000,0.001000,0.001000,0.001000
1025.000000,0.044715,0.001000,0.001000,0.001000,0.001000,0.001000
1025.019231,0.044125,0.001000,0.001000,0.001000,0.001000,0.001000
1025.038462,0.043505,0.001000,0.001000,0.001000,0.001000,0.001000
1025.057692,0.042857,0.001000,0.001000,0.001000,0.001000,0.001000
1025.076923,0.042180,0.001000,0.001000,0.001000,0.001000,0.001000
1025.096154,0.041475,0.001000,0.001000,0.001000,0.001000,0.001000
1025.115385,0.040743,0.001000,0.001000,0.001000,0.001000,0.001000
1025.134615,0.039984,0.001000,0.001000,0.001000,0.001000,0.001000
1025.153846,0.039198,0.001000,0.001000,0.001000,0.001000,0.001000
1025.173077,0.038386,0.001000,0.001000,0.001000,0.001000,0.001000
1025.192308,0.037549,0.001000,0.001000,0.001000,0.001000,0.001000
1025.211538,0.036687,0.001000,0.001000,0.001000,0.001000,0.001000
1025.230769,0.035801,0.001000,0.001000,0.001000,0.001000,0.001000
1025.250000,0.034891,0.001000,0.001000,0.001000,0.001000,0.001000
1025.269231,0.033958,0.001000,0.001000,0.001000,0.001000,0.001000
1025.288462,0.033003,0.001000,0.001000,0.001000,0.001000,0.001000
1025.307692,0.032026,0.001000,0.001000,0.001000,0.001000,0.001000
1025.326923,0.031027,0.001000,0.001000,0.001000,0.001000,0.001000
1025.346154,0.030008,0.001000,0.001000,0.001000,0.001000,0.001000
1025.365385,0.028969,0.001000,0.001000,0.001000,0.001000,0.001000
1025.384615,0.027911,0.001000,0.001000,0.001000,0.001000,0.001000
1025.403846,0.026835,0.001000,0.001000,0.001000,0.001000,0.001000
1025.423077,0.025740,0.001000,0.001000,0.001000,0.001000,0.001000
1025.442308,0.024629,0.001000,0.001000,0.001000,0.001000,0.001000
1025.461538,0.023501,0.001000,0.001000,0.001000,0.001000,0.001000
1025.480769,0.022358,0.001000,0.001000,0.001000,0.001000,0.001000
1025.500000,0.021200,0.001000,0.001000,0.001000,0.001000,0.001000
1025.519231,0.020028,0.001000,0.001000,0.001000,0.001000,0.001000
1025.538462,0.018842,0.001000,0.001000,0.001000,0.001000,0.001000
1025.557692,0.017645,0.001000,0.001000,0.001000,0.001000,0.001000
1025.576923,0.016435,0.001000,0.001000,0.001000,0.001000,0.001000
1025.596154,0.015215,0.001000,0.001000,0.001000,0.001000,0.001000
1025.615385,0.013984,0.001000,0.001000,0.001000,0.001000,0.001000
1025.634615,0.012745,0.001000,0.001000,0.001000,0.001000,0.001000
1025.653846,0.011496,0.001000,0.001000,0.001000,0.001000,0.001000
1025.673077,0.010241,0.001000,0.001000,0.001000,0.001000,0.001000
1025.692308,0.008978,0.001000,0.001000,0.001000,0.001000,0.001000
1025.711538,0.007710,0.001000,0.001000,0.001000,0.001000,0.001000
1025.730769,0.006436,0.001000,0.001000,0.001000,0.001000,0.001000
1025.750000,0.005158,0.001000,0.001000,0.001000,0.001000,0.001000
1025.769231,0.003877,0.001000,0.001000,0.001000,0.001000,0.001000
1025.788462,0.002593,0.001000,0.001000,0.001000,0.001000,0.001000
1025.807692,0.001308,0.001000,0.001000,0.001000,0.001000,0.001000
1025.826923,0.000021,0.001000,0.001000,0.001000,0.001000,0.001000
1025.846154,-0.001265,0.001000,0.001000,0.001000,0.001000,0.001000
1025.865385,-0.002551,0.001000,0.001000,0.001000,0.001000,0.001000
1025.884615,-0.003835,0.001000,0.001000,0.001000,0.001000,0.001000
1025.903846,-0.005116,0.001000,0.001000,0.001000,0.001000,0.001000
1025.923077,-0.006394,0.001000,0.001000,0.001000,0.001000,0.001000
1025.942308,-0.007668,0.001000,0.001000,0.001000,0.001000,0.001000
1025.961538,-0.008937,0.001000,0.001000,0.001000,0.001000,0.001000
1025.980769,-0.010199,0.001000,0.001000,0.001000,0.001000,0.001000
1026.000000,-0.011455,0.001000,0.001000,0.001000,0.001000,0.001000
1026.019231,-0.012704,0.001000,0.001000,0.001000,0.001000,0.001000
1026.038462,-0.013944,0.001000,0.001000,0.001000,0.001000,0.001000
1026.057692,-0.015174,0.001000,0.001000,0.001000,0.001000,0.001000
1026.076923,-0.016395,0.001000,0.001000,0.001000,0.001000,0.001000
1026.096154,-0.017605,0.001000,0.001000,0.001000,0.001000,0.001000
1026.115385,-0.018803,0.001000,0.001000,0.001000,0.001000,0.001000
1026.134615,-0.019989,0.001000,0.001000,0.001000,0.001000,0.001000
1026.153846,-0.021162,0.001000,0.001000,0.001000,0.001000,0.001000
1026.173077,-0.022320,0.001000,0.001000,0.001000,0.001000,0.001000
1026.192308,-0.023464,0.001000,0.001000,0.001000,0.001000,0.001000
1026.211538,-0.024592,0.001000,0.001000,0.001000,0.001000,0.001000
1026.230769,-0.025704,0.001000,0.001000,0.001000,0.001000,0.001000
1026.250000,-0.026799,0.001000,0.001000,0.001000,0.001000,0.001000
1026.269231,-0.027876,0.001000,0.001000,0.001000,0.001000,0.001000
1026.288462,-0.028935,0.001000,0.001000,0.001000,0.001000,0.001000
1026.307692,-0.029974,0.001000,0.001000,0.001000,0.001000,0.001000
1026.326923,-0.030994,0.001000,0.001000,0.001000,0.001000,0.001000
1026.346154,-0.031993,0.001000,0.001000,0.001000,0.001000,0.001000
1026.365385,-0.032971,0.001000,0.001000,0.001000,0.001000,0.001000
1026.384615,-0.033927,0.001000,0.001000,0.001000,0.001000,0.001000
1026.403846,-0.034861,0.001000,0.001000,0.001000,0.001000,0.001000
1026.423077,-0.035772,0.001000,0.001000,0.001000,0.001000,0.001000
1026.442308,-0.036659,0.001000,0.001000,0.001000,0.001000,0.001000
1026.461538,-0.037521,0.001000,0.001000,0.001000,0.001000,0.001000
1026.480769,-0.038359,0.001000,0.001000,0.001000,0.001000,0.001000
1026.500000,-0.039172,0.001000,0.001000,0.001000,0.001000,0.001000
1026.519231,-0.039958,0.001000,0.001000,0.001000,0.001000,0.001000
1026.538462,-0.040718,0.001000,0.001000,0.001000,0.001000,0.001000
1026.557692,-0.041451,0.001000,0.001000,0.001000,0.001000,0.001000
1026.576923,-0.042157,0.001000,0.001000,0.001000,0.001000,0.001000
1026.596154,-0.042835,0.001000,0.001000,0.001000,0.001000,0.001000
1026.615385,-0.043484,0.001000,0.001000,0.001000,0.001000,0.001000
1026.634615,-0.044105,0.001000,0.001000,0.001000,0.001000,0.001000
1026.653846,-0.044696,0.001000,0.001000,0.001000,0.001000,0.001000
1026.673077,-0.045258,0.001000,0.001000,0.001000,0.001000,0.001000
1026.692308,-0.045790,0.001000,0.001000,0.001000,0.001000,0.001000
1026.711538,-0.046291,0.001000,0.001000,0.001000,0.001000,0.001000
1026.730769,-0.046762,0.001000,0.001000,0.001000,0.001000,0.001000
1026.750000,-0.047202,0.001000,0.001000,0.001000,0.001000,0.001000
1026.769231,-0.047611,0.001000,0.001000,0.001000,0.001000,0.001000
1026.788462,-0.047988,0.001000,0.001000,0.001000,0.001000,0.001000
1026.807692,-0.048333,0.001000,0.001000,0.001000,0.001000,0.001000
1026.826923,-0.048647,0.001000,0.001000,0.001000,0.001000,0.001000
1026.846154,-0.048928,0.001000,0.001000,0.001000,0.001000,0.001000
1026.865385,-0.049177,0.001000,0.001000,0.001000,0.001000,0.001000
1026.884615,-0.049393,0.001000,0.001000,0.001000,0.001000,0.001000
1026.903846,-0.049576,0.001000,0.001000,0.001000,0.001000,0.001000
1026.923077,-0.049727,0.001000,0.001000,0.001000,0.001000,0.001000
1026.942308,-0.049845,0.001000,0.001000,0.001000,0.001000,0.001000
1026.961538,-0.049930,0.001000,0.001000,0.001000,0.001000,0.001000
1026.980769,-0.049981,0.001000,0.001000,0.001000,0.001000,0.001000
1027.000000,-0.050000,0.001000,0.001000,0.001000,0.001000,0.001000
1027.019231,-0.049985,0.001000,0.001000,0.001000,0.001000,0.001000
1027.038462,-0.049938,0.001000,0.001000,0.001000,0.001000,0.001000
1027.057692,-0.049857,0.001000,0.001000,0.001000,0.001000,0.001000
1027.076923,-0.049744,0.001000,0.001000,0.001000,0.001000,0.001000
1027.096154,-0.049597,0.001000,0.001000,0.001000,0.001000,0.001000
1027.115385,-0.049418,0.001000,0.001000,0.001000,0.001000,0.001000
1027.134615,-0.049205,0.001000,0.001000,0.001000,0.001000,0.001000
1027.153846,-0.048961,0.001000,0.001000,0.001000,0.001000,0.001000
1027.173077,-0.048684,0.001000,0.001000,0.001000,0.001000,0.001000
1027.192308,-0.048374,0.001000,0.001000,0.001000,0.001000,0.001000
1027.211538,-0.048033,0.001000,0.001000,0.001000,0.001000,0.001000
1027.230769,-0.047660,0.001000,0.001000,0.001000,0.001000,0.001000
1027.250000,-0.047255,0.001000,0.001000,0.001000,0.001000,0.001000
1027.269231,-0.046819,0.001000,0.001000,0.001000,0.001000,0.001000
1027.288462,-0.046352,0.001000,0.001000,0.001000,0.001000,0.001000
1027.307692,-0.045854,0.001000,0.001000,0.001000,0.001000,0.001000
1027.326923,-0.045326,0.001000,0.001000,0.001000,0.001000,0.001000
1027.346154,-0.044768,0.001000,0.001000,0.001000,0.001000,0.001000
1027.365385,-0.044180,0.001000,0.001000,0.001000,0.001000,0.001000
1027.384615,-0.043563,0.001000,0.001000,0.001000,0.001000,0.001000
1027.403846,-0.042918,0.001000,0.001000,0.001000,0.001000,0.001000
1027.423077,-0.042243,0.001000,0.001000,0.001000,0.001000,0.001000
1027.442308,-0.041541,0.001000,0.001000,0.001000,0.001000,0.001000
1027.461538,-0.040812,0.001000,0.001000,0.001000,0.001000,0.001000
1027.480769,-0.040055,0.001000,0.001000,0.001000,0.001000,0.001000
1027.500000,-0.039272,0.001000,0.001000,0.001000,0.001000,0.001000
1027.519231,-0.038462,0.001000,0.001000,0.001000,0.001000,0.001000
1027.538462,-0.037628,0.001000,0.001000,0.001000,0.001000,0.001000
1027.557692,-0.036768,0.001000,0.001000,0.001000,0.001000,0.001000
1027.576923,-0.035884,0.001000,0.001000,0.001000,0.001000,0.001000
1027.596154,-0.034976,0.001000,0.001000,0.001000,0.001000,0.001000
1027.615385,-0.034046,0.001000,0.001000,0.001000,0.001000,0.001000
1027.634615,-0.033092,0.001000,0.001000,0.001000,0.001000,0.001000
1027.653846,-0.032117,0.001000,0.001000,0.001000,0.001000,0.001000
1027.673077,-0.031120,0.001000,0.001000,0.001000,0.001000,0.001000
1027.692308,-0.030103,0.001000,0.001000,0.001000,0.001000,0.001000
1027.711538,-0.029066,0.001000,0.001000,0.001000,0.001000,0.001000
1027.730769,-0.028010,0.001000,0.001000,0.001000,0.001000,0.001000
1027.750000,-0.026935,0.001000,0.001000,0.001000,0.001000,0.001000
1027.769231,-0.025842,0.001000,0.001000,0.001000,0.001000,0.001000
1027.788462,-0.024732,0.001000,0.001000,0.001000,0.001000,0.001000
1027.807692,-0.023606,0.001000,0.001000,0.001000,0.001000,0.001000
1027.826923,-0.022464,0.001000,0.001000,0.001000,0.001000,0.001000
1027.846154,-0.021307,0.001000,0.001000,0.001000,0.001000,0.001000
1027.865385,-0.020137,0.001000,0.001000,0.001000,0.001000,0.001000
1027.884615,-0.018953,0.001000,0.001000,0.001000,0.001000,0.001000
1027.903846,-0.017756,0.001000,0.001000,0.001000,0.001000,0.001000
1027.923077,-0.016547,0.001000,0.001000,0.001000,0.001000,0.001000
1027.942308,-0.015328,0.001000,0.001000,0.001000,0.001000,0.001000
1027.961538,-0.014098,0.001000,0.001000,0.001000,0.001000,0.001000
1027.980769,-0.012860,0.001000,0.001000,0.001000,0.001000,0.001000
1028.000000,-0.011612,0.001000,0.001000,0.001000,0.001000,0.001000
1028.019231,-0.010357,0.001000,0.001000,0.001000,0.001000,0.001000
1028.038462,-0.009095,0.001000,0.001000,0.001000,0.001000,0.001000
1028.057692,-0.007827,0.001000,0.001000,0.001000,0.001000,0.001000
1028.076923,-0.006554,0.001000,0.001000,0.001000,0.001000,0.001000
1028.096154,-0.005276,0.001000,0.001000,0.001000,0.001000,0.001000
1028.115385,-0.003995,0.001000,0.001000,0.001000,0.001000,0.001000
1028.134615,-0.002712,0.001000,0.001000,0.001000,0.001000,0.001000
1028.153846,-0.001426,0.001000,0.001000,0.001000,0.001000,0.001000
1028.173077,-0.000140,0.001000,0.001000,0.001000,0.001000,0.001000
1028.192308,0.001146,0.001000,0.001000,0.001000,0.001000,0.001000
1028.211538,0.002432,0.001000,0.001000,0.001000,0.001000,0.001000
1028.230769,0.003716,0.001000,0.001000,0.001000,0.001000,0.001000
1028.250000,0.004998,0.001000,0.001000,0.001000,0.001000,0.001000
1028.269231,0.006276,0.001000,0.001000,0.001000,0.001000,0.001000
1028.288462,0.007550,0.001000,0.001000,0.001000,0.001000,0.001000
1028.307692,0.008820,0.001000,0.001000,0.001000,0.001000,0.001000
1028.326923,0.010083,0.001000,0.001000,0.001000,0.001000,0.001000
1028.346154,0.011340,0.001000,0.001000,0.001000,0.001000,0.001000
1028.365385,0.012589,0.001000,0.001000,0.001000,0.001000,0.001000
1028.384615,0.013829,0.001000,0.001000,0.001000,0.001000,0.001000
1028.403846,0.015061,0.001000,0.001000,0.001000,0.001000,0.001000
1028.423077,0.016283,0.001000,0.001000,0.001000,0.001000,0.001000
1028.442308,0.017494,0.001000,0.001000,0.001000,0.001000,0.001000
1028.461538,0.018693,0.001000,0.001000,0.001000,0.001000,0.001000
1028.480769,0.019880,0.001000,0.001000,0.001000,0.001000,0.001000
1028.500000,0.021054,0.001000,0.001000,0.001000,0.001000,0.001000
1028.519231,0.022214,0.001000,0.001000,0.001000,0.001000,0.001000
1028.538462,0.023359,0.001000,0.001000,0.001000,0.001000,0.001000
1028.557692,0.024488,0.001000,0.001000,0.001000,0.001000,0.001000
1028.576923,0.025602,0.001000,0.001000,0.001000,0.001000,0.001000
1028.596154,0.026698,0.001000,0.001000,0.001000,0.001000,0.001000
1028.615385,0.027777,0.001000,0.001000,0.001000,0.001000,0.001000
1028.634615,0.028838,0.001000,0.001000,0.001000,0.001000,0.001000
1028.653846,0.029879,0.001000,0.001000,0.001000,0.001000,0.001000
1028.673077,0.030901,0.001000,0.001000,0.001000,0.001000,0.001000
1028.692308,0.031902,0.001000,0.001000,0.001000,0.001000,0.001000
1028.711538,0.032882,0.001000,0.001000,0.001000,0.001000,0.001000
1028.730769,0.033840,0.001000,0.001000,0.001000,0.001000,0.001000
1028.750000,0.034776,0.001000,0.001000,0.001000,0.001000,0.001000
1028.769231,0.035689,0.001000,0.001000,0.001000,0.001000,0.001000
1028.788462,0.036578,0.001000,0.001000,0.001000,0.001000,0.001000
1028.807692,0.037443,0.001000,0.001000,0.001000,0.001000,0.001000
1028.826923,0.038283,0.001000,0.001000,0.001000,0.001000,0.001000
1028.846154,0.039098,0.001000,0.001000,0.001000,0.001000,0.001000
1028.865385,0.039887,0.001000,0.001000,0.001000,0.001000,0.001000
1028.884615,0.040649,0.001000,0.001000,0.001000,0.001000,0.001000
1028.903846,0.041385,0.001000,0.001000,0.001000,0.001000,0.001000
1028.923077,0.042093,0.001000,0.001000,0.001000,0.001000,0.001000
1028.942308,0.042773,0.001000,0.001000,0.001000,0.001000,0.001000
1028.961538,0.043425,0.001000,0.001000,0.001000,0.001000,0.001000
1028.980769,0.044049,0.001000,0.001000,0.001000,0.001000,0.001000
1029.000000,0.044643,0.001000,0.001000,0.001000,0.001000,0.001000
1029.019231,0.045207,0.001000,0.001000,0.001000,0.001000,0.001000
1029.038462,0.045742,0.001000,0.001000,0.001000,0.001000,0.001000
1029.057692,0.046246,0.001000,0.001000,0.001000,0.001000,0.001000
1029.076923,0.046720,0.001000,0.001000,0.001000,0.001000,0.001000
1029.096154,0.047163,0.001000,0.001000,0.001000,0.001000,0.001000
1029.115385,0.047574,0.001000,0.001000,0.001000,0.001000,0.001000
1029.134615,0.047954,0.001000,0.001000,0.001000,0.001000,0.001000
1029.153846,0.048303,0.001000,0.001000,0.001000,0.001000,0.001000
1029.173077,0.048619,0.001000,0.001000,0.001000,0.001000,0.001000
1029.192308,0.048903,0.001000,0.001000,0.001000,0.001000,0.001000
1029.211538,0.049155,0.001000,0.001000,0.001000,0.001000,0.001000
1029.230769,0.049374,0.001000,0.001000,0.001000,0.001000,0.001000
1029.250000,0.049561,0.001000,0.001000,0.001000,0.001000,0.001000
1029.269231,0.049715,0.001000,0.001000,0.001000,0.001000,0.001000
1029.288462,0.049835,0.001000,0.001000,0.001000,0.001000,0.001000
1029.307692,0.049923,0.001000,0.001000,0.001000,0.001000,0.001000
1029.326923,0.049978,0.001000,0.001000,0.001000,0.001000,0.001000
1029.346154,0.050000,0.001000,0.001000,0.001000,0.001000,0.001000
1029.365385,0.049988,0.001000,0.001000,0.001000,0.001000,0.001000
1029.384615,0.049944,0.001000,0.001000,0.001000,0.001000,0.001000
1029.403846,0.049866,0.001000,0.001000,0.001000,0.001000,0.001000
1029.423077,0.049755,0.001000,0.001000,0.001000,0.001000,0.001000
1029.442308,0.049612,0.001000,0.001000,0.001000,0.001000,0.001000
1029.461538,0.049436,0.001000,0.001000,0.001000,0.001000,0.001000
1029.480769,0.049226,0.001000,0.001000,0.001000,0.001000,0.001000
1029.500000,0.048985,0.001000,0.001000,0.001000,0.001000,0.001000
1029.519231,0.048711,0.001000,0.001000,0.001000,0.001000,0.001000
1029.538462,0.048404,0.001000,0.001000,0.001000,0.001000,0.001000
1029.557692,0.048066,0.001000,0.001000,0.001000,0.001000,0.001000
1029.576923,0.047696,0.001000,0.001000,0.001000,0.001000,0.001000
1029.596154,0.047294,0.001000,0.001000,0.001000,0.001000,0.001000
1029.615385,0.046861,0.001000,0.001000,0.001000,0.001000,0.001000
1029.634615,0.046396,0.001000,0.001000,0.001000,0.001000,0.001000
1029.653846,0.045902,0.001000,0.001000,0.001000,0.001000,0.001000
1029.673077,0.045376,0.001000,0.001000,0.001000,0.001000,0.001000
1029.692308,0.044821,0.001000,0.001000,0.001000,0.001000,0.001000
1029.711538,0.044236,0.001000,0.001000,0.001000,0.001000,0.001000
1029.730769,0.043622,0.001000,0.001000,0.001000,0.001000,0.001000
1029.750000,0.042979,0.001000,0.001000,0.001000,0.001000,0.001000
1029.769231,0.042307,0.001000,0.001000,0.001000,0.001000,0.001000
1029.788462,0.041607,0.001000,0.001000,0.001000,0.001000,0.001000
1029.807692,0.040880,0.001000,0.001000,0.001000,0.001000,0.001000
1029.826923,0.040126,0.001000,0.001000,0.001000,0.001000,0.001000
1029.846154,0.039345,0.001000,0.001000,0.001000,0.001000,0.001000
1029.865385,0.038538,0.001000,0.001000,0.001000,0.001000,0.001000
1029.884615,0.037706,0.001000,0.001000,0.001000,0.001000,0.001000
1029.903846,0.036849,0.001000,0.001000,0.001000,0.001000,0.001000
1029.923077,0.035967,0.001000,0.001000,0.001000,0.001000,0.001000
1029.942308,0.035061,0.001000,0.001000,0.001000,0.001000,0.001000
1029.961538,0.034133,0.001000,0.001000,0.001000,0.001000,0.001000
1029.980769,0.033181,0.001000,0.001000,0.001000,0.001000,0.001000
1030.000000,0.000000,0.001000,0.001000,0.001000,0.001000,0.001000
1030.019231,0.001274,0.001000,0.001000,0.001000,0.001000,0.001000
1030.038462,0.002547,0.001000,0.001000,0.001000,0.001000,0.001000
1030.057692,0.003818,0.001000,0.001000,0.001000,0.001000,0.001000
1030.076923,0.005087,0.001000,0.001000,0.001000,0.001000,0.001000
1030.096154,0.006352,0.001000,0.001000,0.001000,0.001000,0.001000
1030.115385,0.007614,0.001000,0.001000,0.001000,0.001000,0.001000
1030.134615,0.008870,0.001000,0.001000,0.001000,0.001000,0.001000
1030.153846,0.010121,0.001000,0.001000,0.001000,0.001000,0.001000
1030.173077,0.011365,0.001000,0.001000,0.001000,0.001000,0.001000
1030.192308,0.012602,0.001000,0.001000,0.001000,0.001000,0.001000
1030.211538,0.013830,0.001000,0.001000,0.001000,0.001000,0.001000
1030.230769,0.015050,0.001000,0.001000,0.001000,0.001000,0.001000
1030.250000,0.016260,0.001000,0.001000,0.001000,0.001000,0.001000
1030.269231,0.017459,0.001000,0.001000,0.001000,0.001000,0.001000
1030.288462,0.018647,0.001000,0.001000,0.001000,0.001000,0.001000
1030.307692,0.019823,0.001000,0.001000,0.001000,0.001000,0.001000
1030.326923,0.020986,0.001000,0.001000,0.001000,0.001000,0.001000
1030.346154,0.022135,0.001000,0.001000,0.001000,0.001000,0.001000
1030.365385,0.023270,0.001000,0.001000,0.001000,0.001000,0.001000
1030.384615,0.024390,0.001000,0.001000,0.001000,0.001000,0.001000
1030.403846,0.025494,0.001000,0.001000,0.001000,0.001000,0.001000
1030.423077,0.026581,0.001000,0.001000,0.001000,0.001000,0.001000
1030.442308,0.027652,0.001000,0.001000,0.001000,0.001000,0.001000
1030.461538,0.028704,0.001000,0.001000,0.001000,0.001000,0.001000
1030.480769,0.029738,0.001000,0.001000,0.001000,0.001000,0.001000
1030.500000,0.030752,0.001000,0.001000,0.001000,0.001000,0.001000
1030.519231,0.031746,0.001000,0.001000,0.001000,0.001000,0.001000
1030.538462,0.032720,0.001000,0.001000,0.001000,0.001000,0.001000
1030.557692,0.033673,0.001000,0.001000,0.001000,0.001000,0.001000
1030.576923,0.034603,0.001000,0.001000,0.001000,0.001000,0.001000
1030.596154,0.035512,0.001000,0.001000,0.001000,0.001000,0.001000
1030.615385,0.036397,0.001000,0.001000,0.001000,0.001000,0.001000
1030.634615,0.037258,0.001000,0.001000,0.001000,0.001000,0.001000
1030.653846,0.038096,0.001000,0.001000,0.001000,0.001000,0.001000
1030.673077,0.038908,0.001000,0.001000,0.001000,0.001000,0.001000
1030.692308,0.039696,0.001000,0.001000,0.001000,0.001000,0.001000
1030.711538,0.040457,0.001000,0.001000,0.001000,0.001000,0.001000
1030.730769,0.041193,0.001000,0.001000,0.001000,0.001000,0.001000
1030.750000,0.041901,0.001000,0.001000,0.001000,0.001000,0.001000
1030.769231,0.042583,0.001000,0.001000,0.001000,0.001000,0.001000
1030.788462,0.043236,0.001000,0.001000,0.001000,0.001000,0.001000
1030.807692,0.043862,0.001000,0.001000,0.001000,0.001000,0.001000
1030.826923,0.044459,0.001000,0.001000,0.001000,0.001000,0.001000
1030.846154,0.045028,0.001000,0.001000,0.001000,0.001000,0.001000
1030.865385,0.045567,0.001000,0.001000,0.001000,0.001000,0.001000
1030.884615,0.046076,0.001000,0.001000,0.001000,0.001000,0.001000
1030.903846,0.046556,0.001000,0.001000,0.001000,0.001000,0.001000
1030.923077,0.047006,0.001000,0.001000,0.001000,0.001000,0.001000
1030.942308,0.047425,0.001000,0.001000,0.001000,0.001000,0.001000
1030.961538,0.047813,0.001000,0.001000,0.001000,0.001000,0.001000
1030.980769,0.048170,0.001000,0.001000,0.001000,0.001000,0.001000
1031.000000,0.048496,0.001000,0.001000,0.001000,0.001000,0.001000
1031.019231,0.048790,0.001000,0.001000,0.001000,0.001000,0.001000
1031.038462,0.049053,0.001000,0.001000,0.001000,0.001000,0.001000
1031.057692,0.049284,0.001000,0.001000,0.001000,0.001000,0.001000
1031.076923,0.049482,0.001000,0.001000,0.001000,0.001000,0.001000
1031.096154,0.049649,0.001000,0.001000,0.001000,0.001000,0.001000
1031.115385,0.049784,0.001000,0.001000,0.001000,0.001000,0.001000
1031.134615,0.049886,0.001000,0.001000,0.001000,0.001000,0.001000
1031.153846,0.049956,0.001000,0.001000,0.001000,0.001000,0.001000
1031.173077,0.049993,0.001000,0.001000,0.001000,0.001000,0.001000
1031.192308,0.049998,0.001000,0.001000,0.001000,0.001000,0.001000
1031.211538,0.049971,0.001000,0.001000,0.001000,0.001000,0.001000
1031.230769,0.049911,0.001000,0.001000,0.001000,0.001000,0.001000
1031.250000,0.049818,0.001000,0.001000,0.001000,0.001000,0.001000
1031.269231,0.049694,0.001000,0.001000,0.001000,0.001000,0.001000
1031.288462,0.049537,0.001000,0.001000,0.001000,0.001000,0.001000
1031.307692,0.049348,0.001000,0.001000,0.001000,0.001000,0.001000
1031.326923,0.049126,0.001000,0.001000,0.001000,0.001000,0.001000
1031.346154,0.048873,0.001000,0.001000,0.001000,0.001000,0.001000
1031.365385,0.048589,0.001000,0.001000,0.001000,0.001000,0.001000
1031.384615,0.048272,0.001000,0.001000,0.001000,0.001000,0.001000
1031.403846,0.047925,0.001000,0.001000,0.001000,0.001000,0.001000
1031.423077,0.047546,0.001000,0.001000,0.001000,0.001000,0.001000
1031.442308,0.047136,0.001000,0.001000,0.001000,0.001000,0.001000
1031.461538,0.046696,0.001000,0.001000,0.001000,0.001000,0.001000
1031.480769,0.046226,0.001000,0.001000,0.001000,0.001000,0.001000
1031.500000,0.045725,0.001000,0.001000,0.001000,0.001000,0.001000
1031.519231,0.045195,0.001000,0.001000,0.001000,0.001000,0.001000
1031.538462,0.044636,0.001000,0.001000,0.001000,0.001000,0.001000
1031.557692,0.044047,0.001000,0.001000,0.001000,0.001000,0.001000
1031.576923,0.043430,0.001000,0.001000,0.001000,0.001000,0.001000
1031.596154,0.042785,0.001000,0.001000,0.001000,0.001000,0.001000
1031.615385,0.042112,0.001000,0.001000,0.001000,0.001000,0.001000
1031.634615,0.041411,0.001000,0.001000,0.001000,0.001000,0.001000
1031.653846,0.040684,0.001000,0.001000,0.001000,0.001000,0.001000
1031.673077,0.039931,0.001000,0.001000,0.001000,0.001000,0.001000
1031.692308,0.039151,0.001000,0.001000,0.001000,0.001000,0.001000
1031.711538,0.038346,0.001000,0.001000,0.001000,0.001000,0.001000
1031.730769,0.037516,0.001000,0.001000,0.001000,0.001000,0.001000
1031.750000,0.036662,0.001000,0.001000,0.001000,0.001000,0.001000
1031.769231,0.035784,0.001000,0.001000,0.001000,0.001000,0.001000
1031.788462,0.034883,0.001000,0.001000,0.001000,0.001000,0.001000
1031.807692,0.033959,0.001000,0.001000,0.001000,0.001000,0.001000
1031.826923,0.033013,0.001000,0.001000,0.001000,0.001000,0.001000
1031.846154,0.032045,0.001000,0.001000,0.001000,0.001000,0.001000
1031.865385,0.031057,0.001000,0.001000,0.001000,0.001000,0.001000
1031.884615,0.030049,0.001000,0.001000,0.001000,0.001000,0.001000
1031.903846,0.029021,0.001000,0.001000,0.001000,0.001000,0.001000
1031.923077,0.027974,0.001000,0.001000,0.001000,0.001000,0.001000
1031.942308,0.026909,0.001000,0.001000,0.001000,0.001000,0.001000
1031.961538,0.025827,0.001000,0.001000,0.001000,0.001000,0.001000
1031.980769,0.024728,0.001000,0.001000,0.001000,0.001000,0.001000
1032.000000,0.023613,0.001000,0.001000,0.001000,0.001000,0.001000
1032.019231,0.022483,0.001000,0.001000,0.001000,0.001000,0.001000
1032.038462,0.021337,0.001000,0.001000,0.001000,0.001000,0.001000
1032.057692,0.020179,0.001000,0.001000,0.001000,0.001000,0.001000
1032.076923,0.019007,0.001000,0.001000,0.001000,0.001000,0.001000
1032.096154,0.017822,0.001000,0.001000,0.001000,0.001000,0.001000
1032.115385,0.016626,0.001000,0.001000,0.001000,0.001000,0.001000
1032.134615,0.015420,0.001000,0.001000,0.001000,0.001000,0.001000
1032.153846,0.014203,0.001000,0.001000,0.001000,0.001000,0.001000
1032.173077,0.012977,0.001000,0.001000,0.001000,0.001000,0.001000
1032.192308,0.011743,0.001000,0.001000,0.001000,0.001000,0.001000
1032.211538,0.010501,0.001000,0.001000,0.001000,0.001000,0.001000
1032.230769,0.009252,0.001000,0.001000,0.001000,0.001000,0.001000
1032.250000,0.007997,0.001000,0.001000,0.001000,0.001000,0.001000
1032.269231,0.006737,0.001000,0.001000,0.001000,0.001000,0.001000
1032.288462,0.005473,0.001000,0.001000,0.001000,0.001000,0.001000
1032.307692,0.004205,0.001000,0.001000,0.001000,0.001000,0.001000
1032.326923,0.002934,0.001000,0.001000,0.001000,0.001000,0.001000
1032.346154,0.001662,0.001000,0.001000,0.001000,0.001000,0.001000
1032.365385,0.000388,0.001000,0.001000,0.001000,0.001000,0.001000
1032.384615,-0.000886,0.001000,0.001000,0.001000,0.001000,0.001000
1032.403846,-0.002159,0.001000,0.001000,0.001000,0.001000,0.001000
1032.423077,-0.003431,0.001000,0.001000,0.001000,0.001000,0.001000
1032.442308,-0.004700,0.001000,0.001000,0.001000,0.001000,0.001000
1032.461538,-0.005967,0.001000,0.001000,0.001000,0.001000,0.001000
1032.480769,-0.007230,0.001000,0.001000,0.001000,0.001000,0.001000
1032.500000,-0.008488,0.001000,0.001000,0.001000,0.001000,0.001000
1032.519231,-0.009740,0.001000,0.001000,0.001000,0.001000,0.001000
1032.538462,-0.010987,0.001000,0.001000,0.001000,0.001000,0.001000
1032.557692,-0.012226,0.001000,0.001000,0.001000,0.001000,0.001000
1032.576923,-0.013457,0.001000,0.001000,0.001000,0.001000,0.001000
1032.596154,-0.014679,0.001000,0.001000,0.001000,0.001000,0.001000
1032.615385,-0.015892,0.001000,0.001000,0.001000,0.001000,0.001000
1032.634615,-0.017095,0.001000,0.001000,0.001000,0.001000,0.001000
1032.653846,-0.018286,0.001000,0.001000,0.001000,0.001000,0.001000
1032.673077,-0.019466,0.001000,0.001000,0.001000,0.001000,0.001000
1032.692308,-0.020633,0.001000,0.001000,0.001000,0.001000,0.001000
1032.711538,-0.021786,0.001000,0.001000,0.001000,0.001000,0.001000
1032.730769,-0.022926,0.001000,0.001000,0.001000,0.001000,0.001000
1032.750000,-0.024050,0.001000,0.001000,0.001000,0.001000,0.001000
1032.769231,-0.025159,0.001000,0.001000,0.001000,0.001000,0.001000
1032.788462,-0.026252,0.001000,0.001000,0.001000,0.001000,0.001000
1032.807692,-0.027327,0.001000,0.001000,0.001000,0.001000,0.001000
1032.826923,-0.028385,0.001000,0.001000,0.001000,0.001000,0.001000
1032.846154,-0.029425,0.001000,0.001000,0.001000,0.001000,0.001000
1032.865385,-0.030445,0.001000,0.001000,0.001000,0.001000,0.001000
1032.884615,-0.031445,0.001000,0.001000,0.001000,0.001000,0.001000
1032.903846,-0.032426,0.001000,0.001000,0.001000,0.001000,0.001000
1032.923077,-0.033385,0.001000,0.001000,0.001000,0.001000,0.001000
1032.942308,-0.034322,0.001000,0.001000,0.001000,0.001000,0.001000
1032.961538,-0.035237,0.001000,0.001000,0.001000,0.001000,0.001000
1032.980769,-0.036129,0.001000,0.001000,0.001000,0.001000,0.001000
1033.000000,-0.036998,0.001000,0.001000,0.001000,0.001000,0.001000
1033.019231,-0.037843,0.001000,0.001000,0.001000,0.001000,0.001000
1033.038462,-0.038663,0.001000,0.001000,0.001000,0.001000,0.001000
1033.057692,-0.039458,0.001000,0.001000,0.001000,0.001000,0.001000
1033.076923,-0.040228,0.001000,0.001000,0.001000,0.001000,0.001000
1033.096154,-0.040971,0.001000,0.001000,0.001000,0.001000,0.001000
1033.115385,-0.041688,0.001000,0.001000,0.001000,0.001000,0.001000
1033.134615,-0.042378,0.001000,0.001000,0.001000,0.001000,0.001000
1033.153846,-0.043040,0.001000,0.001000,0.001000,0.001000,0.001000
1033.173077,-0.043674,0.001000,0.001000,0.001000,0.001000,0.001000
1033.192308,-0.044280,0.001000,0.001000,0.001000,0.001000,0.001000
1033.211538,-0.044858,0.001000,0.001000,0.001000,0.001000,0.001000
1033.230769,-0.045406,0.001000,0.001000,0.001000,0.001000,0.001000
1033.250000,-0.045924,0.001000,0.001000,0.001000,0.001000,0.001000
1033.269231,-0.046413,0.001000,0.001000,0.001000,0.001000,0.001000
1033.288462,-0.046872,0.001000,0.001000,0.001000,0.001000,0.001000
1033.307692,-0.047300,0.001000,0.001000,0.001000,0.001000,0.001000
1033.326923,-0.047698,0.001000,0.001000,0.001000,0.001000,0.001000
1033.346154,-0.048064,0.001000,0.001000,0.001000,0.001000,0.001000
1033.365385,-0.048400,0.001000,0.001000,0.001000,0.001000,0.001000
1033.384615,-0.048704,0.001000,0.001000,0.001000,0.001000,0.001000
1033.403846,-0.048976,0.001000,0.001000,0.001000,0.001000,0.001000
1033.423077,-0.049217,0.001000,0.001000,0.001000,0.001000,0.001000
1033.442308,-0.049425,0.001000,0.001000,0.001000,0.001000,0.001000
1033.461538,-0.049602,0.001000,0.001000,0.001000,0.001000,0.001000
1033.480769,-0.049746,0.001000,0.001000,0.001000,0.001000,0.001000
1033.500000,-0.049858,0.001000,0.001000,0.001000,0.001000,0.001000
1033.519231,-0.049938,0.001000,0.001000,0.001000,0.001000,0.001000
1033.538462,-0.049985,0.001000,0.001000,0.001000,0.001000,0.001000
1033.557692,-0.050000,0.001000,0.001000,0.001000,0.001000,0.001000
1033.576923,-0.049982,0.001000,0.001000,0.001000,0.001000,0.001000
1033.596154,-0.049932,0.001000,0.001000,0.001000,0.001000,0.001000
1033.615385,-0.049850,0.001000,0.001000,0.001000,0.001000,0.001000
1033.634615,-0.049735,0.001000,0.001000,0.001000,0.001000,0.001000
1033.653846,-0.049588,0.001000,0.001000,0.001000,0.001000,0.001000
1033.673077,-0.049409,0.001000,0.001000,0.001000,0.001000,0.001000
1033.692308,-0.049197,0.001000,0.001000,0.001000,0.001000,0.001000
1033.711538,-0.048954,0.001000,0.001000,0.001000,0.001000,0.001000
1033.730769,-0.048679,0.001000,0.001000,0.001000,0.001000,0.001000
1033.750000,-0.048372,0.001000,0.001000,0.001000,0.001000,0.001000
1033.769231,-0.048034,0.001000,0.001000,0.001000,0.001000,0.001000
1033.788462,-0.047665,0.001000,0.001000,0.001000,0.001000,0.001000
1033.807692,-0.047265,0.001000,0.001000,0.001000,0.001000,0.001000
1033.826923,-0.046834,0.001000,0.001000,0.001000,0.001000,0.001000
1033.846154,-0.046372,0.001000,0.001000,0.001000,0.001000,0.001000
1033.865385,-0.045881,0.001000,0.001000,0.001000,0.001000,0.001000
1033.884615,-0.045360,0.001000,0.001000,0.001000,0.001000,0.001000
1033.903846,-0.044809,0.001000,0.001000,0.001000,0.001000,0.001000
1033.923077,-0.044230,0.001000,0.001000,0.001000,0.001000,0.001000
1033.942308,-0.043621,0.001000,0.001000,0.001000,0.001000,0.001000
1033.961538,-0.042984,0.001000,0.001000,0.001000,0.001000,0.001000
1033.980769,-0.042320,0.001000,0.001000,0.001000,0.001000,0.001000
1034.000000,-0.041628,0.001000,0.001000,0.001000,0.001000,0.001000
1034.019231,-0.040909,0.001000,0.001000,0.001000,0.001000,0.001000
1034.038462,-0.040163,0.001000,0.001000,0.001000,0.001000,0.001000
1034.057692,-0.039391,0.001000,0.001000,0.001000,0.001000,0.001000
1034.076923,-0.038594,0.001000,0.001000,0.001000,0.001000,0.001000
1034.096154,-0.037772,0.001000,0.001000,0.001000,0.001000,0.001000
1034.115385,-0.036925,0.001000,0.001000,0.001000,0.001000,0.001000
1034.134615,-0.036054,0.001000,0.001000,0.001000,0.001000,0.001000
1034.153846,-0.035160,0.001000,0.001000,0.001000,0.001000,0.001000
1034.173077,-0.034243,0.001000,0.001000,0.001000,0.001000,0.001000
1034.192308,-0.033303,0.001000,0.001000,0.001000,0.001000,0.001000
1034.211538,-0.032342,0.001000,0.001000,0.001000,0.001000,0.001000
1034.230769,-0.031360,0.001000,0.001000,0.001000,0.001000,0.001000
1034.250000,-0.030358,0.001000,0.001000,0.001000,0.001000,0.001000
1034.269231,-0.029336,0.001000,0.001000,0.001000,0.001000,0.001000
1034.288462,-0.028295,0.001000,0.001000,0.001000,0.001000,0.001000
1034.307692,-0.027236,0.001000,0.001000,0.001000,0.001000,0.001000
1034.326923,-0.026159,0.001000,0.001000,0.001000,0.001000,0.001000
1034.346154,-0.025065,0.001000,0.001000,0.001000,0.001000,0.001000
1034.365385,-0.023954,0.001000,0.001000,0.001000,0.001000,0.001000
1034.384615,-0.022829,0.001000,0.001000,0.001000,0.001000,0.001000
1034.403846,-0.021688,0.001000,0.001000,0.001000,0.001000,0.001000
1034.423077,-0.020533,0.001000,0.001000,0.001000,0.001000,0.001000
1034.442308,-0.019365,0.001000,0.001000,0.001000,0.001000,0.001000
1034.461538,-0.018184,0.001000,0.001000,0.001000,0.001000,0.001000
1034.480769,-0.016992,0.001000,0.001000,0.001000,0.001000,0.001000
1034.500000,-0.015789,0.001000,0.001000,0.001000,0.001000,0.001000
1034.519231,-0.014575,0.001000,0.001000,0.001000,0.001000,0.001000
1034.538462,-0.013352,0.001000,0.001000,0.001000,0.001000,0.001000
1034.557692,-0.012120,0.001000,0.001000,0.001000,0.001000,0.001000
1034.576923,-0.010880,0.001000,0.001000,0.001000,0.001000,0.001000
1034.596154,-0.009633,0.001000,0.001000,0.001000,0.001000,0.001000
1034.615385,-0.008380,0.001000,0.001000,0.001000,0.001000,0.001000
1034.634615,-0.007122,0.001000,0.001000,0.001000,0.001000,0.001000
1034.653846,-0.005859,0.001000,0.001000,0.001000,0.001000,0.001000
1034.673077,-0.004592,0.001000,0.001000,0.001000,0.001000,0.001000
