timestamp,ax,ay,az,gx,gy,gz
1000.000000,0.000000,0.001000,0.001000,0.001000,0.001000,0.001000
1000.019231,0.001432,0.001000,0.001000,0.001000,0.001000,0.001000
1000.038462,0.002864,0.001000,0.001000,0.001000,0.001000,0.001000
1000.057692,0.004293,0.001000,0.001000,0.001000,0.001000,0.001000
1000.076923,0.005718,0.001000,0.001000,0.001000,0.001000,0.001000
1000.096154,0.007139,0.001000,0.001000,0.001000,0.001000,0.001000
1000.115385,0.008553,0.001000,0.001000,0.001000,0.001000,0.001000
1000.134615,0.009961,0.001000,0.001000,0.001000,0.001000,0.001000
1000.153846,0.011361,0.001000,0.001000,0.001000,0.001000,0.001000
1000.173077,0.012751,0.001000,0.001000,0.001000,0.001000,0.001000
1000.192308,0.014131,0.001000,0.001000,0.001000,0.001000,0.001000
1000.211538,0.015499,0.001000,0.001000,0.001000,0.001000,0.001000
1000.230769,0.016855,0.001000,0.001000,0.001000,0.001000,0.001000
1000.250000,0.018196,0.001000,0.001000,0.001000,0.001000,0.001000
1000.269231,0.019523,0.001000,0.001000,0.001000,0.001000,0.001000
1000.288462,0.020834,0.001000,0.001000,0.001000,0.001000,0.001000
1000.307692,0.022127,0.001000,0.001000,0.001000,0.001000,0.001000
1000.326923,0.023403,0.001000,0.001000,0.001000,0.001000,0.001000
1000.346154,0.024659,0.001000,0.001000,0.001000,0.001000,0.001000
1000.365385,0.025895,0.001000,0.001000,0.001000,0.001000,0.001000
1000.384615,0.027110,0.001000,0.001000,0.001000,0.001000,0.001000
1000.403846,0.028302,0.001000,0.001000,0.001000,0.001000,0.001000
1000.423077,0.029471,0.001000,0.001000,0.001000,0.001000,0.001000
1000.442308,0.030616,0.001000,0.001000,0.001000,0.001000,0.001000
1000.461538,0.031736,0.001000,0.001000,0.001000,0.001000,0.001000
1000.480769,0.032830,0.001000,0.001000,0.001000,0.001000,0.001000
1000.500000,0.033897,0.001000,0.001000,0.001000,0.001000,0.001000
1000.519231,0.034936,0.001000,0.001000,0.001000,0.001000,0.001000
1000.538462,0.035946,0.001000,0.001000,0.001000,0.001000,0.001000
1000.557692,0.036927,0.001000,0.001000,0.001000,0.001000,0.001000
1000.576923,0.037878,0.001000,0.001000,0.001000,0.001000,0.001000
1000.596154,0.038797,0.001000,0.001000,0.001000,0.001000,0.001000
1000.615385,0.039685,0.001000,0.001000,0.001000,0.001000,0.001000
1000.634615,0.040540,0.001000,0.001000,0.001000,0.001000,0.001000
1000.653846,0.041362,0.001000,0.001000,0.001000,0.001000,0.001000
1000.673077,0.042150,0.001000,0.001000,0.001000,0.001000,0.001000
1000.692308,0.042903,0.001000,0.001000,0.001000,0.001000,0.001000
1000.711538,0.043621,0.001000,0.001000,0.001000,0.001000,0.001000
1000.730769,0.044303,0.001000,0.001000,0.001000,0.001000,0.001000
1000.750000,0.044949,0.001000,0.001000,0.001000,0.001000,0.001000
1000.769231,0.045558,0.001000,0.001000,0.001000,0.001000,0.001000
1000.788462,0.046129,0.001000,0.001000,0.001000,0.001000,0.001000
1000.807692,0.046663,0.001000,0.001000,0.001000,0.001000,0.001000
1000.826923,0.047158,0.001000,0.001000,0.001000,0.001000,0.001000
1000.846154,0.047615,0.001000,0.001000,0.001000,0.001000,0.001000
1000.865385,0.048033,0.001000,0.001000,0.001000,0.001000,0.001000
1000.884615,0.048411,0.001000,0.001000,0.001000,0.001000,0.001000
1000.903846,0.048749,0.001000,0.001000,0.001000,0.001000,0.001000
1000.923077,0.049048,0.001000,0.001000,0.001000,0.001000,0.001000
1000.942308,0.049306,0.001000,0.001000,0.001000,0.001000,0.001000
1000.961538,0.049523,0.001000,0.001000,0.001000,0.001000,0.001000
1000.980769,0.049700,0.001000,0.001000,0.001000,0.001000,0.001000
1001.000000,0.049837,0.001000,0.001000,0.001000,0.001000,0.001000
1001.019231,0.049932,0.001000,0.001000,0.001000,0.001000,0.001000
1001.038462,0.049986,0.001000,0.001000,0.001000,0.001000,0.001000
1001.057692,0.049999,0.001000,0.001000,0.001000,0.001000,0.001000
1001.076923,0.049972,0.001000,0.001000,0.001000,0.001000,0.001000
1001.096154,0.049903,0.001000,0.001000,0.001000,0.001000,0.001000
1001.115385,0.049793,0.001000,0.001000,0.001000,0.001000,0.001000
1001.134615,0.049642,0.001000,0.001000,0.001000,0.001000,0.001000
1001.153846,0.049451,0.001000,0.001000,0.001000,0.001000,0.001000
1001.173077,0.049219,0.001000,0.001000,0.001000,0.001000,0.001000
1001.192308,0.048947,0.001000,0.001000,0.001000,0.001000,0.001000
1001.211538,0.048634,0.001000,0.001000,0.001000,0.001000,0.001000
1001.230769,0.048282,0.001000,0.001000,0.001000,0.001000,0.001000
1001.250000,0.047889,0.001000,0.001000,0.001000,0.001000,0.001000
1001.269231,0.047458,0.001000,0.001000,0.001000,0.001000,0.001000
1001.288462,0.046988,0.001000,0.001000,0.001000,0.001000,0.001000
1001.307692,0.046479,0.001000,0.001000,0.001000,0.001000,0.001000
1001.326923,0.045932,0.001000,0.001000,0.001000,0.001000,0.001000
1001.346154,0.045347,0.001000,0.001000,0.001000,0.001000,0.001000
1001.365385,0.044725,0.001000,0.001000,0.001000,0.001000,0.001000
1001.384615,0.044066,0.001000,0.001000,0.001000,0.001000,0.001000
1001.403846,0.043371,0.001000,0.001000,0.001000,0.001000,0.001000
1001.423077,0.042640,0.001000,0.001000,0.001000,0.001000,0.001000
1001.442308,0.041875,0.001000,0.001000,0.001000,0.001000,0.001000
1001.461538,0.041075,0.001000,0.001000,0.001000,0.001000,0.001000
1001.480769,0.040241,0.001000,0.001000,0.001000,0.001000,0.001000
1001.500000,0.039375,0.001000,0.001000,0.001000,0.001000,0.001000
1001.519231,0.038476,0.001000,0.001000,0.001000,0.001000,0.001000
1001.538462,0.037545,0.001000,0.001000,0.001000,0.001000,0.001000
1001.557692,0.036584,0.001000,0.001000,0.001000,0.001000,0.001000
1001.576923,0.035592,0.001000,0.001000,0.001000,0.001000,0.001000
1001.596154,0.034572,0.001000,0.001000,0.001000,0.001000,0.001000
1001.615385,0.033523,0.001000,0.001000,0.001000,0.001000,0.001000
1001.634615,0.032446,0.001000,0.001000,0.001000,0.001000,0.001000
1001.653846,0.031343,0.001000,0.001000,0.001000,0.001000,0.001000
1001.673077,0.030214,0.001000,0.001000,0.001000,0.001000,0.001000
1001.692308,0.029060,0.001000,0.001000,0.001000,0.001000,0.001000
1001.711538,0.027883,0.001000,0.001000,0.001000,0.001000,0.001000
1001.730769,0.026682,0.001000,0.001000,0.001000,0.001000,0.001000
1001.750000,0.025460,0.001000,0.001000,0.001000,0.001000,0.001000
1001.769231,0.024217,0.001000,0.001000,0.001000,0.001000,0.001000
1001.788462,0.022954,0.001000,0.001000,0.001000,0.001000,0.001000
1001.807692,0.021672,0.001000,0.001000,0.001000,0.001000,0.001000
1001.826923,0.020372,0.001000,0.001000,0.001000,0.001000,0.001000
1001.846154,0.019055,0.001000,0.001000,0.001000,0.001000,0.001000
1001.865385,0.017723,0.001000,0.001000,0.001000,0.001000,0.001000
1001.884615,0.016377,0.001000,0.001000,0.001000,0.001000,0.001000
1001.903846,0.015016,0.001000,0.001000,0.001000,0.001000,0.001000
1001.923077,0.013644,0.001000,0.001000,0.001000,0.001000,0.001000
1001.942308,0.012260,0.001000,0.001000,0.001000,0.001000,0.001000
1001.961538,0.010867,0.001000,0.001000,0.001000,0.001000,0.001000
1001.980769,0.009464,0.001000,0.001000,0.001000,0.001000,0.001000
1002.000000,0.008054,0.001000,0.001000,0.001000,0.001000,0.001000
1002.019231,0.006637,0.001000,0.001000,0.001000,0.001000,0.001000
1002.038462,0.005214,0.001000,0.001000,0.001000,0.001000,0.001000
1002.057692,0.003787,0.001000,0.001000,0.001000,0.001000,0.001000
1002.076923,0.002358,0.001000,0.001000,0.001000,0.001000,0.001000
1002.096154,0.000926,0.001000,0.001000,0.001000,0.001000,0.001000
1002.115385,-0.000507,0.001000,0.001000,0.001000,0.001000,0.001000
1002.134615,-0.001939,0.001000,0.001000,0.001000,0.001000,0.001000
1002.153846,-0.003369,0.001000,0.001000,0.001000,0.001000,0.001000
1002.173077,-0.004797,0.001000,0.001000,0.001000,0.001000,0.001000
1002.192308,-0.006221,0.001000,0.001000,0.001000,0.001000,0.001000
1002.211538,-0.007640,0.001000,0.001000,0.001000,0.001000,0.001000
1002.230769,-0.009052,0.001000,0.001000,0.001000,0.001000,0.001000
1002.250000,-0.010457,0.001000,0.001000,0.001000,0.001000,0.001000
1002.269231,-0.011854,0.001000,0.001000,0.001000,0.001000,0.001000
1002.288462,-0.013240,0.001000,0.001000,0.001000,0.001000,0.001000
1002.307692,-0.014616,0.001000,0.001000,0.001000,0.001000,0.001000
1002.326923,-0.015980,0.001000,0.001000,0.001000,0.001000,0.001000
1002.346154,-0.017331,0.001000,0.001000,0.001000,0.001000,0.001000
1002.365385,-0.018667,0.001000,0.001000,0.001000,0.001000,0.001000
1002.384615,-0.019988,0.001000,0.001000,0.001000,0.001000,0.001000
1002.403846,-0.021293,0.001000,0.001000,0.001000,0.001000,0.001000
1002.423077,-0.022580,0.001000,0.001000,0.001000,0.001000,0.001000
1002.442308,-0.023849,0.001000,0.001000,0.001000,0.001000,0.001000
1002.461538,-0.025098,0.001000,0.001000,0.001000,0.001000,0.001000
1002.480769,-0.026327,0.001000,0.001000,0.001000,0.001000,0.001000
1002.500000,-0.027534,0.001000,0.001000,0.001000,0.001000,0.001000
1002.519231,-0.028718,0.001000,0.001000,0.001000,0.001000,0.001000
1002.538462,-0.029879,0.001000,0.001000,0.001000,0.001000,0.001000
1002.557692,-0.031015,0.001000,0.001000,0.001000,0.001000,0.001000
1002.576923,-0.032126,0.001000,0.001000,0.001000,0.001000,0.001000
1002.596154,-0.033211,0.001000,0.001000,0.001000,0.001000,0.001000
1002.615385,-0.034268,0.001000,0.001000,0.001000,0.001000,0.001000
1002.634615,-0.035297,0.001000,0.001000,0.001000,0.001000,0.001000
1002.653846,-0.036297,0.001000,0.001000,0.001000,0.001000,0.001000
1002.673077,-0.037267,0.001000,0.001000,0.001000,0.001000,0.001000
1002.692308,-0.038207,0.001000,0.001000,0.001000,0.001000,0.001000
1002.711538,-0.039115,0.001000,0.001000,0.001000,0.001000,0.001000
1002.730769,-0.039991,0.001000,0.001000,0.001000,0.001000,0.001000
1002.750000,-0.040835,0.001000,0.001000,0.001000,0.001000,0.001000
1002.769231,-0.041644,0.001000,0.001000,0.001000,0.001000,0.001000
1002.788462,-0.042420,0.001000,0.001000,0.001000,0.001000,0.001000
1002.807692,-0.043161,0.001000,0.001000,0.001000,0.001000,0.001000
1002.826923,-0.043866,0.001000,0.001000,0.001000,0.001000,0.001000
1002.846154,-0.044536,0.001000,0.001000,0.001000,0.001000,0.001000
1002.865385,-0.045169,0.001000,0.001000,0.001000,0.001000,0.001000
1002.884615,-0.045764,0.001000,0.001000,0.001000,0.001000,0.001000
1002.903846,-0.046323,0.001000,0.001000,0.001000,0.001000,0.001000
1002.923077,-0.046843,0.001000,0.001000,0.001000,0.001000,0.001000
1002.942308,-0.047324,0.001000,0.001000,0.001000,0.001000,0.001000
1002.961538,-0.047767,0.001000,0.001000,0.001000,0.001000,0.001000
1002.980769,-0.048171,0.001000,0.001000,0.001000,0.001000,0.001000
1003.000000,-0.048535,0.001000,0.001000,0.001000,0.001000,0.001000
1003.019231,-0.048859,0.001000,0.001000,0.001000,0.001000,0.001000
1003.038462,-0.049143,0.001000,0.001000,0.001000,0.001000,0.001000
1003.057692,-0.049387,0.001000,0.001000,0.001000,0.001000,0.001000
1003.076923,-0.049591,0.001000,0.001000,0.001000,0.001000,0.001000
1003.096154,-0.049753,0.001000,0.001000,0.001000,0.001000,0.001000
1003.115385,-0.049875,0.001000,0.001000,0.001000,0.001000,0.001000
1003.134615,-0.049956,0.001000,0.001000,0.001000,0.001000,0.001000
1003.153846,-0.049995,0.001000,0.001000,0.001000,0.001000,0.001000
1003.173077,-0.049994,0.001000,0.001000,0.001000,0.001000,0.001000
1003.192308,-0.049952,0.001000,0.001000,0.001000,0.001000,0.001000
1003.211538,-0.049869,0.001000,0.001000,0.001000,0.001000,0.001000
1003.230769,-0.049744,0.001000,0.001000,0.001000,0.001000,0.001000
1003.250000,-0.049579,0.001000,0.001000,0.001000,0.001000,0.001000
1003.269231,-0.049374,0.001000,0.001000,0.001000,0.001000,0.001000
1003.288462,-0.049127,0.001000,0.001000,0.001000,0.001000,0.001000
1003.307692,-0.048841,0.001000,0.001000,0.001000,0.001000,0.001000
1003.326923,-0.048514,0.001000,0.001000,0.001000,0.001000,0.001000
1003.346154,-0.048147,0.001000,0.001000,0.001000,0.001000,0.001000
1003.365385,-0.047741,0.001000,0.001000,0.001000,0.001000,0.001000
1003.384615,-0.047296,0.001000,0.001000,0.001000,0.001000,0.001000
1003.403846,-0.046812,0.001000,0.001000,0.001000,0.001000,0.001000
1003.423077,-0.046289,0.001000,0.001000,0.001000,0.001000,0.001000
1003.442308,-0.045729,0.001000,0.001000,0.001000,0.001000,0.001000
1003.461538,-0.045131,0.001000,0.001000,0.001000,0.001000,0.001000
1003.480769,-0.044496,0.001000,0.001000,0.001000,0.001000,0.001000
1003.500000,-0.043824,0.001000,0.001000,0.001000,0.001000,0.001000
1003.519231,-0.043117,0.001000,0.001000,0.001000,0.001000,0.001000
1003.538462,-0.042374,0.001000,0.001000,0.001000,0.001000,0.001000
1003.557692,-0.041596,0.001000,0.001000,0.001000,0.001000,0.001000
1003.576923,-0.040784,0.001000,0.001000,0.001000,0.001000,0.001000
1003.596154,-0.039938,0.001000,0.001000,0.001000,0.001000,0.001000
1003.615385,-0.039060,0.001000,0.001000,0.001000,0.001000,0.001000
1003.634615,-0.038150,0.001000,0.001000,0.001000,0.001000,0.001000
1003.653846,-0.037209,0.001000,0.001000,0.001000,0.001000,0.001000
1003.673077,-0.036236,0.001000,0.001000,0.001000,0.001000,0.001000
1003.692308,-0.035235,0.001000,0.001000,0.001000,0.001000,0.001000
1003.711538,-0.034204,0.001000,0.001000,0.001000,0.001000,0.001000
1003.730769,-0.033145,0.001000,0.001000,0.001000,0.001000,0.001000
1003.750000,-0.032059,0.001000,0.001000,0.001000,0.001000,0.001000
1003.769231,-0.030946,0.001000,0.001000,0.001000,0.001000,0.001000
1003.788462,-0.029809,0.001000,0.001000,0.001000,0.001000,0.001000
1003.807692,-0.028646,0.001000,0.001000,0.001000,0.001000,0.001000
1003.826923,-0.027461,0.001000,0.001000,0.001000,0.001000,0.001000
1003.846154,-0.026252,0.001000,0.001000,0.001000,0.001000,0.001000
1003.865385,-0.025023,0.001000,0.001000,0.001000,0.001000,0.001000
1003.884615,-0.023772,0.001000,0.001000,0.001000,0.001000,0.001000
1003.903846,-0.022502,0.001000,0.001000,0.001000,0.001000,0.001000
1003.923077,-0.021214,0.001000,0.001000,0.001000,0.001000,0.001000
1003.942308,-0.019908,0.001000,0.001000,0.001000,0.001000,0.001000
1003.961538,-0.018586,0.001000,0.001000,0.001000,0.001000,0.001000
1003.980769,-0.017248,0.001000,0.001000,0.001000,0.001000,0.001000
1004.000000,-0.015897,0.001000,0.001000,0.001000,0.001000,0.001000
1004.019231,-0.014532,0.001000,0.001000,0.001000,0.001000,0.001000
1004.038462,-0.013156,0.001000,0.001000,0.001000,0.001000,0.001000
1004.057692,-0.011768,0.001000,0.001000,0.001000,0.001000,0.001000
1004.076923,-0.010371,0.001000,0.001000,0.001000,0.001000,0.001000
1004.096154,-0.008966,0.001000,0.001000,0.001000,0.001000,0.001000
1004.115385,-0.007553,0.001000,0.001000,0.001000,0.001000,0.001000
1004.134615,-0.006134,0.001000,0.001000,0.001000,0.001000,0.001000
1004.153846,-0.004710,0.001000,0.001000,0.001000,0.001000,0.001000
1004.173077,-0.003282,0.001000,0.001000,0.001000,0.001000,0.001000
1004.192308,-0.001851,0.001000,0.001000,0.001000,0.001000,0.001000
1004.211538,-0.000419,0.001000,0.001000,0.001000,0.001000,0.001000
1004.230769,0.001013,0.001000,0.001000,0.001000,0.001000,0.001000
1004.250000,0.002445,0.001000,0.001000,0.001000,0.001000,0.001000
1004.269231,0.003875,0.001000,0.001000,0.001000,0.001000,0.001000
1004.288462,0.005301,0.001000,0.001000,0.001000,0.001000,0.001000
1004.307692,0.006724,0.001000,0.001000,0.001000,0.001000,0.001000
1004.326923,0.008140,0.001000,0.001000,0.001000,0.001000,0.001000
1004.346154,0.009550,0.001000,0.001000,0.001000,0.001000,0.001000
1004.365385,0.010952,0.001000,0.001000,0.001000,0.001000,0.001000
1004.384615,0.012345,0.001000,0.001000,0.001000,0.001000,0.001000
1004.403846,0.013728,0.001000,0.001000,0.001000,0.001000,0.001000
1004.423077,0.015100,0.001000,0.001000,0.001000,0.001000,0.001000
1004.442308,0.016459,0.001000,0.001000,0.001000,0.001000,0.001000
1004.461538,0.017805,0.001000,0.001000,0.001000,0.001000,0.001000
1004.480769,0.019136,0.001000,0.001000,0.001000,0.001000,0.001000
1004.500000,0.020452,0.001000,0.001000,0.001000,0.001000,0.001000
1004.519231,0.021751,0.001000,0.001000,0.001000,0.001000,0.001000
1004.538462,0.023031,0.001000,0.001000,0.001000,0.001000,0.001000
1004.557692,0.024293,0.001000,0.001000,0.001000,0.001000,0.001000
1004.576923,0.025535,0.001000,0.001000,0.001000,0.001000,0.001000
1004.596154,0.026756,0.001000,0.001000,0.001000,0.001000,0.001000
1004.615385,0.027956,0.001000,0.001000,0.001000,0.001000,0.001000
1004.634615,0.029132,0.001000,0.001000,0.001000,0.001000,0.001000
1004.653846,0.030284,0.001000,0.001000,0.001000,0.001000,0.001000
1004.673077,0.031411,0.001000,0.001000,0.001000,0.001000,0.001000
1004.692308,0.032513,0.001000,0.001000,0.001000,0.001000,0.001000
1004.711538,0.033588,0.001000,0.001000,0.001000,0.001000,0.001000
1004.730769,0.034635,0.001000,0.001000,0.001000,0.001000,0.001000
1004.750000,0.035654,0.001000,0.001000,0.001000,0.001000,0.001000
1004.769231,0.036643,0.001000,0.001000,0.001000,0.001000,0.001000
1004.788462,0.037603,0.001000,0.001000,0.001000,0.001000,0.001000
1004.807692,0.038532,0.001000,0.001000,0.001000,0.001000,0.001000
1004.826923,0.039429,0.001000,0.001000,0.001000,0.001000,0.001000
1004.846154,0.040293,0.001000,0.001000,0.001000,0.001000,0.001000
1004.865385,0.041125,0.001000,0.001000,0.001000,0.001000,0.001000
1004.884615,0.041923,0.001000,0.001000,0.001000,0.001000,0.001000
1004.903846,0.042686,0.001000,0.001000,0.001000,0.001000,0.001000
1004.923077,0.043415,0.001000,0.001000,0.001000,0.001000,0.001000
1004.942308,0.044107,0.001000,0.001000,0.001000,0.001000,0.001000
1004.961538,0.044764,0.001000,0.001000,0.001000,0.001000,0.001000
1004.980769,0.045384,0.001000,0.001000,0.001000,0.001000,0.001000
1005.000000,0.045966,0.001000,0.001000,0.001000,0.001000,0.001000
1005.019231,0.046511,0.001000,0.001000,0.001000,0.001000,0.001000
1005.038462,0.047018,0.001000,0.001000,0.001000,0.001000,0.001000
1005.057692,0.047486,0.001000,0.001000,0.001000,0.001000,0.001000
1005.076923,0.047915,0.001000,0.001000,0.001000,0.001000,0.001000
1005.096154,0.048304,0.001000,0.001000,0.001000,0.001000,0.001000
1005.115385,0.048654,0.001000,0.001000,0.001000,0.001000,0.001000
1005.134615,0.048964,0.001000,0.001000,0.001000,0.001000,0.001000
1005.153846,0.049234,0.001000,0.001000,0.001000,0.001000,0.001000
1005.173077,0.049464,0.001000,0.001000,0.001000,0.001000,0.001000
1005.192308,0.049653,0.001000,0.001000,0.001000,0.001000,0.001000
1005.211538,0.049801,0.001000,0.001000,0.001000,0.001000,0.001000
1005.230769,0.049908,0.001000,0.001000,0.001000,0.001000,0.001000
1005.250000,0.049974,0.001000,0.001000,0.001000,0.001000,0.001000
1005.269231,0.050000,0.001000,0.001000,0.001000,0.001000,0.001000
1005.288462,0.049984,0.001000,0.001000,0.001000,0.001000,0.001000
1005.307692,0.049927,0.001000,0.001000,0.001000,0.001000,0.001000
1005.326923,0.049829,0.001000,0.001000,0.001000,0.001000,0.001000
1005.346154,0.049691,0.001000,0.001000,0.001000,0.001000,0.001000
1005.365385,0.049511,0.001000,0.001000,0.001000,0.001000,0.001000
1005.384615,0.049291,0.001000,0.001000,0.001000,0.001000,0.001000
1005.403846,0.049030,0.001000,0.001000,0.001000,0.001000,0.001000
1005.423077,0.048730,0.001000,0.001000,0.001000,0.001000,0.001000
1005.442308,0.048389,0.001000,0.001000,0.001000,0.001000,0.001000
1005.461538,0.048008,0.001000,0.001000,0.001000,0.001000,0.001000
1005.480769,0.047588,0.001000,0.001000,0.001000,0.001000,0.001000
1005.500000,0.047129,0.001000,0.001000,0.001000,0.001000,0.001000
1005.519231,0.046631,0.001000,0.001000,0.001000,0.001000,0.001000
1005.538462,0.046095,0.001000,0.001000,0.001000,0.001000,0.001000
1005.557692,0.045522,0.001000,0.001000,0.001000,0.001000,0.001000
1005.576923,0.044910,0.001000,0.001000,0.001000,0.001000,0.001000
1005.596154,0.044262,0.001000,0.001000,0.001000,0.001000,0.001000
1005.615385,0.043578,0.001000,0.001000,0.001000,0.001000,0.001000
1005.634615,0.042858,0.001000,0.001000,0.001000,0.001000,0.001000
1005.653846,0.042102,0.001000,0.001000,0.001000,0.001000,0.001000
1005.673077,0.041312,0.001000,0.001000,0.001000,0.001000,0.001000
1005.692308,0.040489,0.001000,0.001000,0.001000,0.001000,0.001000
1005.711538,0.039632,0.001000,0.001000,0.001000,0.001000,0.001000
1005.730769,0.038742,0.001000,0.001000,0.001000,0.001000,0.001000
1005.750000,0.037821,0.001000,0.001000,0.001000,0.001000,0.001000
1005.769231,0.036868,0.001000,0.001000,0.001000,0.001000,0.001000
1005.788462,0.035885,0.001000,0.001000,0.001000,0.001000,0.001000
1005.807692,0.034873,0.001000,0.001000,0.001000,0.001000,0.001000
1005.826923,0.033832,0.001000,0.001000,0.001000,0.001000,0.001000
1005.846154,0.032764,0.001000,0.001000,0.001000,0.001000,0.001000
1005.865385,0.031668,0.001000,0.001000,0.001000,0.001000,0.001000
1005.884615,0.030547,0.001000,0.001000,0.001000,0.001000,0.001000
1005.903846,0.029400,0.001000,0.001000,0.001000,0.001000,0.001000
1005.923077,0.028230,0.001000,0.001000,0.001000,0.001000,0.001000
1005.942308,0.027036,0.001000,0.001000,0.001000,0.001000,0.001000
1005.961538,0.025820,0.001000,0.001000,0.001000,0.001000,0.001000
1005.980769,0.024582,0.001000,0.001000,0.001000,0.001000,0.001000
1006.000000,0.023325,0.001000,0.001000,0.001000,0.001000,0.001000
1006.019231,0.022049,0.001000,0.001000,0.001000,0.001000,0.001000
1006.038462,0.020754,0.001000,0.001000,0.001000,0.001000,0.001000
1006.057692,0.019442,0.001000,0.001000,0.001000,0.001000,0.001000
1006.076923,0.018114,0.001000,0.001000,0.001000,0.001000,0.001000
1006.096154,0.016772,0.001000,0.001000,0.001000,0.001000,0.001000
1006.115385,0.015416,0.001000,0.001000,0.001000,0.001000,0.001000
1006.134615,0.014047,0.001000,0.001000,0.001000,0.001000,0.001000
1006.153846,0.012666,0.001000,0.001000,0.001000,0.001000,0.001000
1006.173077,0.011275,0.001000,0.001000,0.001000,0.001000,0.001000
1006.192308,0.009875,0.001000,0.001000,0.001000,0.001000,0.001000
1006.211538,0.008467,0.001000,0.001000,0.001000,0.001000,0.001000
1006.230769,0.007052,0.001000,0.001000,0.001000,0.001000,0.001000
1006.250000,0.005631,0.001000,0.001000,0.001000,0.001000,0.001000
1006.269231,0.004205,0.001000,0.001000,0.001000,0.001000,0.001000
1006.288462,0.002776,0.001000,0.001000,0.001000,0.001000,0.001000
1006.307692,0.001345,0.001000,0.001000,0.001000,0.001000,0.001000
1006.326923,-0.000088,0.001000,0.001000,0.001000,0.001000,0.001000
1006.346154,-0.001520,0.001000,0.001000,0.001000,0.001000,0.001000
1006.365385,-0.002951,0.001000,0.001000,0.001000,0.001000,0.001000
1006.384615,-0.004380,0.001000,0.001000,0.001000,0.001000,0.001000
1006.403846,-0.005805,0.001000,0.001000,0.001000,0.001000,0.001000
1006.423077,-0.007225,0.001000,0.001000,0.001000,0.001000,0.001000
1006.442308,-0.008640,0.001000,0.001000,0.001000,0.001000,0.001000
1006.461538,-0.010047,0.001000,0.001000,0.001000,0.001000,0.001000
1006.480769,-0.011446,0.001000,0.001000,0.001000,0.001000,0.001000
1006.500000,-0.012836,0.001000,0.001000,0.001000,0.001000,0.001000
1006.519231,-0.014215,0.001000,0.001000,0.001000,0.001000,0.001000
1006.538462,-0.015582,0.001000,0.001000,0.001000,0.001000,0.001000
1006.557692,-0.016937,0.001000,0.001000,0.001000,0.001000,0.001000
1006.576923,-0.018278,0.001000,0.001000,0.001000,0.001000,0.001000
1006.596154,-0.019604,0.001000,0.001000,0.001000,0.001000,0.001000
1006.615385,-0.020913,0.001000,0.001000,0.001000,0.001000,0.001000
1006.634615,-0.022206,0.001000,0.001000,0.001000,0.001000,0.001000
1006.653846,-0.023480,0.001000,0.001000,0.001000,0.001000,0.001000
1006.673077,-0.024735,0.001000,0.001000,0.001000,0.001000,0.001000
1006.692308,-0.025970,0.001000,0.001000,0.001000,0.001000,0.001000
1006.711538,-0.027183,0.001000,0.001000,0.001000,0.001000,0.001000
1006.730769,-0.028374,0.001000,0.001000,0.001000,0.001000,0.001000
1006.750000,-0.029542,0.001000,0.001000,0.001000,0.001000,0.001000
1006.769231,-0.030686,0.001000,0.001000,0.001000,0.001000,0.001000
1006.788462,-0.031804,0.001000,0.001000,0.001000,0.001000,0.001000
1006.807692,-0.032896,0.001000,0.001000,0.001000,0.001000,0.001000
1006.826923,-0.033961,0.001000,0.001000,0.001000,0.001000,0.001000
1006.846154,-0.034999,0.001000,0.001000,0.001000,0.001000,0.001000
1006.865385,-0.036007,0.001000,0.001000,0.001000,0.001000,0.001000
1006.884615,-0.036986,0.001000,0.001000,0.001000,0.001000,0.001000
1006.903846,-0.037935,0.001000,0.001000,0.001000,0.001000,0.001000
1006.923077,-0.038853,0.001000,0.001000,0.001000,0.001000,0.001000
1006.942308,-0.039738,0.001000,0.001000,0.001000,0.001000,0.001000
1006.961538,-0.040591,0.001000,0.001000,0.001000,0.001000,0.001000
1006.980769,-0.041411,0.001000,0.001000,0.001000,0.001000,0.001000
1007.000000,-0.042197,0.001000,0.001000,0.001000,0.001000,0.001000
1007.019231,-0.042948,0.001000,0.001000,0.001000,0.001000,0.001000
1007.038462,-0.043664,0.001000,0.001000,0.001000,0.001000,0.001000
1007.057692,-0.044344,0.001000,0.001000,0.001000,0.001000,0.001000
1007.076923,-0.044987,0.001000,0.001000,0.001000,0.001000,0.001000
1007.096154,-0.045594,0.001000,0.001000,0.001000,0.001000,0.001000
1007.115385,-0.046163,0.001000,0.001000,0.001000,0.001000,0.001000
1007.134615,-0.046694,0.001000,0.001000,0.001000,0.001000,0.001000
1007.153846,-0.047187,0.001000,0.001000,0.001000,0.001000,0.001000
1007.173077,-0.047642,0.001000,0.001000,0.001000,0.001000,0.001000
1007.192308,-0.048057,0.001000,0.001000,0.001000,0.001000,0.001000
1007.211538,-0.048433,0.001000,0.001000,0.001000,0.001000,0.001000
1007.230769,-0.048769,0.001000,0.001000,0.001000,0.001000,0.001000
1007.250000,-0.049065,0.001000,0.001000,0.001000,0.001000,0.001000
1007.269231,-0.049320,0.001000,0.001000,0.001000,0.001000,0.001000
1007.288462,-0.049535,0.001000,0.001000,0.001000,0.001000,0.001000
1007.307692,-0.049710,0.001000,0.001000,0.001000,0.001000,0.001000
1007.326923,-0.049844,0.001000,0.001000,0.001000,0.001000,0.001000
1007.346154,-0.049936,0.001000,0.001000,0.001000,0.001000,0.001000
1007.365385,-0.049988,0.001000,0.001000,0.001000,0.001000,0.001000
1007.384615,-0.049999,0.001000,0.001000,0.001000,0.001000,0.001000
1007.403846,-0.049969,0.001000,0.001000,0.001000,0.001000,0.001000
1007.423077,-0.049897,0.001000,0.001000,0.001000,0.001000,0.001000
1007.442308,-0.049785,0.001000,0.001000,0.001000,0.001000,0.001000
1007.461538,-0.049632,0.001000,0.001000,0.001000,0.001000,0.001000
1007.480769,-0.049438,0.001000,0.001000,0.001000,0.001000,0.001000
1007.500000,-0.049203,0.001000,0.001000,0.001000,0.001000,0.001000
1007.519231,-0.048929,0.001000,0.001000,0.001000,0.001000,0.001000
1007.538462,-0.048614,0.001000,0.001000,0.001000,0.001000,0.001000
1007.557692,-0.048259,0.001000,0.001000,0.001000,0.001000,0.001000
1007.576923,-0.047864,0.001000,0.001000,0.001000,0.001000,0.001000
1007.596154,-0.047430,0.001000,0.001000,0.001000,0.001000,0.001000
1007.615385,-0.046958,0.001000,0.001000,0.001000,0.001000,0.001000
1007.634615,-0.046446,0.001000,0.001000,0.001000,0.001000,0.001000
1007.653846,-0.045897,0.001000,0.001000,0.001000,0.001000,0.001000
1007.673077,-0.045310,0.001000,0.001000,0.001000,0.001000,0.001000
1007.692308,-0.044685,0.001000,0.001000,0.001000,0.001000,0.001000
1007.711538,-0.044024,0.001000,0.001000,0.001000,0.001000,0.001000
1007.730769,-0.043327,0.001000,0.001000,0.001000,0.001000,0.001000
1007.750000,-0.042595,0.001000,0.001000,0.001000,0.001000,0.001000
1007.769231,-0.041827,0.001000,0.001000,0.001000,0.001000,0.001000
1007.788462,-0.041025,0.001000,0.001000,0.001000,0.001000,0.001000
1007.807692,-0.040189,0.001000,0.001000,0.001000,0.001000,0.001000
1007.826923,-0.039321,0.001000,0.001000,0.001000,0.001000,0.001000
1007.846154,-0.038420,0.001000,0.001000,0.001000,0.001000,0.001000
1007.865385,-0.037487,0.001000,0.001000,0.001000,0.001000,0.001000
1007.884615,-0.036524,0.001000,0.001000,0.001000,0.001000,0.001000
1007.903846,-0.035531,0.001000,0.001000,0.001000,0.001000,0.001000
1007.923077,-0.034508,0.001000,0.001000,0.001000,0.001000,0.001000
1007.942308,-0.033458,0.001000,0.001000,0.001000,0.001000,0.001000
1007.961538,-0.032379,0.001000,0.001000,0.001000,0.001000,0.001000
1007.980769,-0.031275,0.001000,0.001000,0.001000,0.001000,0.001000
1008.000000,-0.030144,0.001000,0.001000,0.001000,0.001000,0.001000
1008.019231,-0.028989,0.001000,0.001000,0.001000,0.001000,0.001000
1008.038462,-0.027810,0.001000,0.001000,0.001000,0.001000,0.001000
1008.057692,-0.026608,0.001000,0.001000,0.001000,0.001000,0.001000
1008.076923,-0.025384,0.001000,0.001000,0.001000,0.001000,0.001000
1008.096154,-0.024140,0.001000,0.001000,0.001000,0.001000,0.001000
1008.115385,-0.022876,0.001000,0.001000,0.001000,0.001000,0.001000
1008.134615,-0.021593,0.001000,0.001000,0.001000,0.001000,0.001000
1008.153846,-0.020292,0.001000,0.001000,0.001000,0.001000,0.001000
1008.173077,-0.018974,0.001000,0.001000,0.001000,0.001000,0.001000
1008.192308,-0.017641,0.001000,0.001000,0.001000,0.001000,0.001000
1008.211538,-0.016294,0.001000,0.001000,0.001000,0.001000,0.001000
1008.230769,-0.014933,0.001000,0.001000,0.001000,0.001000,0.001000
1008.250000,-0.013560,0.001000,0.001000,0.001000,0.001000,0.001000
1008.269231,-0.012175,0.001000,0.001000,0.001000,0.001000,0.001000
1008.288462,-0.010781,0.001000,0.001000,0.001000,0.001000,0.001000
1008.307692,-0.009378,0.001000,0.001000,0.001000,0.001000,0.001000
1008.326923,-0.007967,0.001000,0.001000,0.001000,0.001000,0.001000
1008.346154,-0.006550,0.001000,0.001000,0.001000,0.001000,0.001000
1008.365385,-0.005127,0.001000,0.001000,0.001000,0.001000,0.001000
1008.384615,-0.003700,0.001000,0.001000,0.001000,0.001000,0.001000
1008.403846,-0.002270,0.001000,0.001000,0.001000,0.001000,0.001000
1008.423077,-0.000838,0.001000,0.001000,0.001000,0.001000,0.001000
1008.442308,0.000594,0.001000,0.001000,0.001000,0.001000,0.001000
1008.461538,0.002027,0.001000,0.001000,0.001000,0.001000,0.001000
1008.480769,0.003457,0.001000,0.001000,0.001000,0.001000,0.001000
1008.500000,0.004884,0.001000,0.001000,0.001000,0.001000,0.001000
1008.519231,0.006308,0.001000,0.001000,0.001000,0.001000,0.001000
1008.538462,0.007726,0.001000,0.001000,0.001000,0.001000,0.001000
1008.557692,0.009138,0.001000,0.001000,0.001000,0.001000,0.001000
1008.576923,0.010543,0.001000,0.001000,0.001000,0.001000,0.001000
1008.596154,0.011939,0.001000,0.001000,0.001000,0.001000,0.001000
1008.615385,0.013325,0.001000,0.001000,0.001000,0.001000,0.001000
1008.634615,0.014700,0.001000,0.001000,0.001000,0.001000,0.001000
1008.653846,0.016063,0.001000,0.001000,0.001000,0.001000,0.001000
1008.673077,0.017413,0.001000,0.001000,0.001000,0.001000,0.001000
1008.692308,0.018749,0.001000,0.001000,0.001000,0.001000,0.001000
1008.711538,0.020069,0.001000,0.001000,0.001000,0.001000,0.001000
1008.730769,0.021372,0.001000,0.001000,0.001000,0.001000,0.001000
1008.750000,0.022659,0.001000,0.001000,0.001000,0.001000,0.001000
1008.769231,0.023926,0.001000,0.001000,0.001000,0.001000,0.001000
1008.788462,0.025174,0.001000,0.001000,0.001000,0.001000,0.001000
1008.807692,0.026401,0.001000,0.001000,0.001000,0.001000,0.001000
1008.826923,0.027607,0.001000,0.001000,0.001000,0.001000,0.001000
1008.846154,0.028790,0.001000,0.001000,0.001000,0.001000,0.001000
1008.865385,0.029949,0.001000,0.001000,0.001000,0.001000,0.001000
1008.884615,0.031084,0.001000,0.001000,0.001000,0.001000,0.001000
1008.903846,0.032193,0.001000,0.001000,0.001000,0.001000,0.001000
1008.923077,0.033276,0.001000,0.001000,0.001000,0.001000,0.001000
1008.942308,0.034331,0.001000,0.001000,0.001000,0.001000,0.001000
1008.961538,0.035359,0.001000,0.001000,0.001000,0.001000,0.001000
1008.980769,0.036357,0.001000,0.001000,0.001000,0.001000,0.001000
1009.000000,0.037325,0.001000,0.001000,0.001000,0.001000,0.001000
1009.019231,0.038263,0.001000,0.001000,0.001000,0.001000,0.001000
1009.038462,0.039170,0.001000,0.001000,0.001000,0.001000,0.001000
1009.057692,0.040044,0.001000,0.001000,0.001000,0.001000,0.001000
1009.076923,0.040885,0.001000,0.001000,0.001000,0.001000,0.001000
1009.096154,0.041693,0.001000,0.001000,0.001000,0.001000,0.001000
1009.115385,0.042466,0.001000,0.001000,0.001000,0.001000,0.001000
1009.134615,0.043205,0.001000,0.001000,0.001000,0.001000,0.001000
1009.153846,0.043908,0.001000,0.001000,0.001000,0.001000,0.001000
1009.173077,0.044576,0.001000,0.001000,0.001000,0.001000,0.001000
1009.192308,0.045206,0.001000,0.001000,0.001000,0.001000,0.001000
1009.211538,0.045800,0.001000,0.001000,0.001000,0.001000,0.001000
1009.230769,0.046355,0.001000,0.001000,0.001000,0.001000,0.001000
1009.250000,0.046873,0.001000,0.001000,0.001000,0.001000,0.001000
1009.269231,0.047353,0.001000,0.001000,0.001000,0.001000,0.001000
1009.288462,0.047793,0.001000,0.001000,0.001000,0.001000,0.001000
1009.307692,0.048194,0.001000,0.001000,0.001000,0.001000,0.001000
1009.326923,0.048556,0.001000,0.001000,0.001000,0.001000,0.001000
1009.346154,0.048878,0.001000,0.001000,0.001000,0.001000,0.001000
1009.365385,0.049160,0.001000,0.001000,0.001000,0.001000,0.001000
1009.384615,0.049401,0.001000,0.001000,0.001000,0.001000,0.001000
1009.403846,0.049602,0.001000,0.001000,0.001000,0.001000,0.001000
1009.423077,0.049762,0.001000,0.001000,0.001000,0.001000,0.001000
1009.442308,0.049881,0.001000,0.001000,0.001000,0.001000,0.001000
1009.461538,0.049959,0.001000,0.001000,0.001000,0.001000,0.001000
1009.480769,0.049997,0.001000,0.001000,0.001000,0.001000,0.001000
1009.500000,0.049993,0.001000,0.001000,0.001000,0.001000,0.001000
1009.519231,0.049948,0.001000,0.001000,0.001000,0.001000,0.001000
1009.538462,0.049862,0.001000,0.001000,0.001000,0.001000,0.001000
1009.557692,0.049735,0.001000,0.001000,0.001000,0.001000,0.001000
1009.576923,0.049568,0.001000,0.001000,0.001000,0.001000,0.001000
1009.596154,0.049360,0.001000,0.001000,0.001000,0.001000,0.001000
1009.615385,0.049111,0.001000,0.001000,0.001000,0.001000,0.001000
1009.634615,0.048822,0.001000,0.001000,0.001000,0.001000,0.001000
1009.653846,0.048493,0.001000,0.001000,0.001000,0.001000,0.001000
1009.673077,0.048124,0.001000,0.001000,0.001000,0.001000,0.001000
1009.692308,0.047715,0.001000,0.001000,0.001000,0.001000,0.001000
1009.711538,0.047268,0.001000,0.001000,0.001000,0.001000,0.001000
1009.730769,0.046781,0.001000,0.001000,0.001000,0.001000,0.001000
1009.750000,0.046256,0.001000,0.001000,0.001000,0.001000,0.001000
1009.769231,0.045693,0.001000,0.001000,0.001000,0.001000,0.001000
1009.788462,0.045093,0.001000,0.001000,0.001000,0.001000,0.001000
1009.807692,0.044456,0.001000,0.001000,0.001000,0.001000,0.001000
1009.826923,0.043782,0.001000,0.001000,0.001000,0.001000,0.001000
1009.846154,0.043072,0.001000,0.001000,0.001000,0.001000,0.001000
1009.865385,0.042327,0.001000,0.001000,0.001000,0.001000,0.001000
1009.884615,0.041547,0.001000,0.001000,0.001000,0.001000,0.001000
1009.903846,0.040733,0.001000,0.001000,0.001000,0.001000,0.001000
1009.923077,0.039886,0.001000,0.001000,0.001000,0.001000,0.001000
1009.942308,0.039006,0.001000,0.001000,0.001000,0.001000,0.001000
1009.961538,0.038093,0.001000,0.001000,0.001000,0.001000,0.001000
1009.980769,0.037150,0.001000,0.001000,0.001000,0.001000,0.001000
1010.000000,0.036176,0.001000,0.001000,0.001000,0.001000,0.001000
1010.019231,0.035172,0.001000,0.001000,0.001000,0.001000,0.001000
1010.038462,0.034140,0.001000,0.001000,0.001000,0.001000,0.001000
1010.057692,0.033079,0.001000,0.001000,0.001000,0.001000,0.001000
1010.076923,0.031992,0.001000,0.001000,0.001000,0.001000,0.001000
1010.096154,0.030878,0.001000,0.001000,0.001000,0.001000,0.001000
1010.115385,0.029738,0.001000,0.001000,0.001000,0.001000,0.001000
1010.134615,0.028575,0.001000,0.001000,0.001000,0.001000,0.001000
1010.153846,0.027387,0.001000,0.001000,0.001000,0.001000,0.001000
1010.173077,0.026178,0.001000,0.001000,0.001000,0.001000,0.001000
1010.192308,0.024947,0.001000,0.001000,0.001000,0.001000,0.001000
1010.211538,0.023695,0.001000,0.001000,0.001000,0.001000,0.001000
1010.230769,0.022424,0.001000,0.001000,0.001000,0.001000,0.001000
1010.250000,0.021134,0.001000,0.001000,0.001000,0.001000,0.001000
1010.269231,0.019828,0.001000,0.001000,0.001000,0.001000,0.001000
1010.288462,0.018504,0.001000,0.001000,0.001000,0.001000,0.001000
1010.307692,0.017166,0.001000,0.001000,0.001000,0.001000,0.001000
1010.326923,0.015814,0.001000,0.001000,0.001000,0.001000,0.001000
1010.346154,0.014448,0.001000,0.001000,0.001000,0.001000,0.001000
1010.365385,0.013071,0.001000,0.001000,0.001000,0.001000,0.001000
1010.384615,0.011683,0.001000,0.001000,0.001000,0.001000,0.001000
1010.403846,0.010286,0.001000,0.001000,0.001000,0.001000,0.001000
1010.423077,0.008880,0.001000,0.001000,0.001000,0.001000,0.001000
1010.442308,0.007466,0.001000,0.001000,0.001000,0.001000,0.001000
1010.461538,0.006047,0.001000,0.001000,0.001000,0.001000,0.001000
1010.480769,0.004623,0.001000,0.001000,0.001000,0.001000,0.001000
1010.500000,0.003194,0.001000,0.001000,0.001000,0.001000,0.001000
1010.519231,0.001764,0.001000,0.001000,0.001000,0.001000,0.001000
1010.538462,0.000331,0.001000,0.001000,0.001000,0.001000,0.001000
1010.557692,-0.001101,0.001000,0.001000,0.001000,0.001000,0.001000
1010.576923,-0.002533,0.001000,0.001000,0.001000,0.001000,0.001000
1010.596154,-0.003962,0.001000,0.001000,0.001000,0.001000,0.001000
1010.615385,-0.005389,0.001000,0.001000,0.001000,0.001000,0.001000
1010.634615,-0.006810,0.001000,0.001000,0.001000,0.001000,0.001000
1010.653846,-0.008227,0.001000,0.001000,0.001000,0.001000,0.001000
1010.673077,-0.009636,0.001000,0.001000,0.001000,0.001000,0.001000
1010.692308,-0.011038,0.001000,0.001000,0.001000,0.001000,0.001000
1010.711538,-0.012430,0.001000,0.001000,0.001000,0.001000,0.001000
1010.730769,-0.013813,0.001000,0.001000,0.001000,0.001000,0.001000
1010.750000,-0.015184,0.001000,0.001000,0.001000,0.001000,0.001000
1010.769231,-0.016542,0.001000,0.001000,0.001000,0.001000,0.001000
1010.788462,-0.017887,0.001000,0.001000,0.001000,0.001000,0.001000
1010.807692,-0.019217,0.001000,0.001000,0.001000,0.001000,0.001000
1010.826923,-0.020532,0.001000,0.001000,0.001000,0.001000,0.001000
1010.846154,-0.021830,0.001000,0.001000,0.001000,0.001000,0.001000
1010.865385,-0.023109,0.001000,0.001000,0.001000,0.001000,0.001000
1010.884615,-0.024370,0.001000,0.001000,0.001000,0.001000,0.001000
1010.903846,-0.025611,0.001000,0.001000,0.001000,0.001000,0.001000
1010.923077,-0.026830,0.001000,0.001000,0.001000,0.001000,0.001000
1010.942308,-0.028028,0.001000,0.001000,0.001000,0.001000,0.001000
1010.961538,-0.029203,0.001000,0.001000,0.001000,0.001000,0.001000
1010.980769,-0.030354,0.001000,0.001000,0.001000,0.001000,0.001000
1011.000000,-0.031479,0.001000,0.001000,0.001000,0.001000,0.001000
1011.019231,-0.032579,0.001000,0.001000,0.001000,0.001000,0.001000
1011.038462,-0.033653,0.001000,0.001000,0.001000,0.001000,0.001000
1011.057692,-0.034698,0.001000,0.001000,0.001000,0.001000,0.001000
1011.076923,-0.035715,0.001000,0.001000,0.001000,0.001000,0.001000
1011.096154,-0.036703,0.001000,0.001000,0.001000,0.001000,0.001000
1011.115385,-0.037661,0.001000,0.001000,0.001000,0.001000,0.001000
1011.134615,-0.038587,0.001000,0.001000,0.001000,0.001000,0.001000
1011.153846,-0.039483,0.001000,0.001000,0.001000,0.001000,0.001000
1011.173077,-0.040345,0.001000,0.001000,0.001000,0.001000,0.001000
1011.192308,-0.041175,0.001000,0.001000,0.001000,0.001000,0.001000
1011.211538,-0.041970,0.001000,0.001000,0.001000,0.001000,0.001000
1011.230769,-0.042732,0.001000,0.001000,0.001000,0.001000,0.001000
1011.250000,-0.043458,0.001000,0.001000,0.001000,0.001000,0.001000
1011.269231,-0.044148,0.001000,0.001000,0.001000,0.001000,0.001000
1011.288462,-0.044803,0.001000,0.001000,0.001000,0.001000,0.001000
1011.307692,-0.045420,0.001000,0.001000,0.001000,0.001000,0.001000
1011.326923,-0.046001,0.001000,0.001000,0.001000,0.001000,0.001000
1011.346154,-0.046543,0.001000,0.001000,0.001000,0.001000,0.001000
1011.365385,-0.047047,0.001000,0.001000,0.001000,0.001000,0.001000
1011.384615,-0.047513,0.001000,0.001000,0.001000,0.001000,0.001000
1011.403846,-0.047940,0.001000,0.001000,0.001000,0.001000,0.001000
1011.423077,-0.048327,0.001000,0.001000,0.001000,0.001000,0.001000
1011.442308,-0.048674,0.001000,0.001000,0.001000,0.001000,0.001000
1011.461538,-0.048982,0.001000,0.001000,0.001000,0.001000,0.001000
1011.480769,-0.049250,0.001000,0.001000,0.001000,0.001000,0.001000
1011.500000,-0.049477,0.001000,0.001000,0.001000,0.001000,0.001000
1011.519231,-0.049663,0.001000,0.001000,0.001000,0.001000,0.001000
1011.538462,-0.049809,0.001000,0.001000,0.001000,0.001000,0.001000
1011.557692,-0.049913,0.001000,0.001000,0.001000,0.001000,0.001000
1011.576923,-0.049977,0.001000,0.001000,0.001000,0.001000,0.001000
1011.596154,-0.050000,0.001000,0.001000,0.001000,0.001000,0.001000
1011.615385,-0.049982,0.001000,0.001000,0.001000,0.001000,0.001000
1011.634615,-0.049922,0.001000,0.001000,0.001000,0.001000,0.001000
1011.653846,-0.049822,0.001000,0.001000,0.001000,0.001000,0.001000
1011.673077,-0.049681,0.001000,0.001000,0.001000,0.001000,0.001000
1011.692308,-0.049499,0.001000,0.001000,0.001000,0.001000,0.001000
1011.711538,-0.049276,0.001000,0.001000,0.001000,0.001000,0.001000
1011.730769,-0.049013,0.001000,0.001000,0.001000,0.001000,0.001000
1011.750000,-0.048710,0.001000,0.001000,0.001000,0.001000,0.001000
1011.769231,-0.048367,0.001000,0.001000,0.001000,0.001000,0.001000
1011.788462,-0.047984,0.001000,0.001000,0.001000,0.001000,0.001000
1011.807692,-0.047561,0.001000,0.001000,0.001000,0.001000,0.001000
1011.826923,-0.047100,0.001000,0.001000,0.001000,0.001000,0.001000
1011.846154,-0.046600,0.001000,0.001000,0.001000,0.001000,0.001000
1011.865385,-0.046061,0.001000,0.001000,0.001000,0.001000,0.001000
1011.884615,-0.045485,0.001000,0.001000,0.001000,0.001000,0.001000
1011.903846,-0.044872,0.001000,0.001000,0.001000,0.001000,0.001000
1011.923077,-0.044221,0.001000,0.001000,0.001000,0.001000,0.001000
1011.942308,-0.043535,0.001000,0.001000,0.001000,0.001000,0.001000
1011.961538,-0.042813,0.001000,0.001000,0.001000,0.001000,0.001000
1011.980769,-0.042055,0.001000,0.001000,0.001000,0.001000,0.001000
1012.000000,-0.041263,0.001000,0.001000,0.001000,0.001000,0.001000
1012.019231,-0.040437,0.001000,0.001000,0.001000,0.001000,0.001000
1012.038462,-0.039578,0.001000,0.001000,0.001000,0.001000,0.001000
1012.057692,-0.038686,0.001000,0.001000,0.001000,0.001000,0.001000
1012.076923,-0.037763,0.001000,0.001000,0.001000,0.001000,0.001000
1012.096154,-0.036809,0.001000,0.001000,0.001000,0.001000,0.001000
1012.115385,-0.035824,0.001000,0.001000,0.001000,0.001000,0.001000
1012.134615,-0.034810,0.001000,0.001000,0.001000,0.001000,0.001000
1012.153846,-0.033768,0.001000,0.001000,0.001000,0.001000,0.001000
1012.173077,-0.032698,0.001000,0.001000,0.001000,0.001000,0.001000
1012.192308,-0.031600,0.001000,0.001000,0.001000,0.001000,0.001000
1012.211538,-0.030477,0.001000,0.001000,0.001000,0.001000,0.001000
1012.230769,-0.029329,0.001000,0.001000,0.001000,0.001000,0.001000
1012.250000,-0.028157,0.001000,0.001000,0.001000,0.001000,0.001000
1012.269231,-0.026962,0.001000,0.001000,0.001000,0.001000,0.001000
1012.288462,-0.025745,0.001000,0.001000,0.001000,0.001000,0.001000
1012.307692,-0.024506,0.001000,0.001000,0.001000,0.001000,0.001000
1012.326923,-0.023247,0.001000,0.001000,0.001000,0.001000,0.001000
1012.346154,-0.021970,0.001000,0.001000,0.001000,0.001000,0.001000
1012.365385,-0.020674,0.001000,0.001000,0.001000,0.001000,0.001000
1012.384615,-0.019361,0.001000,0.001000,0.001000,0.001000,0.001000
1012.403846,-0.018033,0.001000,0.001000,0.001000,0.001000,0.001000
1012.423077,-0.016689,0.001000,0.001000,0.001000,0.001000,0.001000
1012.442308,-0.015332,0.001000,0.001000,0.001000,0.001000,0.001000
1012.461538,-0.013963,0.001000,0.001000,0.001000,0.001000,0.001000
1012.480769,-0.012581,0.001000,0.001000,0.001000,0.001000,0.001000
1012.500000,-0.011190,0.001000,0.001000,0.001000,0.001000,0.001000
1012.519231,-0.009789,0.001000,0.001000,0.001000,0.001000,0.001000
1012.538462,-0.008380,0.001000,0.001000,0.001000,0.001000,0.001000
1012.557692,-0.006965,0.001000,0.001000,0.001000,0.001000,0.001000
1012.576923,-0.005544,0.001000,0.001000,0.001000,0.001000,0.001000
1012.596154,-0.004118,0.001000,0.001000,0.001000,0.001000,0.001000
1012.615385,-0.002689,0.001000,0.001000,0.001000,0.001000,0.001000
1012.634615,-0.001257,0.001000,0.001000,0.001000,0.001000,0.001000
1012.653846,0.000175,0.001000,0.001000,0.001000,0.001000,0.001000
1012.673077,0.001608,0.001000,0.001000,0.001000,0.001000,0.001000
1012.692308,0.003039,0.001000,0.001000,0.001000,0.001000,0.001000
1012.711538,0.004467,0.001000,0.001000,0.001000,0.001000,0.001000
1012.730769,0.005892,0.001000,0.001000,0.001000,0.001000,0.001000
1012.750000,0.007312,0.001000,0.001000,0.001000,0.001000,0.001000
1012.769231,0.008726,0.001000,0.001000,0.001000,0.001000,0.001000
1012.788462,0.010133,0.001000,0.001000,0.001000,0.001000,0.001000
1012.807692,0.011531,0.001000,0.001000,0.001000,0.001000,0.001000
1012.826923,0.012921,0.001000,0.001000,0.001000,0.001000,0.001000
1012.846154,0.014299,0.001000,0.001000,0.001000,0.001000,0.001000
1012.865385,0.015666,0.001000,0.001000,0.001000,0.001000,0.001000
1012.884615,0.017020,0.001000,0.001000,0.001000,0.001000,0.001000
1012.903846,0.018359,0.001000,0.001000,0.001000,0.001000,0.001000
1012.923077,0.019684,0.001000,0.001000,0.001000,0.001000,0.001000
1012.942308,0.020993,0.001000,0.001000,0.001000,0.001000,0.001000
1012.961538,0.022284,0.001000,0.001000,0.001000,0.001000,0.001000
1012.980769,0.023557,0.001000,0.001000,0.001000,0.001000,0.001000
1013.000000,0.024811,0.001000,0.001000,0.001000,0.001000,0.001000
1013.019231,0.026045,0.001000,0.001000,0.001000,0.001000,0.001000
1013.038462,0.027257,0.001000,0.001000,0.001000,0.001000,0.001000
1013.057692,0.028446,0.001000,0.001000,0.001000,0.001000,0.001000
1013.076923,0.029613,0.001000,0.001000,0.001000,0.001000,0.001000
1013.096154,0.030755,0.001000,0.001000,0.001000,0.001000,0.001000
1013.115385,0.031871,0.001000,0.001000,0.001000,0.001000,0.001000
1013.134615,0.032962,0.001000,0.001000,0.001000,0.001000,0.001000
1013.153846,0.034026,0.001000,0.001000,0.001000,0.001000,0.001000
1013.173077,0.035061,0.001000,0.001000,0.001000,0.001000,0.001000
1013.192308,0.036068,0.001000,0.001000,0.001000,0.001000,0.001000
1013.211538,0.037045,0.001000,0.001000,0.001000,0.001000,0.001000
1013.230769,0.037992,0.001000,0.001000,0.001000,0.001000,0.001000
1013.250000,0.038908,0.001000,0.001000,0.001000,0.001000,0.001000
1013.269231,0.039791,0.001000,0.001000,0.001000,0.001000,0.001000
1013.288462,0.040642,0.001000,0.001000,0.001000,0.001000,0.001000
1013.307692,0.041460,0.001000,0.001000,0.001000,0.001000,0.001000
1013.326923,0.042244,0.001000,0.001000,0.001000,0.001000,0.001000
1013.346154,0.042993,0.001000,0.001000,0.001000,0.001000,0.001000
1013.365385,0.043706,0.001000,0.001000,0.001000,0.001000,0.001000
1013.384615,0.044384,0.001000,0.001000,0.001000,0.001000,0.001000
1013.403846,0.045025,0.001000,0.001000,0.001000,0.001000,0.001000
1013.423077,0.045630,0.001000,0.001000,0.001000,0.001000,0.001000
1013.442308,0.046197,0.001000,0.001000,0.001000,0.001000,0.001000
1013.461538,0.046726,0.001000,0.001000,0.001000,0.001000,0.001000
1013.480769,0.047216,0.001000,0.001000,0.001000,0.001000,0.001000
1013.500000,0.047668,0.001000,0.001000,0.001000,0.001000,0.001000
1013.519231,0.048081,0.001000,0.001000,0.001000,0.001000,0.001000
1013.538462,0.048454,0.001000,0.001000,0.001000,0.001000,0.001000
1013.557692,0.048788,0.001000,0.001000,0.001000,0.001000,0.001000
1013.576923,0.049081,0.001000,0.001000,0.001000,0.001000,0.001000
1013.596154,0.049335,0.001000,0.001000,0.001000,0.001000,0.001000
1013.615385,0.049547,0.001000,0.001000,0.001000,0.001000,0.001000
1013.634615,0.049719,0.001000,0.001000,0.001000,0.001000,0.001000
1013.653846,0.049850,0.001000,0.001000,0.001000,0.001000,0.001000
1013.673077,0.049941,0.001000,0.001000,0.001000,0.001000,0.001000
1013.692308,0.049990,0.001000,0.001000,0.001000,0.001000,0.001000
1013.711538,0.049998,0.001000,0.001000,0.001000,0.001000,0.001000
1013.730769,0.049965,0.001000,0.001000,0.001000,0.001000,0.001000
1013.750000,0.049892,0.001000,0.001000,0.001000,0.001000,0.001000
1013.769231,0.049777,0.001000,0.001000,0.001000,0.001000,0.001000
1013.788462,0.049621,0.001000,0.001000,0.001000,0.001000,0.001000
1013.807692,0.049425,0.001000,0.001000,0.001000,0.001000,0.001000
1013.826923,0.049188,0.001000,0.001000,0.001000,0.001000,0.001000
1013.846154,0.048910,0.001000,0.001000,0.001000,0.001000,0.001000
1013.865385,0.048593,0.001000,0.001000,0.001000,0.001000,0.001000
1013.884615,0.048236,0.001000,0.001000,0.001000,0.001000,0.001000
1013.903846,0.047839,0.001000,0.001000,0.001000,0.001000,0.001000
1013.923077,0.047402,0.001000,0.001000,0.001000,0.001000,0.001000
1013.942308,0.046927,0.001000,0.001000,0.001000,0.001000,0.001000
1013.961538,0.046414,0.001000,0.001000,0.001000,0.001000,0.001000
1013.980769,0.045862,0.001000,0.001000,0.001000,0.001000,0.001000
1014.000000,0.045273,0.001000,0.001000,0.001000,0.001000,0.001000
1014.019231,0.044646,0.001000,0.001000,0.001000,0.001000,0.001000
1014.038462,0.043983,0.001000,0.001000,0.001000,0.001000,0.001000
1014.057692,0.043283,0.001000,0.001000,0.001000,0.001000,0.001000
1014.076923,0.042549,0.001000,0.001000,0.001000,0.001000,0.001000
1014.096154,0.041779,0.001000,0.001000,0.001000,0.001000,0.001000
1014.115385,0.040975,0.001000,0.001000,0.001000,0.001000,0.001000
1014.134615,0.040137,0.001000,0.001000,0.001000,0.001000,0.001000
1014.153846,0.039266,0.001000,0.001000,0.001000,0.001000,0.001000
1014.173077,0.038363,0.001000,0.001000,0.001000,0.001000,0.001000
1014.192308,0.037429,0.001000,0.001000,0.001000,0.001000,0.001000
1014.211538,0.036464,0.001000,0.001000,0.001000,0.001000,0.001000
1014.230769,0.035469,0.001000,0.001000,0.001000,0.001000,0.001000
1014.250000,0.034445,0.001000,0.001000,0.001000,0.001000,0.001000
1014.269231,0.033392,0.001000,0.001000,0.001000,0.001000,0.001000
1014.288462,0.032312,0.001000,0.001000,0.001000,0.001000,0.001000
1014.307692,0.031206,0.001000,0.001000,0.001000,0.001000,0.001000
1014.326923,0.030074,0.001000,0.001000,0.001000,0.001000,0.001000
1014.346154,0.028917,0.001000,0.001000,0.001000,0.001000,0.001000
1014.365385,0.027737,0.001000,0.001000,0.001000,0.001000,0.001000
1014.384615,0.026534,0.001000,0.001000,0.001000,0.001000,0.001000
1014.403846,0.025309,0.001000,0.001000,0.001000,0.001000,0.001000
1014.423077,0.024063,0.001000,0.001000,0.001000,0.001000,0.001000
1014.442308,0.022798,0.001000,0.001000,0.001000,0.001000,0.001000
1014.461538,0.021513,0.001000,0.001000,0.001000,0.001000,0.001000
1014.480769,0.020212,0.001000,0.001000,0.001000,0.001000,0.001000
1014.500000,0.018893,0.001000,0.001000,0.001000,0.001000,0.001000
1014.519231,0.017559,0.001000,0.001000,0.001000,0.001000,0.001000
1014.538462,0.016211,0.001000,0.001000,0.001000,0.001000,0.001000
1014.557692,0.014849,0.001000,0.001000,0.001000,0.001000,0.001000
1014.576923,0.013475,0.001000,0.001000,0.001000,0.001000,0.001000
1014.596154,0.012090,0.001000,0.001000,0.001000,0.001000,0.001000
1014.615385,0.010695,0.001000,0.001000,0.001000,0.001000,0.001000
1014.634615,0.009292,0.001000,0.001000,0.001000,0.001000,0.001000
1014.653846,0.007880,0.001000,0.001000,0.001000,0.001000,0.001000
1014.673077,0.006463,0.001000,0.001000,0.001000,0.001000,0.001000
1014.692308,0.005040,0.001000,0.001000,0.001000,0.001000,0.001000
1014.711538,0.003613,0.001000,0.001000,0.001000,0.001000,0.001000
1014.730769,0.002182,0.001000,0.001000,0.001000,0.001000,0.001000
1014.750000,0.000750,0.001000,0.001000,0.001000,0.001000,0.001000
1014.769231,-0.000682,0.001000,0.001000,0.001000,0.001000,0.001000
1014.788462,-0.002114,0.001000,0.001000,0.001000,0.001000,0.001000
1014.807692,-0.003544,0.001000,0.001000,0.001000,0.001000,0.001000
1014.826923,-0.004972,0.001000,0.001000,0.001000,0.001000,0.001000
1014.846154,-0.006395,0.001000,0.001000,0.001000,0.001000,0.001000
1014.865385,-0.007813,0.001000,0.001000,0.001000,0.001000,0.001000
1014.884615,-0.009225,0.001000,0.001000,0.001000,0.001000,0.001000
1014.903846,-0.010629,0.001000,0.001000,0.001000,0.001000,0.001000
1014.923077,-0.012024,0.001000,0.001000,0.001000,0.001000,0.001000
1014.942308,-0.013409,0.001000,0.001000,0.001000,0.001000,0.001000
1014.961538,-0.014784,0.001000,0.001000,0.001000,0.001000,0.001000
1014.980769,-0.016146,0.001000,0.001000,0.001000,0.001000,0.001000
1015.000000,-0.017495,0.001000,0.001000,0.001000,0.001000,0.001000
1015.019231,-0.018830,0.001000,0.001000,0.001000,0.001000,0.001000
1015.038462,-0.020149,0.001000,0.001000,0.001000,0.001000,0.001000
1015.057692,-0.021452,0.001000,0.001000,0.001000,0.001000,0.001000
1015.076923,-0.022737,0.001000,0.001000,0.001000,0.001000,0.001000
1015.096154,-0.024003,0.001000,0.001000,0.001000,0.001000,0.001000
1015.115385,-0.025250,0.001000,0.001000,0.001000,0.001000,0.001000
1015.134615,-0.026476,0.001000,0.001000,0.001000,0.001000,0.001000
1015.153846,-0.027680,0.001000,0.001000,0.001000,0.001000,0.001000
1015.173077,-0.028862,0.001000,0.001000,0.001000,0.001000,0.001000
1015.192308,-0.030019,0.001000,0.001000,0.001000,0.001000,0.001000
1015.211538,-0.031153,0.001000,0.001000,0.001000,0.001000,0.001000
1015.230769,-0.032260,0.001000,0.001000,0.001000,0.001000,0.001000
1015.250000,-0.033341,0.001000,0.001000,0.001000,0.001000,0.001000
1015.269231,-0.034395,0.001000,0.001000,0.001000,0.001000,0.001000
1015.288462,-0.035421,0.001000,0.001000,0.001000,0.001000,0.001000
1015.307692,-0.036417,0.001000,0.001000,0.001000,0.001000,0.001000
1015.326923,-0.037384,0.001000,0.001000,0.001000,0.001000,0.001000
1015.346154,-0.038320,0.001000,0.001000,0.001000,0.001000,0.001000
1015.365385,-0.039224,0.001000,0.001000,0.001000,0.001000,0.001000
1015.384615,-0.040096,0.001000,0.001000,0.001000,0.001000,0.001000
1015.403846,-0.040936,0.001000,0.001000,0.001000,0.001000,0.001000
1015.423077,-0.041741,0.001000,0.001000,0.001000,0.001000,0.001000
1015.442308,-0.042513,0.001000,0.001000,0.001000,0.001000,0.001000
1015.461538,-0.043249,0.001000,0.001000,0.001000,0.001000,0.001000
1015.480769,-0.043950,0.001000,0.001000,0.001000,0.001000,0.001000
1015.500000,-0.044615,0.001000,0.001000,0.001000,0.001000,0.001000
1015.519231,-0.045243,0.001000,0.001000,0.001000,0.001000,0.001000
1015.538462,-0.045835,0.001000,0.001000,0.001000,0.001000,0.001000
1015.557692,-0.046388,0.001000,0.001000,0.001000,0.001000,0.001000
1015.576923,-0.046904,0.001000,0.001000,0.001000,0.001000,0.001000
1015.596154,-0.047381,0.001000,0.001000,0.001000,0.001000,0.001000
1015.615385,-0.047819,0.001000,0.001000,0.001000,0.001000,0.001000
1015.634615,-0.048218,0.001000,0.001000,0.001000,0.001000,0.001000
1015.653846,-0.048577,0.001000,0.001000,0.001000,0.001000,0.001000
1015.673077,-0.048896,0.001000,0.001000,0.001000,0.001000,0.001000
1015.692308,-0.049176,0.001000,0.001000,0.001000,0.001000,0.001000
1015.711538,-0.049414,0.001000,0.001000,0.001000,0.001000,0.001000
1015.730769,-0.049613,0.001000,0.001000,0.001000,0.001000,0.001000
1015.750000,-0.049770,0.001000,0.001000,0.001000,0.001000,0.001000
1015.769231,-0.049887,0.001000,0.001000,0.001000,0.001000,0.001000
1015.788462,-0.049963,0.001000,0.001000,0.001000,0.001000,0.001000
1015.807692,-0.049998,0.001000,0.001000,0.001000,0.001000,0.001000
1015.826923,-0.049991,0.001000,0.001000,0.001000,0.001000,0.001000
1015.846154,-0.049944,0.001000,0.001000,0.001000,0.001000,0.001000
1015.865385,-0.049856,0.001000,0.001000,0.001000,0.001000,0.001000
1015.884615,-0.049726,0.001000,0.001000,0.001000,0.001000,0.001000
1015.903846,-0.049556,0.001000,0.001000,0.001000,0.001000,0.001000
1015.923077,-0.049346,0.001000,0.001000,0.001000,0.001000,0.001000
1015.942308,-0.049094,0.001000,0.001000,0.001000,0.001000,0.001000
1015.961538,-0.048803,0.001000,0.001000,0.001000,0.001000,0.001000
1015.980769,-0.048471,0.001000,0.001000,0.001000,0.001000,0.001000
1016.000000,-0.048100,0.001000,0.001000,0.001000,0.001000,0.001000
1016.019231,-0.047689,0.001000,0.001000,0.001000,0.001000,0.001000
1016.038462,-0.047239,0.001000,0.001000,0.001000,0.001000,0.001000
1016.057692,-0.046750,0.001000,0.001000,0.001000,0.001000,0.001000
1016.076923,-0.046223,0.001000,0.001000,0.001000,0.001000,0.001000
1016.096154,-0.045658,0.001000,0.001000,0.001000,0.001000,0.001000
1016.115385,-0.045055,0.001000,0.001000,0.001000,0.001000,0.001000
1016.134615,-0.044416,0.001000,0.001000,0.001000,0.001000,0.001000
1016.153846,-0.043739,0.001000,0.001000,0.001000,0.001000,0.001000
1016.173077,-0.043027,0.001000,0.001000,0.001000,0.001000,0.001000
1016.192308,-0.042280,0.001000,0.001000,0.001000,0.001000,0.001000
1016.211538,-0.041498,0.001000,0.001000,0.001000,0.001000,0.001000
1016.230769,-0.040682,0.001000,0.001000,0.001000,0.001000,0.001000
1016.250000,-0.039833,0.001000,0.001000,0.001000,0.001000,0.001000
1016.269231,-0.038951,0.001000,0.001000,0.001000,0.001000,0.001000
1016.288462,-0.038036,0.001000,0.001000,0.001000,0.001000,0.001000
1016.307692,-0.037091,0.001000,0.001000,0.001000,0.001000,0.001000
1016.326923,-0.036115,0.001000,0.001000,0.001000,0.001000,0.001000
1016.346154,-0.035110,0.001000,0.001000,0.001000,0.001000,0.001000
1016.365385,-0.034076,0.001000,0.001000,0.001000,0.001000,0.001000
1016.384615,-0.033013,0.001000,0.001000,0.001000,0.001000,0.001000
1016.403846,-0.031924,0.001000,0.001000,0.001000,0.001000,0.001000
1016.423077,-0.030809,0.001000,0.001000,0.001000,0.001000,0.001000
1016.442308,-0.029668,0.001000,0.001000,0.001000,0.001000,0.001000
1016.461538,-0.028503,0.001000,0.001000,0.001000,0.001000,0.001000
1016.480769,-0.027314,0.001000,0.001000,0.001000,0.001000,0.001000
1016.500000,-0.026103,0.001000,0.001000,0.001000,0.001000,0.001000
1016.519231,-0.024871,0.001000,0.001000,0.001000,0.001000,0.001000
1016.538462,-0.023618,0.001000,0.001000,0.001000,0.001000,0.001000
1016.557692,-0.022345,0.001000,0.001000,0.001000,0.001000,0.001000
1016.576923,-0.021055,0.001000,0.001000,0.001000,0.001000,0.001000
1016.596154,-0.019747,0.001000,0.001000,0.001000,0.001000,0.001000
1016.615385,-0.018423,0.001000,0.001000,0.001000,0.001000,0.001000
1016.634615,-0.017084,0.001000,0.001000,0.001000,0.001000,0.001000
1016.653846,-0.015731,0.001000,0.001000,0.001000,0.001000,0.001000
1016.673077,-0.014364,0.001000,0.001000,0.001000,0.001000,0.001000
1016.692308,-0.012986,0.001000,0.001000,0.001000,0.001000,0.001000
1016.711538,-0.011598,0.001000,0.001000,0.001000,0.001000,0.001000
1016.730769,-0.010200,0.001000,0.001000,0.001000,0.001000,0.001000
1016.750000,-0.008793,0.001000,0.001000,0.001000,0.001000,0.001000
1016.769231,-0.007380,0.001000,0.001000,0.001000,0.001000,0.001000
1016.788462,-0.005960,0.001000,0.001000,0.001000,0.001000,0.001000
1016.807692,-0.004535,0.001000,0.001000,0.001000,0.001000,0.001000
1016.826923,-0.003107,0.001000,0.001000,0.001000,0.001000,0.001000
1016.846154,-0.001676,0.001000,0.001000,0.001000,0.001000,0.001000
1016.865385,-0.000244,0.001000,0.001000,0.001000,0.001000,0.001000
1016.884615,0.001189,0.001000,0.001000,0.001000,0.001000,0.001000
1016.903846,0.002620,0.001000,0.001000,0.001000,0.001000,0.001000
1016.923077,0.004050,0.001000,0.001000,0.001000,0.001000,0.001000
1016.942308,0.005476,0.001000,0.001000,0.001000,0.001000,0.001000
1016.961538,0.006897,0.001000,0.001000,0.001000,0.001000,0.001000
1016.980769,0.008313,0.001000,0.001000,0.001000,0.001000,0.001000
1017.000000,0.009722,0.001000,0.001000,0.001000,0.001000,0.001000
1017.019231,0.011123,0.001000,0.001000,0.001000,0.001000,0.001000
1017.038462,0.012515,0.001000,0.001000,0.001000,0.001000,0.001000
1017.057692,0.013897,0.001000,0.001000,0.001000,0.001000,0.001000
1017.076923,0.015267,0.001000,0.001000,0.001000,0.001000,0.001000
1017.096154,0.016625,0.001000,0.001000,0.001000,0.001000,0.001000
1017.115385,0.017969,0.001000,0.001000,0.001000,0.001000,0.001000
1017.134615,0.019298,0.001000,0.001000,0.001000,0.001000,0.001000
1017.153846,0.020612,0.001000,0.001000,0.001000,0.001000,0.001000
1017.173077,0.021908,0.001000,0.001000,0.001000,0.001000,0.001000
1017.192308,0.023187,0.001000,0.001000,0.001000,0.001000,0.001000
1017.211538,0.024447,0.001000,0.001000,0.001000,0.001000,0.001000
1017.230769,0.025686,0.001000,0.001000,0.001000,0.001000,0.001000
1017.250000,0.026904,0.001000,0.001000,0.001000,0.001000,0.001000
1017.269231,0.028101,0.001000,0.001000,0.001000,0.001000,0.001000
1017.288462,0.029274,0.001000,0.001000,0.001000,0.001000,0.001000
1017.307692,0.030423,0.001000,0.001000,0.001000,0.001000,0.001000
1017.326923,0.031547,0.001000,0.001000,0.001000,0.001000,0.001000
1017.346154,0.032646,0.001000,0.001000,0.001000,0.001000,0.001000
1017.365385,0.033717,0.001000,0.001000,0.001000,0.001000,0.001000
1017.384615,0.034761,0.001000,0.001000,0.001000,0.001000,0.001000
1017.403846,0.035777,0.001000,0.001000,0.001000,0.001000,0.001000
1017.423077,0.036763,0.001000,0.001000,0.001000,0.001000,0.001000
1017.442308,0.037718,0.001000,0.001000,0.001000,0.001000,0.001000
1017.461538,0.038643,0.001000,0.001000,0.001000,0.001000,0.001000
1017.480769,0.039536,0.001000,0.001000,0.001000,0.001000,0.001000
1017.500000,0.040397,0.001000,0.001000,0.001000,0.001000,0.001000
1017.519231,0.041224,0.001000,0.001000,0.001000,0.001000,0.001000
1017.538462,0.042018,0.001000,0.001000,0.001000,0.001000,0.001000
1017.557692,0.042777,0.001000,0.001000,0.001000,0.001000,0.001000
1017.576923,0.043501,0.001000,0.001000,0.001000,0.001000,0.001000
1017.596154,0.044190,0.001000,0.001000,0.001000,0.001000,0.001000
1017.615385,0.044842,0.001000,0.001000,0.001000,0.001000,0.001000
1017.634615,0.045457,0.001000,0.001000,0.001000,0.001000,0.001000
1017.653846,0.046035,0.001000,0.001000,0.001000,0.001000,0.001000
1017.673077,0.046575,0.001000,0.001000,0.001000,0.001000,0.001000
1017.692308,0.047077,0.001000,0.001000,0.001000,0.001000,0.001000
1017.711538,0.047540,0.001000,0.001000,0.001000,0.001000,0.001000
1017.730769,0.047964,0.001000,0.001000,0.001000,0.001000,0.001000
1017.750000,0.048349,0.001000,0.001000,0.001000,0.001000,0.001000
1017.769231,0.048694,0.001000,0.001000,0.001000,0.001000,0.001000
1017.788462,0.049000,0.001000,0.001000,0.001000,0.001000,0.001000
1017.807692,0.049265,0.001000,0.001000,0.001000,0.001000,0.001000
1017.826923,0.049489,0.001000,0.001000,0.001000,0.001000,0.001000
1017.846154,0.049673,0.001000,0.001000,0.001000,0.001000,0.001000
1017.865385,0.049816,0.001000,0.001000,0.001000,0.001000,0.001000
1017.884615,0.049918,0.001000,0.001000,0.001000,0.001000,0.001000
1017.903846,0.049980,0.001000,0.001000,0.001000,0.001000,0.001000
1017.923077,0.050000,0.001000,0.001000,0.001000,0.001000,0.001000
1017.942308,0.049979,0.001000,0.001000,0.001000,0.001000,0.001000
1017.961538,0.049917,0.001000,0.001000,0.001000,0.001000,0.001000
1017.980769,0.049815,0.001000,0.001000,0.001000,0.001000,0.001000
1018.000000,0.049671,0.001000,0.001000,0.001000,0.001000,0.001000
1018.019231,0.049486,0.001000,0.001000,0.001000,0.001000,0.001000
1018.038462,0.049261,0.001000,0.001000,0.001000,0.001000,0.001000
1018.057692,0.048996,0.001000,0.001000,0.001000,0.001000,0.001000
1018.076923,0.048690,0.001000,0.001000,0.001000,0.001000,0.001000
1018.096154,0.048344,0.001000,0.001000,0.001000,0.001000,0.001000
1018.115385,0.047959,0.001000,0.001000,0.001000,0.001000,0.001000
1018.134615,0.047534,0.001000,0.001000,0.001000,0.001000,0.001000
1018.153846,0.047070,0.001000,0.001000,0.001000,0.001000,0.001000
1018.173077,0.046568,0.001000,0.001000,0.001000,0.001000,0.001000
1018.192308,0.046027,0.001000,0.001000,0.001000,0.001000,0.001000
1018.211538,0.045449,0.001000,0.001000,0.001000,0.001000,0.001000
1018.230769,0.044833,0.001000,0.001000,0.001000,0.001000,0.001000
1018.250000,0.044181,0.001000,0.001000,0.001000,0.001000,0.001000
1018.269231,0.043492,0.001000,0.001000,0.001000,0.001000,0.001000
1018.288462,0.042767,0.001000,0.001000,0.001000,0.001000,0.001000
1018.307692,0.042008,0.001000,0.001000,0.001000,0.001000,0.001000
1018.326923,0.041213,0.001000,0.001000,0.001000,0.001000,0.001000
1018.346154,0.040385,0.001000,0.001000,0.001000,0.001000,0.001000
1018.365385,0.039524,0.001000,0.001000,0.001000,0.001000,0.001000
1018.384615,0.038631,0.001000,0.001000,0.001000,0.001000,0.001000
1018.403846,0.037706,0.001000,0.001000,0.001000,0.001000,0.001000
1018.423077,0.036749,0.001000,0.001000,0.001000,0.001000,0.001000
1018.442308,0.035763,0.001000,0.001000,0.001000,0.001000,0.001000
1018.461538,0.034747,0.001000,0.001000,0.001000,0.001000,0.001000
1018.480769,0.033703,0.001000,0.001000,0.001000,0.001000,0.001000
1018.500000,0.032631,0.001000,0.001000,0.001000,0.001000,0.001000
1018.519231,0.031532,0.001000,0.001000,0.001000,0.001000,0.001000
1018.538462,0.030408,0.001000,0.001000,0.001000,0.001000,0.001000
1018.557692,0.029258,0.001000,0.001000,0.001000,0.001000,0.001000
1018.576923,0.028085,0.001000,0.001000,0.001000,0.001000,0.001000
1018.596154,0.026888,0.001000,0.001000,0.001000,0.001000,0.001000
1018.615385,0.025669,0.001000,0.001000,0.001000,0.001000,0.001000
1018.634615,0.024430,0.001000,0.001000,0.001000,0.001000,0.001000
1018.653846,0.023170,0.001000,0.001000,0.001000,0.001000,0.001000
1018.673077,0.021891,0.001000,0.001000,0.001000,0.001000,0.001000
1018.692308,0.020594,0.001000,0.001000,0.001000,0.001000,0.001000
1018.711538,0.019280,0.001000,0.001000,0.001000,0.001000,0.001000
1018.730769,0.017951,0.001000,0.001000,0.001000,0.001000,0.001000
1018.750000,0.016607,0.001000,0.001000,0.001000,0.001000,0.001000
1018.769231,0.015249,0.001000,0.001000,0.001000,0.001000,0.001000
1018.788462,0.013878,0.001000,0.001000,0.001000,0.001000,0.001000
1018.807692,0.012496,0.001000,0.001000,0.001000,0.001000,0.001000
1018.826923,0.011104,0.001000,0.001000,0.001000,0.001000,0.001000
1018.846154,0.009703,0.001000,0.001000,0.001000,0.001000,0.001000
1018.865385,0.008294,0.001000,0.001000,0.001000,0.001000,0.001000
1018.884615,0.006878,0.001000,0.001000,0.001000,0.001000,0.001000
1018.903846,0.005456,0.001000,0.001000,0.001000,0.001000,0.001000
1018.923077,0.004030,0.001000,0.001000,0.001000,0.001000,0.001000
1018.942308,0.002601,0.001000,0.001000,0.001000,0.001000,0.001000
1018.961538,0.001169,0.001000,0.001000,0.001000,0.001000,0.001000
1018.980769,-0.000263,0.001000,0.001000,0.001000,0.001000,0.001000
1019.000000,-0.001695,0.001000,0.001000,0.001000,0.001000,0.001000
1019.019231,-0.003126,0.001000,0.001000,0.001000,0.001000,0.001000
1019.038462,-0.004555,0.001000,0.001000,0.001000,0.001000,0.001000
1019.057692,-0.005979,0.001000,0.001000,0.001000,0.001000,0.001000
1019.076923,-0.007399,0.001000,0.001000,0.001000,0.001000,0.001000
1019.096154,-0.008812,0.001000,0.001000,0.001000,0.001000,0.001000
1019.115385,-0.010219,0.001000,0.001000,0.001000,0.001000,0.001000
1019.134615,-0.011617,0.001000,0.001000,0.001000,0.001000,0.001000
1019.153846,-0.013005,0.001000,0.001000,0.001000,0.001000,0.001000
1019.173077,-0.014383,0.001000,0.001000,0.001000,0.001000,0.001000
1019.192308,-0.015749,0.001000,0.001000,0.001000,0.001000,0.001000
1019.211538,-0.017102,0.001000,0.001000,0.001000,0.001000,0.001000
1019.230769,-0.018441,0.001000,0.001000,0.001000,0.001000,0.001000
1019.250000,-0.019765,0.001000,0.001000,0.001000,0.001000,0.001000
1019.269231,-0.021072,0.001000,0.001000,0.001000,0.001000,0.001000
1019.288462,-0.022363,0.001000,0.001000,0.001000,0.001000,0.001000
1019.307692,-0.023635,0.001000,0.001000,0.001000,0.001000,0.001000
1019.326923,-0.024887,0.001000,0.001000,0.001000,0.001000,0.001000
1019.346154,-0.026119,0.001000,0.001000,0.001000,0.001000,0.001000
1019.365385,-0.027330,0.001000,0.001000,0.001000,0.001000,0.001000
1019.384615,-0.028518,0.001000,0.001000,0.001000,0.001000,0.001000
1019.403846,-0.029683,0.001000,0.001000,0.001000,0.001000,0.001000
1019.423077,-0.030824,0.001000,0.001000,0.001000,0.001000,0.001000
1019.442308,-0.031939,0.001000,0.001000,0.001000,0.001000,0.001000
1019.461538,-0.033028,0.001000,0.001000,0.001000,0.001000,0.001000
1019.480769,-0.034090,0.001000,0.001000,0.001000,0.001000,0.001000
1019.500000,-0.035124,0.001000,0.001000,0.001000,0.001000,0.001000
1019.519231,-0.036129,0.001000,0.001000,0.001000,0.001000,0.001000
1019.538462,-0.037104,0.001000,0.001000,0.001000,0.001000,0.001000
1019.557692,-0.038049,0.001000,0.001000,0.001000,0.001000,0.001000
1019.576923,-0.038963,0.001000,0.001000,0.001000,0.001000,0.001000
1019.596154,-0.039844,0.001000,0.001000,0.001000,0.001000,0.001000
1019.615385,-0.040693,0.001000,0.001000,0.001000,0.001000,0.001000
1019.634615,-0.041509,0.001000,0.001000,0.001000,0.001000,0.001000
1019.653846,-0.042291,0.001000,0.001000,0.001000,0.001000,0.001000
1019.673077,-0.043037,0.001000,0.001000,0.001000,0.001000,0.001000
1019.692308,-0.043749,0.001000,0.001000,0.001000,0.001000,0.001000
1019.711538,-0.044424,0.001000,0.001000,0.001000,0.001000,0.001000
1019.730769,-0.045064,0.001000,0.001000,0.001000,0.001000,0.001000
1019.750000,-0.045666,0.001000,0.001000,0.001000,0.001000,0.001000
1019.769231,-0.046230,0.001000,0.001000,0.001000,0.001000,0.001000
1019.788462,-0.046757,0.001000,0.001000,0.001000,0.001000,0.001000
1019.807692,-0.047245,0.001000,0.001000,0.001000,0.001000,0.001000
1019.826923,-0.047695,0.001000,0.001000,0.001000,0.001000,0.001000
1019.846154,-0.048105,0.001000,0.001000,0.001000,0.001000,0.001000
1019.865385,-0.048476,0.001000,0.001000,0.001000,0.001000,0.001000
1019.884615,-0.048807,0.001000,0.001000,0.001000,0.001000,0.001000
1019.903846,-0.049098,0.001000,0.001000,0.001000,0.001000,0.001000
1019.923077,-0.049349,0.001000,0.001000,0.001000,0.001000,0.001000
1019.942308,-0.049559,0.001000,0.001000,0.001000,0.001000,0.001000
1019.961538,-0.049728,0.001000,0.001000,0.001000,0.001000,0.001000
1019.980769,-0.049857,0.001000,0.001000,0.001000,0.001000,0.001000
1020.000000,-0.049945,0.001000,0.001000,0.001000,0.001000,0.001000
1020.019231,-0.049992,0.001000,0.001000,0.001000,0.001000,0.001000
1020.038462,-0.049997,0.001000,0.001000,0.001000,0.001000,0.001000
1020.057692,-0.049962,0.001000,0.001000,0.001000,0.001000,0.001000
1020.076923,-0.049886,0.001000,0.001000,0.001000,0.001000,0.001000
1020.096154,-0.049768,0.001000,0.001000,0.001000,0.001000,0.001000
1020.115385,-0.049610,0.001000,0.001000,0.001000,0.001000,0.001000
1020.134615,-0.049411,0.001000,0.001000,0.001000,0.001000,0.001000
1020.153846,-0.049172,0.001000,0.001000,0.001000,0.001000,0.001000
1020.173077,-0.048892,0.001000,0.001000,0.001000,0.001000,0.001000
1020.192308,-0.048572,0.001000,0.001000,0.001000,0.001000,0.001000
1020.211538,-0.048213,0.001000,0.001000,0.001000,0.001000,0.001000
1020.230769,-0.047813,0.001000,0.001000,0.001000,0.001000,0.001000
1020.250000,-0.047375,0.001000,0.001000,0.001000,0.001000,0.001000
1020.269231,-0.046897,0.001000,0.001000,0.001000,0.001000,0.001000
1020.288462,-0.046381,0.001000,0.001000,0.001000,0.001000,0.001000
1020.307692,-0.045827,0.001000,0.001000,0.001000,0.001000,0.001000
1020.326923,-0.045235,0.001000,0.001000,0.001000,0.001000,0.001000
1020.346154,-0.044606,0.001000,0.001000,0.001000,0.001000,0.001000
1020.365385,-0.043941,0.001000,0.001000,0.001000,0.001000,0.001000
1020.384615,-0.043239,0.001000,0.001000,0.001000,0.001000,0.001000
1020.403846,-0.042502,0.001000,0.001000,0.001000,0.001000,0.001000
1020.423077,-0.041731,0.001000,0.001000,0.001000,0.001000,0.001000
1020.442308,-0.040924,0.001000,0.001000,0.001000,0.001000,0.001000
1020.461538,-0.040085,0.001000,0.001000,0.001000,0.001000,0.001000
1020.480769,-0.039212,0.001000,0.001000,0.001000,0.001000,0.001000
1020.500000,-0.038307,0.001000,0.001000,0.001000,0.001000,0.001000
1020.519231,-0.037371,0.001000,0.001000,0.001000,0.001000,0.001000
1020.538462,-0.036404,0.001000,0.001000,0.001000,0.001000,0.001000
1020.557692,-0.035407,0.001000,0.001000,0.001000,0.001000,0.001000
1020.576923,-0.034381,0.001000,0.001000,0.001000,0.001000,0.001000
1020.596154,-0.033327,0.001000,0.001000,0.001000,0.001000,0.001000
1020.615385,-0.032245,0.001000,0.001000,0.001000,0.001000,0.001000
1020.634615,-0.031138,0.001000,0.001000,0.001000,0.001000,0.001000
1020.653846,-0.030004,0.001000,0.001000,0.001000,0.001000,0.001000
1020.673077,-0.028846,0.001000,0.001000,0.001000,0.001000,0.001000
1020.692308,-0.027664,0.001000,0.001000,0.001000,0.001000,0.001000
1020.711538,-0.026459,0.001000,0.001000,0.001000,0.001000,0.001000
1020.730769,-0.025233,0.001000,0.001000,0.001000,0.001000,0.001000
1020.750000,-0.023986,0.001000,0.001000,0.001000,0.001000,0.001000
1020.769231,-0.022720,0.001000,0.001000,0.001000,0.001000,0.001000
1020.788462,-0.021434,0.001000,0.001000,0.001000,0.001000,0.001000
1020.807692,-0.020131,0.001000,0.001000,0.001000,0.001000,0.001000
1020.826923,-0.018812,0.001000,0.001000,0.001000,0.001000,0.001000
1020.846154,-0.017477,0.001000,0.001000,0.001000,0.001000,0.001000
1020.865385,-0.016128,0.001000,0.001000,0.001000,0.001000,0.001000
1020.884615,-0.014765,0.001000,0.001000,0.001000,0.001000,0.001000
1020.903846,-0.013391,0.001000,0.001000,0.001000,0.001000,0.001000
1020.923077,-0.012005,0.001000,0.001000,0.001000,0.001000,0.001000
1020.942308,-0.010610,0.001000,0.001000,0.001000,0.001000,0.001000
1020.961538,-0.009206,0.001000,0.001000,0.001000,0.001000,0.001000
1020.980769,-0.007794,0.001000,0.001000,0.001000,0.001000,0.001000
1021.000000,-0.006376,0.001000,0.001000,0.001000,0.001000,0.001000
1021.019231,-0.004952,0.001000,0.001000,0.001000,0.001000,0.001000
1021.038462,-0.003525,0.001000,0.001000,0.001000,0.001000,0.001000
1021.057692,-0.002095,0.001000,0.001000,0.001000,0.001000,0.001000
1021.076923,-0.000663,0.001000,0.001000,0.001000,0.001000,0.001000
1021.096154,0.000770,0.001000,0.001000,0.001000,0.001000,0.001000
1021.115385,0.002202,0.001000,0.001000,0.001000,0.001000,0.001000
1021.134615,0.003632,0.001000,0.001000,0.001000,0.001000,0.001000
1021.153846,0.005059,0.001000,0.001000,0.001000,0.001000,0.001000
1021.173077,0.006482,0.001000,0.001000,0.001000,0.001000,0.001000
1021.192308,0.007900,0.001000,0.001000,0.001000,0.001000,0.001000
1021.211538,0.009311,0.001000,0.001000,0.001000,0.001000,0.001000
1021.230769,0.010714,0.001000,0.001000,0.001000,0.001000,0.001000
1021.250000,0.012109,0.001000,0.001000,0.001000,0.001000,0.001000
1021.269231,0.013494,0.001000,0.001000,0.001000,0.001000,0.001000
1021.288462,0.014868,0.001000,0.001000,0.001000,0.001000,0.001000
1021.307692,0.016229,0.001000,0.001000,0.001000,0.001000,0.001000
1021.326923,0.017577,0.001000,0.001000,0.001000,0.001000,0.001000
1021.346154,0.018911,0.001000,0.001000,0.001000,0.001000,0.001000
1021.365385,0.020229,0.001000,0.001000,0.001000,0.001000,0.001000
1021.384615,0.021531,0.001000,0.001000,0.001000,0.001000,0.001000
1021.403846,0.022815,0.001000,0.001000,0.001000,0.001000,0.001000
1021.423077,0.024080,0.001000,0.001000,0.001000,0.001000,0.001000
1021.442308,0.025326,0.001000,0.001000,0.001000,0.001000,0.001000
1021.461538,0.026550,0.001000,0.001000,0.001000,0.001000,0.001000
1021.480769,0.027753,0.001000,0.001000,0.001000,0.001000,0.001000
1021.500000,0.028933,0.001000,0.001000,0.001000,0.001000,0.001000
1021.519231,0.030090,0.001000,0.001000,0.001000,0.001000,0.001000
1021.538462,0.031221,0.001000,0.001000,0.001000,0.001000,0.001000
1021.557692,0.032327,0.001000,0.001000,0.001000,0.001000,0.001000
1021.576923,0.033407,0.001000,0.001000,0.001000,0.001000,0.001000
1021.596154,0.034459,0.001000,0.001000,0.001000,0.001000,0.001000
1021.615385,0.035483,0.001000,0.001000,0.001000,0.001000,0.001000
1021.634615,0.036477,0.001000,0.001000,0.001000,0.001000,0.001000
1021.653846,0.037442,0.001000,0.001000,0.001000,0.001000,0.001000
1021.673077,0.038376,0.001000,0.001000,0.001000,0.001000,0.001000
1021.692308,0.039278,0.001000,0.001000,0.001000,0.001000,0.001000
1021.711538,0.040149,0.001000,0.001000,0.001000,0.001000,0.001000
1021.730769,0.040986,0.001000,0.001000,0.001000,0.001000,0.001000
1021.750000,0.041789,0.001000,0.001000,0.001000,0.001000,0.001000
1021.769231,0.042559,0.001000,0.001000,0.001000,0.001000,0.001000
1021.788462,0.043293,0.001000,0.001000,0.001000,0.001000,0.001000
1021.807692,0.043992,0.001000,0.001000,0.001000,0.001000,0.001000
1021.826923,0.044655,0.001000,0.001000,0.001000,0.001000,0.001000
1021.846154,0.045281,0.001000,0.001000,0.001000,0.001000,0.001000
1021.865385,0.045870,0.001000,0.001000,0.001000,0.001000,0.001000
1021.884615,0.046421,0.001000,0.001000,0.001000,0.001000,0.001000
1021.903846,0.046934,0.001000,0.001000,0.001000,0.001000,0.001000
1021.923077,0.047409,0.001000,0.001000,0.001000,0.001000,0.001000
1021.942308,0.047844,0.001000,0.001000,0.001000,0.001000,0.001000
1021.961538,0.048241,0.001000,0.001000,0.001000,0.001000,0.001000
1021.980769,0.048598,0.001000,0.001000,0.001000,0.001000,0.001000
1022.000000,0.048915,0.001000,0.001000,0.001000,0.001000,0.001000
1022.019231,0.049191,0.001000,0.001000,0.001000,0.001000,0.001000
1022.038462,0.049428,0.001000,0.001000,0.001000,0.001000,0.001000
1022.057692,0.049624,0.001000,0.001000,0.001000,0.001000,0.001000
1022.076923,0.049779,0.001000,0.001000,0.001000,0.001000,0.001000
1022.096154,0.049893,0.001000,0.001000,0.001000,0.001000,0.001000
1022.115385,0.049966,0.001000,0.001000,0.001000,0.001000,0.001000
1022.134615,0.049998,0.001000,0.001000,0.001000,0.001000,0.001000
1022.153846,0.049990,0.001000,0.001000,0.001000,0.001000,0.001000
1022.173077,0.049940,0.001000,0.001000,0.001000,0.001000,0.001000
1022.192308,0.049849,0.001000,0.001000,0.001000,0.001000,0.001000
1022.211538,0.049717,0.001000,0.001000,0.001000,0.001000,0.001000
1022.230769,0.049545,0.001000,0.001000,0.001000,0.001000,0.001000
1022.250000,0.049331,0.001000,0.001000,0.001000,0.001000,0.001000
1022.269231,0.049078,0.001000,0.001000,0.001000,0.001000,0.001000
1022.288462,0.048784,0.001000,0.001000,0.001000,0.001000,0.001000
1022.307692,0.048450,0.001000,0.001000,0.001000,0.001000,0.001000
1022.326923,0.048076,0.001000,0.001000,0.001000,0.001000,0.001000
1022.346154,0.047662,0.001000,0.001000,0.001000,0.001000,0.001000
1022.365385,0.047210,0.001000,0.001000,0.001000,0.001000,0.001000
1022.384615,0.046719,0.001000,0.001000,0.001000,0.001000,0.001000
1022.403846,0.046189,0.001000,0.001000,0.001000,0.001000,0.001000
1022.423077,0.045622,0.001000,0.001000,0.001000,0.001000,0.001000
1022.442308,0.045017,0.001000,0.001000,0.001000,0.001000,0.001000
1022.461538,0.044375,0.001000,0.001000,0.001000,0.001000,0.001000
1022.480769,0.043697,0.001000,0.001000,0.001000,0.001000,0.001000
1022.500000,0.042983,0.001000,0.001000,0.001000,0.001000,0.001000
1022.519231,0.042233,0.001000,0.001000,0.001000,0.001000,0.001000
1022.538462,0.041449,0.001000,0.001000,0.001000,0.001000,0.001000
1022.557692,0.040631,0.001000,0.001000,0.001000,0.001000,0.001000
1022.576923,0.039780,0.001000,0.001000,0.001000,0.001000,0.001000
1022.596154,0.038896,0.001000,0.001000,0.001000,0.001000,0.001000
1022.615385,0.037979,0.001000,0.001000,0.001000,0.001000,0.001000
1022.634615,0.037032,0.001000,0.001000,0.001000,0.001000,0.001000
1022.653846,0.036055,0.001000,0.001000,0.001000,0.001000,0.001000
1022.673077,0.035047,0.001000,0.001000,0.001000,0.001000,0.001000
1022.692308,0.034011,0.001000,0.001000,0.001000,0.001000,0.001000
1022.711538,0.032947,0.001000,0.001000,0.001000,0.001000,0.001000
1022.730769,0.031857,0.001000,0.001000,0.001000,0.001000,0.001000
1022.750000,0.030739,0.001000,0.001000,0.001000,0.001000,0.001000
1022.769231,0.029597,0.001000,0.001000,0.001000,0.001000,0.001000
1022.788462,0.028430,0.001000,0.001000,0.001000,0.001000,0.001000
1022.807692,0.027240,0.001000,0.001000,0.001000,0.001000,0.001000
1022.826923,0.026028,0.001000,0.001000,0.001000,0.001000,0.001000
1022.846154,0.024794,0.001000,0.001000,0.001000,0.001000,0.001000
1022.865385,0.023540,0.001000,0.001000,0.001000,0.001000,0.001000
1022.884615,0.022267,0.001000,0.001000,0.001000,0.001000,0.001000
1022.903846,0.020975,0.001000,0.001000,0.001000,0.001000,0.001000
1022.923077,0.019666,0.001000,0.001000,0.001000,0.001000,0.001000
1022.942308,0.018341,0.001000,0.001000,0.001000,0.001000,0.001000
1022.961538,0.017001,0.001000,0.001000,0.001000,0.001000,0.001000
1022.980769,0.015647,0.001000,0.001000,0.001000,0.001000,0.001000
1023.000000,0.014280,0.001000,0.001000,0.001000,0.001000,0.001000
1023.019231,0.012902,0.001000,0.001000,0.001000,0.001000,0.001000
1023.038462,0.011513,0.001000,0.001000,0.001000,0.001000,0.001000
1023.057692,0.010114,0.001000,0.001000,0.001000,0.001000,0.001000
1023.076923,0.008707,0.001000,0.001000,0.001000,0.001000,0.001000
1023.096154,0.007293,0.001000,0.001000,0.001000,0.001000,0.001000
1023.115385,0.005873,0.001000,0.001000,0.001000,0.001000,0.001000
1023.134615,0.004448,0.001000,0.001000,0.001000,0.001000,0.001000
1023.153846,0.003019,0.001000,0.001000,0.001000,0.001000,0.001000
1023.173077,0.001588,0.001000,0.001000,0.001000,0.001000,0.001000
1023.192308,0.000156,0.001000,0.001000,0.001000,0.001000,0.001000
1023.211538,-0.001276,0.001000,0.001000,0.001000,0.001000,0.001000
1023.230769,-0.002708,0.001000,0.001000,0.001000,0.001000,0.001000
1023.250000,-0.004137,0.001000,0.001000,0.001000,0.001000,0.001000
1023.269231,-0.005563,0.001000,0.001000,0.001000,0.001000,0.001000
1023.288462,-0.006984,0.001000,0.001000,0.001000,0.001000,0.001000
1023.307692,-0.008400,0.001000,0.001000,0.001000,0.001000,0.001000
1023.326923,-0.009808,0.001000,0.001000,0.001000,0.001000,0.001000
1023.346154,-0.011209,0.001000,0.001000,0.001000,0.001000,0.001000
1023.365385,-0.012600,0.001000,0.001000,0.001000,0.001000,0.001000
1023.384615,-0.013981,0.001000,0.001000,0.001000,0.001000,0.001000
1023.403846,-0.015351,0.001000,0.001000,0.001000,0.001000,0.001000
1023.423077,-0.016708,0.001000,0.001000,0.001000,0.001000,0.001000
1023.442308,-0.018051,0.001000,0.001000,0.001000,0.001000,0.001000
1023.461538,-0.019379,0.001000,0.001000,0.001000,0.001000,0.001000
1023.480769,-0.020692,0.001000,0.001000,0.001000,0.001000,0.001000
1023.500000,-0.021987,0.001000,0.001000,0.001000,0.001000,0.001000
1023.519231,-0.023265,0.001000,0.001000,0.001000,0.001000,0.001000
1023.538462,-0.024523,0.001000,0.001000,0.001000,0.001000,0.001000
1023.557692,-0.025761,0.001000,0.001000,0.001000,0.001000,0.001000
1023.576923,-0.026978,0.001000,0.001000,0.001000,0.001000,0.001000
1023.596154,-0.028173,0.001000,0.001000,0.001000,0.001000,0.001000
1023.615385,-0.029345,0.001000,0.001000,0.001000,0.001000,0.001000
1023.634615,-0.030493,0.001000,0.001000,0.001000,0.001000,0.001000
1023.653846,-0.031615,0.001000,0.001000,0.001000,0.001000,0.001000
1023.673077,-0.032712,0.001000,0.001000,0.001000,0.001000,0.001000
1023.692308,-0.033782,0.001000,0.001000,0.001000,0.001000,0.001000
1023.711538,-0.034824,0.001000,0.001000,0.001000,0.001000,0.001000
1023.730769,-0.035838,0.001000,0.001000,0.001000,0.001000,0.001000
1023.750000,-0.036822,0.001000,0.001000,0.001000,0.001000,0.001000
1023.769231,-0.037776,0.001000,0.001000,0.001000,0.001000,0.001000
1023.788462,-0.038699,0.001000,0.001000,0.001000,0.001000,0.001000
1023.807692,-0.039590,0.001000,0.001000,0.001000,0.001000,0.001000
1023.826923,-0.040449,0.001000,0.001000,0.001000,0.001000,0.001000
1023.846154,-0.041274,0.001000,0.001000,0.001000,0.001000,0.001000
1023.865385,-0.042066,0.001000,0.001000,0.001000,0.001000,0.001000
1023.884615,-0.042823,0.001000,0.001000,0.001000,0.001000,0.001000
1023.903846,-0.043544,0.001000,0.001000,0.001000,0.001000,0.001000
1023.923077,-0.044231,0.001000,0.001000,0.001000,0.001000,0.001000
1023.942308,-0.044880,0.001000,0.001000,0.001000,0.001000,0.001000
1023.961538,-0.045493,0.001000,0.001000,0.001000,0.001000,0.001000
1023.980769,-0.046069,0.001000,0.001000,0.001000,0.001000,0.001000
1024.000000,-0.046607,0.001000,0.001000,0.001000,0.001000,0.001000
1024.019231,-0.047106,0.001000,0.001000,0.001000,0.001000,0.001000
1024.038462,-0.047567,0.001000,0.001000,0.001000,0.001000,0.001000
1024.057692,-0.047989,0.001000,0.001000,0.001000,0.001000,0.001000
1024.076923,-0.048372,0.001000,0.001000,0.001000,0.001000,0.001000
1024.096154,-0.048714,0.001000,0.001000,0.001000,0.001000,0.001000
1024.115385,-0.049017,0.001000,0.001000,0.001000,0.001000,0.001000
1024.134615,-0.049280,0.001000,0.001000,0.001000,0.001000,0.001000
1024.153846,-0.049502,0.001000,0.001000,0.001000,0.001000,0.001000
1024.173077,-0.049683,0.001000,0.001000,0.001000,0.001000,0.001000
1024.192308,-0.049824,0.001000,0.001000,0.001000,0.001000,0.001000
1024.211538,-0.049923,0.001000,0.001000,0.001000,0.001000,0.001000
1024.230769,-0.049982,0.001000,0.001000,0.001000,0.001000,0.001000
1024.250000,-0.050000,0.001000,0.001000,0.001000,0.001000,0.001000
1024.269231,-0.049977,0.001000,0.001000,0.001000,0.001000,0.001000
1024.288462,-0.049912,0.001000,0.001000,0.001000,0.001000,0.001000
1024.307692,-0.049807,0.001000,0.001000,0.001000,0.001000,0.001000
1024.326923,-0.049661,0.001000,0.001000,0.001000,0.001000,0.001000
1024.346154,-0.049474,0.001000,0.001000,0.001000,0.001000,0.001000
1024.365385,-0.049246,0.001000,0.001000,0.001000,0.001000,0.001000
1024.384615,-0.048978,0.001000,0.001000,0.001000,0.001000,0.001000
1024.403846,-0.048670,0.001000,0.001000,0.001000,0.001000,0.001000
1024.423077,-0.048322,0.001000,0.001000,0.001000,0.001000,0.001000
1024.442308,-0.047934,0.001000,0.001000,0.001000,0.001000,0.001000
1024.461538,-0.047507,0.001000,0.001000,0.001000,0.001000,0.001000
1024.480769,-0.047041,0.001000,0.001000,0.001000,0.001000,0.001000
1024.500000,-0.046536,0.001000,0.001000,0.001000,0.001000,0.001000
1024.519231,-0.045993,0.001000,0.001000,0.001000,0.001000,0.001000
1024.538462,-0.045412,0.001000,0.001000,0.001000,0.001000,0.001000
1024.557692,-0.044794,0.001000,0.001000,0.001000,0.001000,0.001000
1024.576923,-0.044139,0.001000,0.001000,0.001000,0.001000,0.001000
1024.596154,-0.043448,0.001000,0.001000,0.001000,0.001000,0.001000
1024.615385,-0.042722,0.001000,0.001000,0.001000,0.001000,0.001000
1024.634615,-0.041960,0.001000,0.001000,0.001000,0.001000,0.001000
1024.653846,-0.041164,0.001000,0.001000,0.001000,0.001000,0.001000
1024.673077,-0.040334,0.001000,0.001000,0.001000,0.001000,0.001000
1024.692308,-0.039471,0.001000,0.001000,0.001000,0.001000,0.001000
1024.711538,-0.038575,0.001000,0.001000,0.001000,0.001000,0.001000
1024.730769,-0.037648,0.001000,0.001000,0.001000,0.001000,0.001000
1024.750000,-0.036690,0.001000,0.001000,0.001000,0.001000,0.001000
1024.769231,-0.035702,0.001000,0.001000,0.001000,0.001000,0.001000
1024.788462,-0.034684,0.001000,0.001000,0.001000,0.001000,0.001000
1024.807692,-0.033638,0.001000,0.001000,0.001000,0.001000,0.001000
1024.826923,-0.032565,0.001000,0.001000,0.001000,0.001000,0.001000
1024.846154,-0.031464,0.001000,0.001000,0.001000,0.001000,0.001000
1024.865385,-0.030338,0.001000,0.001000,0.001000,0.001000,0.001000
1024.884615,-0.029187,0.001000,0.001000,0.001000,0.001000,0.001000
1024.903846,-0.028012,0.001000,0.001000,0.001000,0.001000,0.001000
1024.923077,-0.026814,0.001000,0.001000,0.001000,0.001000,0.001000
1024.942308,-0.025594,0.001000,0.001000,0.001000,0.001000,0.001000
1024.961538,-0.024353,0.001000,0.001000,0.001000,0.001000,0.001000
1024.980769,-0.023092,0.001000,0.001000,0.001000,0.001000,0.001000
1025.000000,-0.021812,0.001000,0.001000,0.001000,0.001000,0.001000
1025.019231,-0.020514,0.001000,0.001000,0.001000,0.001000,0.001000
1025.038462,-0.019199,0.001000,0.001000,0.001000,0.001000,0.001000
1025.057692,-0.017869,0.001000,0.001000,0.001000,0.001000,0.001000
1025.076923,-0.016524,0.001000,0.001000,0.001000,0.001000,0.001000
1025.096154,-0.015165,0.001000,0.001000,0.001000,0.001000,0.001000
1025.115385,-0.013794,0.001000,0.001000,0.001000,0.001000,0.001000
1025.134615,-0.012412,0.001000,0.001000,0.001000,0.001000,0.001000
1025.153846,-0.011019,0.001000,0.001000,0.001000,0.001000,0.001000
1025.173077,-0.009617,0.001000,0.001000,0.001000,0.001000,0.001000
1025.192308,-0.008208,0.001000,0.001000,0.001000,0.001000,0.001000
1025.211538,-0.006791,0.001000,0.001000,0.001000,0.001000,0.001000
1025.230769,-0.005369,0.001000,0.001000,0.001000,0.001000,0.001000
1025.250000,-0.003943,0.001000,0.001000,0.001000,0.001000,0.001000
1025.269231,-0.002513,0.001000,0.001000,0.001000,0.001000,0.001000
1025.288462,-0.001082,0.001000,0.001000,0.001000,0.001000,0.001000
1025.307692,0.000351,0.001000,0.001000,0.001000,0.001000,0.001000
1025.326923,0.001783,0.001000,0.001000,0.001000,0.001000,0.001000
1025.346154,0.003214,0.001000,0.001000,0.001000,0.001000,0.001000
1025.365385,0.004642,0.001000,0.001000,0.001000,0.001000,0.001000
1025.384615,0.006066,0.001000,0.001000,0.001000,0.001000,0.001000
1025.403846,0.007486,0.001000,0.001000,0.001000,0.001000,0.001000
1025.423077,0.008899,0.001000,0.001000,0.001000,0.001000,0.001000
1025.442308,0.010305,0.001000,0.001000,0.001000,0.001000,0.001000
1025.461538,0.011702,0.001000,0.001000,0.001000,0.001000,0.001000
1025.480769,0.013090,0.001000,0.001000,0.001000,0.001000,0.001000
1025.500000,0.014467,0.001000,0.001000,0.001000,0.001000,0.001000
1025.519231,0.015832,0.001000,0.001000,0.001000,0.001000,0.001000
1025.538462,0.017184,0.001000,0.001000,0.001000,0.001000,0.001000
1025.557692,0.018522,0.001000,0.001000,0.001000,0.001000,0.001000
1025.576923,0.019845,0.001000,0.001000,0.001000,0.001000,0.001000
1025.596154,0.021152,0.001000,0.001000,0.001000,0.001000,0.001000
1025.615385,0.022441,0.001000,0.001000,0.001000,0.001000,0.001000
1025.634615,0.023712,0.001000,0.001000,0.001000,0.001000,0.001000
1025.653846,0.024963,0.001000,0.001000,0.001000,0.001000,0.001000
1025.673077,0.026194,0.001000,0.001000,0.001000,0.001000,0.001000
1025.692308,0.027404,0.001000,0.001000,0.001000,0.001000,0.001000
1025.711538,0.028590,0.001000,0.001000,0.001000,0.001000,0.001000
1025.730769,0.029754,0.001000,0.001000,0.001000,0.001000,0.001000
1025.750000,0.030893,0.001000,0.001000,0.001000,0.001000,0.001000
1025.769231,0.032006,0.001000,0.001000,0.001000,0.001000,0.001000
1025.788462,0.033094,0.001000,0.001000,0.001000,0.001000,0.001000
1025.807692,0.034154,0.001000,0.001000,0.001000,0.001000,0.001000
1025.826923,0.035186,0.001000,0.001000,0.001000,0.001000,0.001000
1025.846154,0.036189,0.001000,0.001000,0.001000,0.001000,0.001000
1025.865385,0.037163,0.001000,0.001000,0.001000,0.001000,0.001000
1025.884615,0.038106,0.001000,0.001000,0.001000,0.001000,0.001000
1025.903846,0.039018,0.001000,0.001000,0.001000,0.001000,0.001000
1025.923077,0.039897,0.001000,0.001000,0.001000,0.001000,0.001000
1025.942308,0.040744,0.001000,0.001000,0.001000,0.001000,0.001000
1025.961538,0.041558,0.001000,0.001000,0.001000,0.001000,0.001000
1025.980769,0.042337,0.001000,0.001000,0.001000,0.001000,0.001000
1026.000000,0.043082,0.001000,0.001000,0.001000,0.001000,0.001000
1026.019231,0.043791,0.001000,0.001000,0.001000,0.001000,0.001000
1026.038462,0.044465,0.001000,0.001000,0.001000,0.001000,0.001000
1026.057692,0.045101,0.001000,0.001000,0.001000,0.001000,0.001000
1026.076923,0.045701,0.001000,0.001000,0.001000,0.001000,0.001000
1026.096154,0.046264,0.001000,0.001000,0.001000,0.001000,0.001000
1026.115385,0.046788,0.001000,0.001000,0.001000,0.001000,0.001000
1026.134615,0.047274,0.001000,0.001000,0.001000,0.001000,0.001000
1026.153846,0.047721,0.001000,0.001000,0.001000,0.001000,0.001000
1026.173077,0.048129,0.001000,0.001000,0.001000,0.001000,0.001000
1026.192308,0.048497,0.001000,0.001000,0.001000,0.001000,0.001000
1026.211538,0.048826,0.001000,0.001000,0.001000,0.001000,0.001000
1026.230769,0.049114,0.001000,0.001000,0.001000,0.001000,0.001000
1026.250000,0.049363,0.001000,0.001000,0.001000,0.001000,0.001000
1026.269231,0.049570,0.001000,0.001000,0.001000,0.001000,0.001000
1026.288462,0.049737,0.001000,0.001000,0.001000,0.001000,0.001000
1026.307692,0.049864,0.001000,0.001000,0.001000,0.001000,0.001000
1026.326923,0.049949,0.001000,0.001000,0.001000,0.001000,0.001000
1026.346154,0.049993,0.001000,0.001000,0.001000,0.001000,0.001000
1026.365385,0.049996,0.001000,0.001000,0.001000,0.001000,0.001000
1026.384615,0.049959,0.001000,0.001000,0.001000,0.001000,0.001000
1026.403846,0.049880,0.001000,0.001000,0.001000,0.001000,0.001000
1026.423077,0.049760,0.001000,0.001000,0.001000,0.001000,0.001000
1026.442308,0.049599,0.001000,0.001000,0.001000,0.001000,0.001000
1026.461538,0.049398,0.001000,0.001000,0.001000,0.001000,0.001000
1026.480769,0.049156,0.001000,0.001000,0.001000,0.001000,0.001000
1026.500000,0.048874,0.001000,0.001000,0.001000,0.001000,0.001000
1026.519231,0.048551,0.001000,0.001000,0.001000,0.001000,0.001000
1026.538462,0.048189,0.001000,0.001000,0.001000,0.001000,0.001000
1026.557692,0.047787,0.001000,0.001000,0.001000,0.001000,0.001000
1026.576923,0.047346,0.001000,0.001000,0.001000,0.001000,0.001000
1026.596154,0.046867,0.001000,0.001000,0.001000,0.001000,0.001000
1026.615385,0.046348,0.001000,0.001000,0.001000,0.001000,0.001000
1026.634615,0.045792,0.001000,0.001000,0.001000,0.001000,0.001000
1026.653846,0.045198,0.001000,0.001000,0.001000,0.001000,0.001000
1026.673077,0.044567,0.001000,0.001000,0.001000,0.001000,0.001000
1026.692308,0.043899,0.001000,0.001000,0.001000,0.001000,0.001000
1026.711538,0.043195,0.001000,0.001000,0.001000,0.001000,0.001000
1026.730769,0.042456,0.001000,0.001000,0.001000,0.001000,0.001000
1026.750000,0.041682,0.001000,0.001000,0.001000,0.001000,0.001000
1026.769231,0.040874,0.001000,0.001000,0.001000,0.001000,0.001000
1026.788462,0.040032,0.001000,0.001000,0.001000,0.001000,0.001000
1026.807692,0.039158,0.001000,0.001000,0.001000,0.001000,0.001000
1026.826923,0.038251,0.001000,0.001000,0.001000,0.001000,0.001000
1026.846154,0.037313,0.001000,0.001000,0.001000,0.001000,0.001000
1026.865385,0.036344,0.001000,0.001000,0.001000,0.001000,0.001000
1026.884615,0.035345,0.001000,0.001000,0.001000,0.001000,0.001000
1026.903846,0.034317,0.001000,0.001000,0.001000,0.001000,0.001000
1026.923077,0.033262,0.001000,0.001000,0.001000,0.001000,0.001000
1026.942308,0.032178,0.001000,0.001000,0.001000,0.001000,0.001000
1026.961538,0.031069,0.001000,0.001000,0.001000,0.001000,0.001000
1026.980769,0.029934,0.001000,0.001000,0.001000,0.001000,0.001000
1027.000000,0.028774,0.001000,0.001000,0.001000,0.001000,0.001000
1027.019231,0.027591,0.001000,0.001000,0.001000,0.001000,0.001000
1027.038462,0.026385,0.001000,0.001000,0.001000,0.001000,0.001000
1027.057692,0.025157,0.001000,0.001000,0.001000,0.001000,0.001000
1027.076923,0.023909,0.001000,0.001000,0.001000,0.001000,0.001000
1027.096154,0.022641,0.001000,0.001000,0.001000,0.001000,0.001000
1027.115385,0.021355,0.001000,0.001000,0.001000,0.001000,0.001000
1027.134615,0.020051,0.001000,0.001000,0.001000,0.001000,0.001000
1027.153846,0.018731,0.001000,0.001000,0.001000,0.001000,0.001000
1027.173077,0.017395,0.001000,0.001000,0.001000,0.001000,0.001000
1027.192308,0.016045,0.001000,0.001000,0.001000,0.001000,0.001000
1027.211538,0.014682,0.001000,0.001000,0.001000,0.001000,0.001000
1027.230769,0.013306,0.001000,0.001000,0.001000,0.001000,0.001000
1027.250000,0.011920,0.001000,0.001000,0.001000,0.001000,0.001000
1027.269231,0.010524,0.001000,0.001000,0.001000,0.001000,0.001000
1027.288462,0.009119,0.001000,0.001000,0.001000,0.001000,0.001000
1027.307692,0.007707,0.001000,0.001000,0.001000,0.001000,0.001000
1027.326923,0.006289,0.001000,0.001000,0.001000,0.001000,0.001000
1027.346154,0.004865,0.001000,0.001000,0.001000,0.001000,0.001000
1027.365385,0.003438,0.001000,0.001000,0.001000,0.001000,0.001000
1027.384615,0.002007,0.001000,0.001000,0.001000,0.001000,0.001000
1027.403846,0.000575,0.001000,0.001000,0.001000,0.001000,0.001000
1027.423077,-0.000857,0.001000,0.001000,0.001000,0.001000,0.001000
1027.442308,-0.002289,0.001000,0.001000,0.001000,0.001000,0.001000
1027.461538,-0.003719,0.001000,0.001000,0.001000,0.001000,0.001000
1027.480769,-0.005146,0.001000,0.001000,0.001000,0.001000,0.001000
1027.500000,-0.006569,0.001000,0.001000,0.001000,0.001000,0.001000
1027.519231,-0.007986,0.001000,0.001000,0.001000,0.001000,0.001000
1027.538462,-0.009397,0.001000,0.001000,0.001000,0.001000,0.001000
1027.557692,-0.010800,0.001000,0.001000,0.001000,0.001000,0.001000
1027.576923,-0.012194,0.001000,0.001000,0.001000,0.001000,0.001000
1027.596154,-0.013578,0.001000,0.001000,0.001000,0.001000,0.001000
1027.615385,-0.014951,0.001000,0.001000,0.001000,0.001000,0.001000
1027.634615,-0.016312,0.001000,0.001000,0.001000,0.001000,0.001000
1027.653846,-0.017659,0.001000,0.001000,0.001000,0.001000,0.001000
1027.673077,-0.018992,0.001000,0.001000,0.001000,0.001000,0.001000
1027.692308,-0.020309,0.001000,0.001000,0.001000,0.001000,0.001000
1027.711538,-0.021610,0.001000,0.001000,0.001000,0.001000,0.001000
1027.730769,-0.022893,0.001000,0.001000,0.001000,0.001000,0.001000
1027.750000,-0.024157,0.001000,0.001000,0.001000,0.001000,0.001000
1027.769231,-0.025401,0.001000,0.001000,0.001000,0.001000,0.001000
1027.788462,-0.026625,0.001000,0.001000,0.001000,0.001000,0.001000
1027.807692,-0.027826,0.001000,0.001000,0.001000,0.001000,0.001000
1027.826923,-0.029005,0.001000,0.001000,0.001000,0.001000,0.001000
1027.846154,-0.030160,0.001000,0.001000,0.001000,0.001000,0.001000
1027.865385,-0.031290,0.001000,0.001000,0.001000,0.001000,0.001000
1027.884615,-0.032394,0.001000,0.001000,0.001000,0.001000,0.001000
1027.903846,-0.033472,0.001000,0.001000,0.001000,0.001000,0.001000
1027.923077,-0.034522,0.001000,0.001000,0.001000,0.001000,0.001000
1027.942308,-0.035544,0.001000,0.001000,0.001000,0.001000,0.001000
1027.961538,-0.036537,0.001000,0.001000,0.001000,0.001000,0.001000
1027.980769,-0.037500,0.001000,0.001000,0.001000,0.001000,0.001000
1028.000000,-0.038432,0.001000,0.001000,0.001000,0.001000,0.001000
1028.019231,-0.039333,0.001000,0.001000,0.001000,0.001000,0.001000
1028.038462,-0.040201,0.001000,0.001000,0.001000,0.001000,0.001000
1028.057692,-0.041036,0.001000,0.001000,0.001000,0.001000,0.001000
1028.076923,-0.041838,0.001000,0.001000,0.001000,0.001000,0.001000
1028.096154,-0.042605,0.001000,0.001000,0.001000,0.001000,0.001000
1028.115385,-0.043337,0.001000,0.001000,0.001000,0.001000,0.001000
1028.134615,-0.044034,0.001000,0.001000,0.001000,0.001000,0.001000
1028.153846,-0.044694,0.001000,0.001000,0.001000,0.001000,0.001000
1028.173077,-0.045318,0.001000,0.001000,0.001000,0.001000,0.001000
1028.192308,-0.045904,0.001000,0.001000,0.001000,0.001000,0.001000
1028.211538,-0.046453,0.001000,0.001000,0.001000,0.001000,0.001000
1028.230769,-0.046964,0.001000,0.001000,0.001000,0.001000,0.001000
1028.250000,-0.047436,0.001000,0.001000,0.001000,0.001000,0.001000
1028.269231,-0.047870,0.001000,0.001000,0.001000,0.001000,0.001000
1028.288462,-0.048264,0.001000,0.001000,0.001000,0.001000,0.001000
1028.307692,-0.048618,0.001000,0.001000,0.001000,0.001000,0.001000
1028.326923,-0.048933,0.001000,0.001000,0.001000,0.001000,0.001000
1028.346154,-0.049207,0.001000,0.001000,0.001000,0.001000,0.001000
1028.365385,-0.049441,0.001000,0.001000,0.001000,0.001000,0.001000
1028.384615,-0.049634,0.001000,0.001000,0.001000,0.001000,0.001000
1028.403846,-0.049787,0.001000,0.001000,0.001000,0.001000,0.001000
1028.423077,-0.049898,0.001000,0.001000,0.001000,0.001000,0.001000
1028.442308,-0.049969,0.001000,0.001000,0.001000,0.001000,0.001000
1028.461538,-0.049999,0.001000,0.001000,0.001000,0.001000,0.001000
1028.480769,-0.049988,0.001000,0.001000,0.001000,0.001000,0.001000
1028.500000,-0.049935,0.001000,0.001000,0.001000,0.001000,0.001000
1028.519231,-0.049842,0.001000,0.001000,0.001000,0.001000,0.001000
1028.538462,-0.049708,0.001000,0.001000,0.001000,0.001000,0.001000
1028.557692,-0.049533,0.001000,0.001000,0.001000,0.001000,0.001000
1028.576923,-0.049317,0.001000,0.001000,0.001000,0.001000,0.001000
1028.596154,-0.049061,0.001000,0.001000,0.001000,0.001000,0.001000
1028.615385,-0.048764,0.001000,0.001000,0.001000,0.001000,0.001000
1028.634615,-0.048428,0.001000,0.001000,0.001000,0.001000,0.001000
1028.653846,-0.048052,0.001000,0.001000,0.001000,0.001000,0.001000
1028.673077,-0.047636,0.001000,0.001000,0.001000,0.001000,0.001000
1028.692308,-0.047181,0.001000,0.001000,0.001000,0.001000,0.001000
1028.711538,-0.046688,0.001000,0.001000,0.001000,0.001000,0.001000
1028.730769,-0.046156,0.001000,0.001000,0.001000,0.001000,0.001000
1028.750000,-0.045586,0.001000,0.001000,0.001000,0.001000,0.001000
1028.769231,-0.044979,0.001000,0.001000,0.001000,0.001000,0.001000
1028.788462,-0.044335,0.001000,0.001000,0.001000,0.001000,0.001000
1028.807692,-0.043654,0.001000,0.001000,0.001000,0.001000,0.001000
1028.826923,-0.042938,0.001000,0.001000,0.001000,0.001000,0.001000
1028.846154,-0.042186,0.001000,0.001000,0.001000,0.001000,0.001000
1028.865385,-0.041400,0.001000,0.001000,0.001000,0.001000,0.001000
1028.884615,-0.040580,0.001000,0.001000,0.001000,0.001000,0.001000
1028.903846,-0.039726,0.001000,0.001000,0.001000,0.001000,0.001000
1028.923077,-0.038840,0.001000,0.001000,0.001000,0.001000,0.001000
1028.942308,-0.037922,0.001000,0.001000,0.001000,0.001000,0.001000
1028.961538,-0.036973,0.001000,0.001000,0.001000,0.001000,0.001000
1028.980769,-0.035994,0.001000,0.001000,0.001000,0.001000,0.001000
1029.000000,-0.034985,0.001000,0.001000,0.001000,0.001000,0.001000
1029.019231,-0.033947,0.001000,0.001000,0.001000,0.001000,0.001000
1029.038462,-0.032881,0.001000,0.001000,0.001000,0.001000,0.001000
1029.057692,-0.031789,0.001000,0.001000,0.001000,0.001000,0.001000
1029.076923,-0.030670,0.001000,0.001000,0.001000,0.001000,0.001000
1029.096154,-0.029526,0.001000,0.001000,0.001000,0.001000,0.001000
1029.115385,-0.028358,0.001000,0.001000,0.001000,0.001000,0.001000
1029.134615,-0.027167,0.001000,0.001000,0.001000,0.001000,0.001000
1029.153846,-0.025953,0.001000,0.001000,0.001000,0.001000,0.001000
1029.173077,-0.024718,0.001000,0.001000,0.001000,0.001000,0.001000
1029.192308,-0.023463,0.001000,0.001000,0.001000,0.001000,0.001000
1029.211538,-0.022188,0.001000,0.001000,0.001000,0.001000,0.001000
1029.230769,-0.020896,0.001000,0.001000,0.001000,0.001000,0.001000
1029.250000,-0.019586,0.001000,0.001000,0.001000,0.001000,0.001000
1029.269231,-0.018260,0.001000,0.001000,0.001000,0.001000,0.001000
1029.288462,-0.016919,0.001000,0.001000,0.001000,0.001000,0.001000
1029.307692,-0.015564,0.001000,0.001000,0.001000,0.001000,0.001000
1029.326923,-0.014196,0.001000,0.001000,0.001000,0.001000,0.001000
1029.346154,-0.012817,0.001000,0.001000,0.001000,0.001000,0.001000
1029.365385,-0.011427,0.001000,0.001000,0.001000,0.001000,0.001000
1029.384615,-0.010028,0.001000,0.001000,0.001000,0.001000,0.001000
1029.403846,-0.008621,0.001000,0.001000,0.001000,0.001000,0.001000
1029.423077,-0.007206,0.001000,0.001000,0.001000,0.001000,0.001000
1029.442308,-0.005786,0.001000,0.001000,0.001000,0.001000,0.001000
1029.461538,-0.004361,0.001000,0.001000,0.001000,0.001000,0.001000
1029.480769,-0.002932,0.001000,0.001000,0.001000,0.001000,0.001000
1029.500000,-0.001501,0.001000,0.001000,0.001000,0.001000,0.001000
1029.519231,-0.000068,0.001000,0.001000,0.001000,0.001000,0.001000
1029.538462,0.001364,0.001000,0.001000,0.001000,0.001000,0.001000
1029.557692,0.002795,0.001000,0.001000,0.001000,0.001000,0.001000
1029.576923,0.004224,0.001000,0.001000,0.001000,0.001000,0.001000
1029.596154,0.005650,0.001000,0.001000,0.001000,0.001000,0.001000
1029.615385,0.007071,0.001000,0.001000,0.001000,0.001000,0.001000
1029.634615,0.008486,0.001000,0.001000,0.001000,0.001000,0.001000
1029.653846,0.009894,0.001000,0.001000,0.001000,0.001000,0.001000
1029.673077,0.011294,0.001000,0.001000,0.001000,0.001000,0.001000
1029.692308,0.012685,0.001000,0.001000,0.001000,0.001000,0.001000
1029.711538,0.014065,0.001000,0.001000,0.001000,0.001000,0.001000
1029.730769,0.015434,0.001000,0.001000,0.001000,0.001000,0.001000
1029.750000,0.016790,0.001000,0.001000,0.001000,0.001000,0.001000
1029.769231,0.018133,0.001000,0.001000,0.001000,0.001000,0.001000
1029.788462,0.019460,0.001000,0.001000,0.001000,0.001000,0.001000
1029.807692,0.020771,0.001000,0.001000,0.001000,0.001000,0.001000
1029.826923,0.022066,0.001000,0.001000,0.001000,0.001000,0.001000
1029.846154,0.023342,0.001000,0.001000,0.001000,0.001000,0.001000
1029.865385,0.024599,0.001000,0.001000,0.001000,0.001000,0.001000
1029.884615,0.025836,0.001000,0.001000,0.001000,0.001000,0.001000
1029.903846,0.027052,0.001000,0.001000,0.001000,0.001000,0.001000
1029.923077,0.028246,0.001000,0.001000,0.001000,0.001000,0.001000
1029.942308,0.029416,0.001000,0.001000,0.001000,0.001000,0.001000
1029.961538,0.030562,0.001000,0.001000,0.001000,0.001000,0.001000
1029.980769,0.031683,0.001000,0.001000,0.001000,0.001000,0.001000
1030.000000,0.000000,0.001000,0.001000,0.001000,0.001000,0.001000
1030.019231,0.001522,0.001000,0.001000,0.001000,0.001000,0.001000
1030.038462,0.003043,0.001000,0.001000,0.001000,0.001000,0.001000
1030.057692,0.004561,0.001000,0.001000,0.001000,0.001000,0.001000
1030.076923,0.006075,0.001000,0.001000,0.001000,0.001000,0.001000
1030.096154,0.007583,0.001000,0.001000,0.001000,0.001000,0.001000
1030.115385,0.009084,0.001000,0.001000,0.001000,0.001000,0.001000
1030.134615,0.010577,0.001000,0.001000,0.001000,0.001000,0.001000
1030.153846,0.012060,0.001000,0.001000,0.001000,0.001000,0.001000
1030.173077,0.013532,0.001000,0.001000,0.001000,0.001000,0.001000
1030.192308,0.014991,0.001000,0.001000,0.001000,0.001000,0.001000
1030.211538,0.016436,0.001000,0.001000,0.001000,0.001000,0.001000
1030.230769,0.017866,0.001000,0.001000,0.001000,0.001000,0.001000
1030.250000,0.019280,0.001000,0.001000,0.001000,0.001000,0.001000
1030.269231,0.020675,0.001000,0.001000,0.001000,0.001000,0.001000
1030.288462,0.022052,0.001000,0.001000,0.001000,0.001000,0.001000
1030.307692,0.023408,0.001000,0.001000,0.001000,0.001000,0.001000
1030.326923,0.024742,0.001000,0.001000,0.001000,0.001000,0.001000
1030.346154,0.026053,0.001000,0.001000,0.001000,0.001000,0.001000
1030.365385,0.027340,0.001000,0.001000,0.001000,0.001000,0.001000
1030.384615,0.028602,0.001000,0.001000,0.001000,0.001000,0.001000
1030.403846,0.029838,0.001000,0.001000,0.001000,0.001000,0.001000
1030.423077,0.031045,0.001000,0.001000,0.001000,0.001000,0.001000
1030.442308,0.032224,0.001000,0.001000,0.001000,0.001000,0.001000
1030.461538,0.033373,0.001000,0.001000,0.001000,0.001000,0.001000
1030.480769,0.034491,0.001000,0.001000,0.001000,0.001000,0.001000
1030.500000,0.035577,0.001000,0.001000,0.001000,0.001000,0.001000
1030.519231,0.036630,0.001000,0.001000,0.001000,0.001000,0.001000
1030.538462,0.037650,0.001000,0.001000,0.001000,0.001000,0.001000
1030.557692,0.038634,0.001000,0.001000,0.001000,0.001000,0.001000
1030.576923,0.039582,0.001000,0.001000,0.001000,0.001000,0.001000
1030.596154,0.040494,0.001000,0.001000,0.001000,0.001000,0.001000
1030.615385,0.041368,0.001000,0.001000,0.001000,0.001000,0.001000
1030.634615,0.042204,0.001000,0.001000,0.001000,0.001000,0.001000
1030.653846,0.043001,0.001000,0.001000,0.001000,0.001000,0.001000
1030.673077,0.043758,0.001000,0.001000,0.001000,0.001000,0.001000
1030.692308,0.044474,0.001000,0.001000,0.001000,0.001000,0.001000
1030.711538,0.045149,0.001000,0.001000,0.001000,0.001000,0.001000
1030.730769,0.045782,0.001000,0.001000,0.001000,0.001000,0.001000
1030.750000,0.046373,0.001000,0.001000,0.001000,0.001000,0.001000
1030.769231,0.046920,0.001000,0.001000,0.001000,0.001000,0.001000
1030.788462,0.047425,0.001000,0.001000,0.001000,0.001000,0.001000
1030.807692,0.047885,0.001000,0.001000,0.001000,0.001000,0.001000
1030.826923,0.048301,0.001000,0.001000,0.001000,0.001000,0.001000
1030.846154,0.048672,0.001000,0.001000,0.001000,0.001000,0.001000
1030.865385,0.048998,0.001000,0.001000,0.001000,0.001000,0.001000
1030.884615,0.049278,0.001000,0.001000,0.001000,0.001000,0.001000
1030.903846,0.049513,0.001000,0.001000,0.001000,0.001000,0.001000
1030.923077,0.049702,0.001000,0.001000,0.001000,0.001000,0.001000
1030.942308,0.049845,0.001000,0.001000,0.001000,0.001000,0.001000
1030.961538,0.049942,0.001000,0.001000,0.001000,0.001000,0.001000
1030.980769,0.049992,0.001000,0.001000,0.001000,0.001000,0.001000
1031.000000,0.049996,0.001000,0.001000,0.001000,0.001000,0.001000
1031.019231,0.049954,0.001000,0.001000,0.001000,0.001000,0.001000
1031.038462,0.049865,0.001000,0.001000,0.001000,0.001000,0.001000
1031.057692,0.049730,0.001000,0.001000,0.001000,0.001000,0.001000
1031.076923,0.049549,0.001000,0.001000,0.001000,0.001000,0.001000
1031.096154,0.049322,0.001000,0.001000,0.001000,0.001000,0.001000
1031.115385,0.049049,0.001000,0.001000,0.001000,0.001000,0.001000
1031.134615,0.048731,0.001000,0.001000,0.001000,0.001000,0.001000
1031.153846,0.048368,0.001000,0.001000,0.001000,0.001000,0.001000
1031.173077,0.047960,0.001000,0.001000,0.001000,0.001000,0.001000
1031.192308,0.047507,0.001000,0.001000,0.001000,0.001000,0.001000
1031.211538,0.047011,0.001000,0.001000,0.001000,0.001000,0.001000
1031.230769,0.046470,0.001000,0.001000,0.001000,0.001000,0.001000
1031.250000,0.045887,0.001000,0.001000,0.001000,0.001000,0.001000
1031.269231,0.045261,0.001000,0.001000,0.001000,0.001000,0.001000
1031.288462,0.044593,0.001000,0.001000,0.001000,0.001000,0.001000
1031.307692,0.043884,0.001000,0.001000,0.001000,0.001000,0.001000
1031.326923,0.043134,0.001000,0.001000,0.001000,0.001000,0.001000
1031.346154,0.042344,0.001000,0.001000,0.001000,0.001000,0.001000
1031.365385,0.041515,0.001000,0.001000,0.001000,0.001000,0.001000
1031.384615,0.040647,0.001000,0.001000,0.001000,0.001000,0.001000
1031.403846,0.039742,0.001000,0.001000,0.001000,0.001000,0.001000
1031.423077,0.038800,0.001000,0.001000,0.001000,0.001000,0.001000
1031.442308,0.037822,0.001000,0.001000,0.001000,0.001000,0.001000
1031.461538,0.036809,0.001000,0.001000,0.001000,0.001000,0.001000
1031.480769,0.035761,0.001000,0.001000,0.001000,0.001000,0.001000
1031.500000,0.034681,0.001000,0.001000,0.001000,0.001000,0.001000
1031.519231,0.033568,0.001000,0.001000,0.001000,0.001000,0.001000
1031.538462,0.032425,0.001000,0.001000,0.001000,0.001000,0.001000
1031.557692,0.031251,0.001000,0.001000,0.001000,0.001000,0.001000
1031.576923,0.030048,0.001000,0.001000,0.001000,0.001000,0.001000
1031.596154,0.028817,0.001000,0.001000,0.001000,0.001000,0.001000
1031.615385,0.027560,0.001000,0.001000,0.001000,0.001000,0.001000
1031.634615,0.026277,0.001000,0.001000,0.001000,0.001000,0.001000
1031.653846,0.024970,0.001000,0.001000,0.001000,0.001000,0.001000
1031.673077,0.023639,0.001000,0.001000,0.001000,0.001000,0.001000
1031.692308,0.022287,0.001000,0.001000,0.001000,0.001000,0.001000
1031.711538,0.020914,0.001000,0.001000,0.001000,0.001000,0.001000
1031.730769,0.019522,0.001000,0.001000,0.001000,0.001000,0.001000
1031.750000,0.018111,0.001000,0.001000,0.001000,0.001000,0.001000
1031.769231,0.016684,0.001000,0.001000,0.001000,0.001000,0.001000
1031.788462,0.015241,0.001000,0.001000,0.001000,0.001000,0.001000
1031.807692,0.013784,0.001000,0.001000,0.001000,0.001000,0.001000
1031.826923,0.012315,0.001000,0.001000,0.001000,0.001000,0.001000
1031.846154,0.010833,0.001000,0.001000,0.001000,0.001000,0.001000
1031.865385,0.009342,0.001000,0.001000,0.001000,0.001000,0.001000
1031.884615,0.007843,0.001000,0.001000,0.001000,0.001000,0.001000
1031.903846,0.006336,0.001000,0.001000,0.001000,0.001000,0.001000
1031.923077,0.004823,0.001000,0.001000,0.001000,0.001000,0.001000
1031.942308,0.003305,0.001000,0.001000,0.001000,0.001000,0.001000
1031.961538,0.001785,0.001000,0.001000,0.001000,0.001000,0.001000
1031.980769,0.000263,0.001000,0.001000,0.001000,0.001000,0.001000
1032.000000,-0.001260,0.001000,0.001000,0.001000,0.001000,0.001000
1032.019231,-0.002781,0.001000,0.001000,0.001000,0.001000,0.001000
1032.038462,-0.004300,0.001000,0.001000,0.001000,0.001000,0.001000
1032.057692,-0.005814,0.001000,0.001000,0.001000,0.001000,0.001000
1032.076923,-0.007323,0.001000,0.001000,0.001000,0.001000,0.001000
1032.096154,-0.008826,0.001000,0.001000,0.001000,0.001000,0.001000
1032.115385,-0.010320,0.001000,0.001000,0.001000,0.001000,0.001000
1032.134615,-0.011805,0.001000,0.001000,0.001000,0.001000,0.001000
1032.153846,-0.013279,0.001000,0.001000,0.001000,0.001000,0.001000
1032.173077,-0.014740,0.001000,0.001000,0.001000,0.001000,0.001000
1032.192308,-0.016188,0.001000,0.001000,0.001000,0.001000,0.001000
1032.211538,-0.017621,0.001000,0.001000,0.001000,0.001000,0.001000
1032.230769,-0.019037,0.001000,0.001000,0.001000,0.001000,0.001000
1032.250000,-0.020436,0.001000,0.001000,0.001000,0.001000,0.001000
1032.269231,-0.021816,0.001000,0.001000,0.001000,0.001000,0.001000
1032.288462,-0.023175,0.001000,0.001000,0.001000,0.001000,0.001000
1032.307692,-0.024513,0.001000,0.001000,0.001000,0.001000,0.001000
1032.326923,-0.025829,0.001000,0.001000,0.001000,0.001000,0.001000
1032.346154,-0.027120,0.001000,0.001000,0.001000,0.001000,0.001000
1032.365385,-0.028387,0.001000,0.001000,0.001000,0.001000,0.001000
1032.384615,-0.029627,0.001000,0.001000,0.001000,0.001000,0.001000
1032.403846,-0.030839,0.001000,0.001000,0.001000,0.001000,0.001000
1032.423077,-0.032023,0.001000,0.001000,0.001000,0.001000,0.001000
1032.442308,-0.033177,0.001000,0.001000,0.001000,0.001000,0.001000
1032.461538,-0.034301,0.001000,0.001000,0.001000,0.001000,0.001000
1032.480769,-0.035392,0.001000,0.001000,0.001000,0.001000,0.001000
1032.500000,-0.036451,0.001000,0.001000,0.001000,0.001000,0.001000
1032.519231,-0.037476,0.001000,0.001000,0.001000,0.001000,0.001000
1032.538462,-0.038467,0.001000,0.001000,0.001000,0.001000,0.001000
1032.557692,-0.039421,0.001000,0.001000,0.001000,0.001000,0.001000
1032.576923,-0.040339,0.001000,0.001000,0.001000,0.001000,0.001000
1032.596154,-0.041220,0.001000,0.001000,0.001000,0.001000,0.001000
1032.615385,-0.042063,0.001000,0.001000,0.001000,0.001000,0.001000
1032.634615,-0.042866,0.001000,0.001000,0.001000,0.001000,0.001000
1032.653846,-0.043630,0.001000,0.001000,0.001000,0.001000,0.001000
1032.673077,-0.044353,0.001000,0.001000,0.001000,0.001000,0.001000
1032.692308,-0.045035,0.001000,0.001000,0.001000,0.001000,0.001000
1032.711538,-0.045676,0.001000,0.001000,0.001000,0.001000,0.001000
1032.730769,-0.046274,0.001000,0.001000,0.001000,0.001000,0.001000
1032.750000,-0.046829,0.001000,0.001000,0.001000,0.001000,0.001000
1032.769231,-0.047341,0.001000,0.001000,0.001000,0.001000,0.001000
1032.788462,-0.047809,0.001000,0.001000,0.001000,0.001000,0.001000
1032.807692,-0.048232,0.001000,0.001000,0.001000,0.001000,0.001000
1032.826923,-0.048611,0.001000,0.001000,0.001000,0.001000,0.001000
1032.846154,-0.048945,0.001000,0.001000,0.001000,0.001000,0.001000
1032.865385,-0.049233,0.001000,0.001000,0.001000,0.001000,0.001000
1032.884615,-0.049476,0.001000,0.001000,0.001000,0.001000,0.001000
1032.903846,-0.049673,0.001000,0.001000,0.001000,0.001000,0.001000
1032.923077,-0.049824,0.001000,0.001000,0.001000,0.001000,0.001000
1032.942308,-0.049928,0.001000,0.001000,0.001000,0.001000,0.001000
1032.961538,-0.049987,0.001000,0.001000,0.001000,0.001000,0.001000
1032.980769,-0.049999,0.001000,0.001000,0.001000,0.001000,0.001000
1033.000000,-0.049964,0.001000,0.001000,0.001000,0.001000,0.001000
1033.019231,-0.049884,0.001000,0.001000,0.001000,0.001000,0.001000
1033.038462,-0.049757,0.001000,0.001000,0.001000,0.001000,0.001000
1033.057692,-0.049584,0.001000,0.001000,0.001000,0.001000,0.001000
1033.076923,-0.049365,0.001000,0.001000,0.001000,0.001000,0.001000
1033.096154,-0.049100,0.001000,0.001000,0.001000,0.001000,0.001000
1033.115385,-0.048789,0.001000,0.001000,0.001000,0.001000,0.001000
1033.134615,-0.048434,0.001000,0.001000,0.001000,0.001000,0.001000
1033.153846,-0.048033,0.001000,0.001000,0.001000,0.001000,0.001000
1033.173077,-0.047588,0.001000,0.001000,0.001000,0.001000,0.001000
1033.192308,-0.047099,0.001000,0.001000,0.001000,0.001000,0.001000
1033.211538,-0.046567,0.001000,0.001000,0.001000,0.001000,0.001000
1033.230769,-0.045991,0.001000,0.001000,0.001000,0.001000,0.001000
1033.250000,-0.045372,0.001000,0.001000,0.001000,0.001000,0.001000
1033.269231,-0.044711,0.001000,0.001000,0.001000,0.001000,0.001000
1033.288462,-0.044009,0.001000,0.001000,0.001000,0.001000,0.001000
1033.307692,-0.043266,0.001000,0.001000,0.001000,0.001000,0.001000
1033.326923,-0.042483,0.001000,0.001000,0.001000,0.001000,0.001000
1033.346154,-0.041661,0.001000,0.001000,0.001000,0.001000,0.001000
1033.365385,-0.040800,0.001000,0.001000,0.001000,0.001000,0.001000
1033.384615,-0.039901,0.001000,0.001000,0.001000,0.001000,0.001000
1033.403846,-0.038965,0.001000,0.001000,0.001000,0.001000,0.001000
1033.423077,-0.037993,0.001000,0.001000,0.001000,0.001000,0.001000
1033.442308,-0.036986,0.001000,0.001000,0.001000,0.001000,0.001000
1033.461538,-0.035944,0.001000,0.001000,0.001000,0.001000,0.001000
1033.480769,-0.034870,0.001000,0.001000,0.001000,0.001000,0.001000
1033.500000,-0.033762,0.001000,0.001000,0.001000,0.001000,0.001000
1033.519231,-0.032624,0.001000,0.001000,0.001000,0.001000,0.001000
1033.538462,-0.031455,0.001000,0.001000,0.001000,0.001000,0.001000
1033.557692,-0.030257,0.001000,0.001000,0.001000,0.001000,0.001000
1033.576923,-0.029031,0.001000,0.001000,0.001000,0.001000,0.001000
1033.596154,-0.027779,0.001000,0.001000,0.001000,0.001000,0.001000
1033.615385,-0.026500,0.001000,0.001000,0.001000,0.001000,0.001000
1033.634615,-0.025197,0.001000,0.001000,0.001000,0.001000,0.001000
1033.653846,-0.023870,0.001000,0.001000,0.001000,0.001000,0.001000
1033.673077,-0.022522,0.001000,0.001000,0.001000,0.001000,0.001000
1033.692308,-0.021152,0.001000,0.001000,0.001000,0.001000,0.001000
1033.711538,-0.019763,0.001000,0.001000,0.001000,0.001000,0.001000
1033.730769,-0.018356,0.001000,0.001000,0.001000,0.001000,0.001000
1033.750000,-0.016931,0.001000,0.001000,0.001000,0.001000,0.001000
1033.769231,-0.015491,0.001000,0.001000,0.001000,0.001000,0.001000
1033.788462,-0.014036,0.001000,0.001000,0.001000,0.001000,0.001000
1033.807692,-0.012569,0.001000,0.001000,0.001000,0.001000,0.001000
1033.826923,-0.011090,0.001000,0.001000,0.001000,0.001000,0.001000
1033.846154,-0.009600,0.001000,0.001000,0.001000,0.001000,0.001000
1033.865385,-0.008102,0.001000,0.001000,0.001000,0.001000,0.001000
1033.884615,-0.006596,0.001000,0.001000,0.001000,0.001000,0.001000
1033.903846,-0.005084,0.001000,0.001000,0.001000,0.001000,0.001000
1033.923077,-0.003567,0.001000,0.001000,0.001000,0.001000,0.001000
1033.942308,-0.002047,0.001000,0.001000,0.001000,0.001000,0.001000
1033.961538,-0.000525,0.001000,0.001000,0.001000,0.001000,0.001000
1033.980769,0.000997,0.001000,0.001000,0.001000,0.001000,0.001000
1034.000000,0.002519,0.001000,0.001000,0.001000,0.001000,0.001000
1034.019231,0.004038,0.001000,0.001000,0.001000,0.001000,0.001000
1034.038462,0.005553,0.001000,0.001000,0.001000,0.001000,0.001000
1034.057692,0.007064,0.001000,0.001000,0.001000,0.001000,0.001000
1034.076923,0.008567,0.001000,0.001000,0.001000,0.001000,0.001000
1034.096154,0.010063,0.001000,0.001000,0.001000,0.001000,0.001000
1034.115385,0.011550,0.001000,0.001000,0.001000,0.001000,0.001000
1034.134615,0.013025,0.001000,0.001000,0.001000,0.001000,0.001000
1034.153846,0.014489,0.001000,0.001000,0.001000,0.001000,0.001000
1034.173077,0.015939,0.001000,0.001000,0.001000,0.001000,0.001000
1034.192308,0.017375,0.001000,0.001000,0.001000,0.001000,0.001000
1034.211538,0.018794,0.001000,0.001000,0.001000,0.001000,0.001000
1034.230769,0.020196,0.001000,0.001000,0.001000,0.001000,0.001000
1034.250000,0.021579,0.001000,0.001000,0.001000,0.001000,0.001000
1034.269231,0.022942,0.001000,0.001000,0.001000,0.001000,0.001000
1034.288462,0.024284,0.001000,0.001000,0.001000,0.001000,0.001000
1034.307692,0.025604,0.001000,0.001000,0.001000,0.001000,0.001000
1034.326923,0.026899,0.001000,0.001000,0.001000,0.001000,0.001000
1034.346154,0.028170,0.001000,0.001000,0.001000,0.001000,0.001000
1034.365385,0.029415,0.001000,0.001000,0.001000,0.001000,0.001000
1034.384615,0.030632,0.001000,0.001000,0.001000,0.001000,0.001000
1034.403846,0.031821,0.001000,0.001000,0.001000,0.001000,0.001000
1034.423077,0.032980,0.001000,0.001000,0.001000,0.001000,0.001000
1034.442308,0.034109,0.001000,0.001000,0.001000,0.001000,0.001000
1034.461538,0.035206,0.001000,0.001000,0.001000,0.001000,0.001000
1034.480769,0.036271,0.001000,0.001000,0.001000,0.001000,0.001000
1034.500000,0.037302,0.001000,0.001000,0.001000,0.001000,0.001000
1034.519231,0.038298,0.001000,0.001000,0.001000,0.001000,0.001000
1034.538462,0.039259,0.001000,0.001000,0.001000,0.001000,0.001000
1034.557692,0.040184,0.001000,0.001000,0.001000,0.001000,0.001000
1034.576923,0.041071,0.001000,0.001000,0.001000,0.001000,0.001000
1034.596154,0.041920,0.001000,0.001000,0.001000,0.001000,0.001000
1034.615385,0.042730,0.001000,0.001000,0.001000,0.001000,0.001000
1034.634615,0.043501,0.001000,0.001000,0.001000,0.001000,0.001000
1034.653846,0.044231,0.001000,0.001000,0.001000,0.001000,0.001000
1034.673077,0.044921,0.001000,0.001000,0.001000,0.001000,0.001000
