timestamp,ax,ay,az,gx,gy,gz
1000.000000,0.000000,0.001000,0.001000,0.001000,0.001000,0.001000
1000.019231,0.001401,0.001000,0.001000,0.001000,0.001000,0.001000
1000.038462,0.002801,0.001000,0.001000,0.001000,0.001000,0.001000
1000.057692,0.004199,0.001000,0.001000,0.001000,0.001000,0.001000
1000.076923,0.005593,0.001000,0.001000,0.001000,0.001000,0.001000
1000.096154,0.006983,0.001000,0.001000,0.001000,0.001000,0.001000
1000.115385,0.008368,0.001000,0.001000,0.001000,0.001000,0.001000
1000.134615,0.009746,0.001000,0.001000,0.001000,0.001000,0.001000
1000.153846,0.011116,0.001000,0.001000,0.001000,0.001000,0.001000
1000.173077,0.012478,0.001000,0.001000,0.001000,0.001000,0.001000
1000.192308,0.013829,0.001000,0.001000,0.001000,0.001000,0.001000
1000.211538,0.015170,0.001000,0.001000,0.001000,0.001000,0.001000
1000.230769,0.016499,0.001000,0.001000,0.001000,0.001000,0.001000
1000.250000,0.017815,0.001000,0.001000,0.001000,0.001000,0.001000
1000.269231,0.019117,0.001000,0.001000,0.001000,0.001000,0.001000
1000.288462,0.020404,0.001000,0.001000,0.001000,0.001000,0.001000
1000.307692,0.021676,0.001000,0.001000,0.001000,0.001000,0.001000
1000.326923,0.022930,0.001000,0.001000,0.001000,0.001000,0.001000
1000.346154,0.024166,0.001000,0.001000,0.001000,0.001000,0.001000
1000.365385,0.025383,0.001000,0.001000,0.001000,0.001000,0.001000
1000.384615,0.026580,0.001000,0.001000,0.001000,0.001000,0.001000
1000.403846,0.027756,0.001000,0.001000,0.001000,0.001000,0.001000
1000.423077,0.028910,0.001000,0.001000,0.001000,0.001000,0.001000
1000.442308,0.030042,0.001000,0.001000,0.001000,0.001000,0.001000
1000.461538,0.031150,0.001000,0.001000,0.001000,0.001000,0.001000
1000.480769,0.032234,0.001000,0.001000,0.001000,0.001000,0.001000
1000.500000,0.033292,0.001000,0.001000,0.001000,0.001000,0.001000
1000.519231,0.034324,0.001000,0.001000,0.001000,0.001000,0.001000
1000.538462,0.035330,0.001000,0.001000,0.001000,0.001000,0.001000
1000.557692,0.036307,0.001000,0.001000,0.001000,0.001000,0.001000
1000.576923,0.037256,0.001000,0.001000,0.001000,0.001000,0.001000
1000.596154,0.038176,0.001000,0.001000,0.001000,0.001000,0.001000
1000.615385,0.039066,0.001000,0.001000,0.001000,0.001000,0.001000
1000.634615,0.039925,0.001000,0.001000,0.001000,0.001000,0.001000
1000.653846,0.040753,0.001000,0.001000,0.001000,0.001000,0.001000
1000.673077,0.041548,0.001000,0.001000,0.001000,0.001000,0.001000
1000.692308,0.042311,0.001000,0.001000,0.001000,0.001000,0.001000
1000.711538,0.043041,0.001000,0.001000,0.001000,0.001000,0.001000
1000.730769,0.043737,0.001000,0.001000,0.001000,0.001000,0.001000
1000.750000,0.044399,0.001000,0.001000,0.001000,0.001000,0.001000
1000.769231,0.045026,0.001000,0.001000,0.001000,0.001000,0.001000
1000.788462,0.045617,0.001000,0.001000,0.001000,0.001000,0.001000
1000.807692,0.046173,0.001000,0.001000,0.001000,0.001000,0.001000
1000.826923,0.046693,0.001000,0.001000,0.001000,0.001000,0.001000
1000.846154,0.047175,0.001000,0.001000,0.001000,0.001000,0.001000
1000.865385,0.047621,0.001000,0.001000,0.001000,0.001000,0.001000
1000.884615,0.048029,0.001000,0.001000,0.001000,0.001000,0.001000
1000.903846,0.048400,0.001000,0.001000,0.001000,0.001000,0.001000
1000.923077,0.048733,0.001000,0.001000,0.001000,0.001000,0.001000
1000.942308,0.049027,0.001000,0.001000,0.001000,0.001000,0.001000
1000.961538,0.049283,0.001000,0.001000,0.001000,0.001000,0.001000
1000.980769,0.049500,0.001000,0.001000,0.001000,0.001000,0.001000
1001.000000,0.049678,0.001000,0.001000,0.001000,0.001000,0.001000
1001.019231,0.049817,0.001000,0.001000,0.001000,0.001000,0.001000
1001.038462,0.049917,0.001000,0.001000,0.001000,0.001000,0.001000
1001.057692,0.049978,0.001000,0.001000,0.001000,0.001000,0.001000
1001.076923,0.050000,0.001000,0.001000,0.001000,0.001000,0.001000
1001.096154,0.049982,0.001000,0.001000,0.001000,0.001000,0.001000
1001.115385,0.049925,0.001000,0.001000,0.001000,0.001000,0.001000
1001.134615,0.049829,0.001000,0.001000,0.001000,0.001000,0.001000
1001.153846,0.049694,0.001000,0.001000,0.001000,0.001000,0.001000
1001.173077,0.049520,0.001000,0.001000,0.001000,0.001000,0.001000
1001.192308,0.049307,0.001000,0.001000,0.001000,0.001000,0.001000
1001.211538,0.049055,0.001000,0.001000,0.001000,0.001000,0.001000
1001.230769,0.048765,0.001000,0.001000,0.001000,0.001000,0.001000
1001.250000,0.048436,0.001000,0.001000,0.001000,0.001000,0.001000
1001.269231,0.048069,0.001000,0.001000,0.001000,0.001000,0.001000
1001.288462,0.047665,0.001000,0.001000,0.001000,0.001000,0.001000
1001.307692,0.047223,0.001000,0.001000,0.001000,0.001000,0.001000
1001.326923,0.046744,0.001000,0.001000,0.001000,0.001000,0.001000
1001.346154,0.046229,0.001000,0.001000,0.001000,0.001000,0.001000
1001.365385,0.045677,0.001000,0.001000,0.001000,0.001000,0.001000
1001.384615,0.045089,0.001000,0.001000,0.001000,0.001000,0.001000
1001.403846,0.044466,0.001000,0.001000,0.001000,0.001000,0.001000
1001.423077,0.043807,0.001000,0.001000,0.001000,0.001000,0.001000
1001.442308,0.043115,0.001000,0.001000,0.001000,0.001000,0.001000
1001.461538,0.042389,0.001000,0.001000,0.001000,0.001000,0.001000
1001.480769,0.041629,0.001000,0.001000,0.001000,0.001000,0.001000
1001.500000,0.040836,0.001000,0.001000,0.001000,0.001000,0.001000
1001.519231,0.040012,0.001000,0.001000,0.001000,0.001000,0.001000
1001.538462,0.039156,0.001000,0.001000,0.001000,0.001000,0.001000
1001.557692,0.038269,0.001000,0.001000,0.001000,0.001000,0.001000
1001.576923,0.037353,0.001000,0.001000,0.001000,0.001000,0.001000
1001.596154,0.036407,0.001000,0.001000,0.001000,0.001000,0.001000
1001.615385,0.035432,0.001000,0.001000,0.001000,0.001000,0.001000
1001.634615,0.034430,0.001000,0.001000,0.001000,0.001000,0.001000
1001.653846,0.033400,0.001000,0.001000,0.001000,0.001000,0.001000
1001.673077,0.032345,0.001000,0.001000,0.001000,0.001000,0.001000
1001.692308,0.031264,0.001000,0.001000,0.001000,0.001000,0.001000
1001.711538,0.030158,0.001000,0.001000,0.001000,0.001000,0.001000
1001.730769,0.029029,0.001000,0.001000,0.001000,0.001000,0.001000
1001.750000,0.027876,0.001000,0.001000,0.001000,0.001000,0.001000
1001.769231,0.026702,0.001000,0.001000,0.001000,0.001000,0.001000
1001.788462,0.025507,0.001000,0.001000,0.001000,0.001000,0.001000
1001.807692,0.024292,0.001000,0.001000,0.001000,0.001000,0.001000
1001.826923,0.023058,0.001000,0.001000,0.001000,0.001000,0.001000
1001.846154,0.021806,0.001000,0.001000,0.001000,0.001000,0.001000
1001.865385,0.020537,0.001000,0.001000,0.001000,0.001000,0.001000
1001.884615,0.019251,0.001000,0.001000,0.001000,0.001000,0.001000
1001.903846,0.017951,0.001000,0.001000,0.001000,0.001000,0.001000
1001.923077,0.016636,0.001000,0.001000,0.001000,0.001000,0.001000
1001.942308,0.015308,0.001000,0.001000,0.001000,0.001000,0.001000
1001.961538,0.013969,0.001000,0.001000,0.001000,0.001000,0.001000
1001.980769,0.012618,0.001000,0.001000,0.001000,0.001000,0.001000
1002.000000,0.011257,0.001000,0.001000,0.001000,0.001000,0.001000
1002.019231,0.009888,0.001000,0.001000,0.001000,0.001000,0.001000
1002.038462,0.008511,0.001000,0.001000,0.001000,0.001000,0.001000
1002.057692,0.007127,0.001000,0.001000,0.001000,0.001000,0.001000
1002.076923,0.005737,0.001000,0.001000,0.001000,0.001000,0.001000
1002.096154,0.004343,0.001000,0.001000,0.001000,0.001000,0.001000
1002.115385,0.002946,0.001000,0.001000,0.001000,0.001000,0.001000
1002.134615,0.001546,0.001000,0.001000,0.001000,0.001000,0.001000
1002.153846,0.000145,0.001000,0.001000,0.001000,0.001000,0.001000
1002.173077,-0.001256,0.001000,0.001000,0.001000,0.001000,0.001000
1002.192308,-0.002656,0.001000,0.001000,0.001000,0.001000,0.001000
1002.211538,-0.004054,0.001000,0.001000,0.001000,0.001000,0.001000
1002.230769,-0.005449,0.001000,0.001000,0.001000,0.001000,0.001000
1002.250000,-0.006839,0.001000,0.001000,0.001000,0.001000,0.001000
1002.269231,-0.008225,0.001000,0.001000,0.001000,0.001000,0.001000
1002.288462,-0.009603,0.001000,0.001000,0.001000,0.001000,0.001000
1002.307692,-0.010974,0.001000,0.001000,0.001000,0.001000,0.001000
1002.326923,-0.012337,0.001000,0.001000,0.001000,0.001000,0.001000
1002.346154,-0.013690,0.001000,0.001000,0.001000,0.001000,0.001000
1002.365385,-0.015032,0.001000,0.001000,0.001000,0.001000,0.001000
1002.384615,-0.016362,0.001000,0.001000,0.001000,0.001000,0.001000
1002.403846,-0.017680,0.001000,0.001000,0.001000,0.001000,0.001000
1002.423077,-0.018983,0.001000,0.001000,0.001000,0.001000,0.001000
1002.442308,-0.020272,0.001000,0.001000,0.001000,0.001000,0.001000
1002.461538,-0.021545,0.001000,0.001000,0.001000,0.001000,0.001000
1002.480769,-0.022800,0.001000,0.001000,0.001000,0.001000,0.001000
1002.500000,-0.024038,0.001000,0.001000,0.001000,0.001000,0.001000
1002.519231,-0.025257,0.001000,0.001000,0.001000,0.001000,0.001000
1002.538462,-0.026457,0.001000,0.001000,0.001000,0.001000,0.001000
1002.557692,-0.027635,0.001000,0.001000,0.001000,0.001000,0.001000
1002.576923,-0.028792,0.001000,0.001000,0.001000,0.001000,0.001000
1002.596154,-0.029926,0.001000,0.001000,0.001000,0.001000,0.001000
1002.615385,-0.031037,0.001000,0.001000,0.001000,0.001000,0.001000
1002.634615,-0.032123,0.001000,0.001000,0.001000,0.001000,0.001000
1002.653846,-0.033184,0.001000,0.001000,0.001000,0.001000,0.001000
1002.673077,-0.034219,0.001000,0.001000,0.001000,0.001000,0.001000
1002.692308,-0.035227,0.001000,0.001000,0.001000,0.001000,0.001000
1002.711538,-0.036207,0.001000,0.001000,0.001000,0.001000,0.001000
1002.730769,-0.037159,0.001000,0.001000,0.001000,0.001000,0.001000
1002.750000,-0.038082,0.001000,0.001000,0.001000,0.001000,0.001000
1002.769231,-0.038975,0.001000,0.001000,0.001000,0.001000,0.001000
1002.788462,-0.039837,0.001000,0.001000,0.001000,0.001000,0.001000
1002.807692,-0.040668,0.001000,0.001000,0.001000,0.001000,0.001000
1002.826923,-0.041467,0.001000,0.001000,0.001000,0.001000,0.001000
1002.846154,-0.042234,0.001000,0.001000,0.001000,0.001000,0.001000
1002.865385,-0.042967,0.001000,0.001000,0.001000,0.001000,0.001000
1002.884615,-0.043667,0.001000,0.001000,0.001000,0.001000,0.001000
1002.903846,-0.044332,0.001000,0.001000,0.001000,0.001000,0.001000
1002.923077,-0.044963,0.001000,0.001000,0.001000,0.001000,0.001000
1002.942308,-0.045558,0.001000,0.001000,0.001000,0.001000,0.001000
1002.961538,-0.046117,0.001000,0.001000,0.001000,0.001000,0.001000
1002.980769,-0.046640,0.001000,0.001000,0.001000,0.001000,0.001000
1003.000000,-0.047127,0.001000,0.001000,0.001000,0.001000,0.001000
1003.019231,-0.047577,0.001000,0.001000,0.001000,0.001000,0.001000
1003.038462,-0.047989,0.001000,0.001000,0.001000,0.001000,0.001000
1003.057692,-0.048363,0.001000,0.001000,0.001000,0.001000,0.001000
1003.076923,-0.048700,0.001000,0.001000,0.001000,0.001000,0.001000
1003.096154,-0.048998,0.001000,0.001000,0.001000,0.001000,0.001000
1003.115385,-0.049258,0.001000,0.001000,0.001000,0.001000,0.001000
1003.134615,-0.049479,0.001000,0.001000,0.001000,0.001000,0.001000
1003.153846,-0.049661,0.001000,0.001000,0.001000,0.001000,0.001000
1003.173077,-0.049805,0.001000,0.001000,0.001000,0.001000,0.001000
1003.192308,-0.049909,0.001000,0.001000,0.001000,0.001000,0.001000
1003.211538,-0.049974,0.001000,0.001000,0.001000,0.001000,0.001000
1003.230769,-0.050000,0.001000,0.001000,0.001000,0.001000,0.001000
1003.250000,-0.049986,0.001000,0.001000,0.001000,0.001000,0.001000
1003.269231,-0.049933,0.001000,0.001000,0.001000,0.001000,0.001000
1003.288462,-0.049841,0.001000,0.001000,0.001000,0.001000,0.001000
1003.307692,-0.049710,0.001000,0.001000,0.001000,0.001000,0.001000
1003.326923,-0.049540,0.001000,0.001000,0.001000,0.001000,0.001000
1003.346154,-0.049331,0.001000,0.001000,0.001000,0.001000,0.001000
1003.365385,-0.049083,0.001000,0.001000,0.001000,0.001000,0.001000
1003.384615,-0.048797,0.001000,0.001000,0.001000,0.001000,0.001000
1003.403846,-0.048472,0.001000,0.001000,0.001000,0.001000,0.001000
1003.423077,-0.048109,0.001000,0.001000,0.001000,0.001000,0.001000
1003.442308,-0.047709,0.001000,0.001000,0.001000,0.001000,0.001000
1003.461538,-0.047271,0.001000,0.001000,0.001000,0.001000,0.001000
1003.480769,-0.046796,0.001000,0.001000,0.001000,0.001000,0.001000
1003.500000,-0.046284,0.001000,0.001000,0.001000,0.001000,0.001000
1003.519231,-0.045735,0.001000,0.001000,0.001000,0.001000,0.001000
1003.538462,-0.045151,0.001000,0.001000,0.001000,0.001000,0.001000
1003.557692,-0.044532,0.001000,0.001000,0.001000,0.001000,0.001000
1003.576923,-0.043877,0.001000,0.001000,0.001000,0.001000,0.001000
1003.596154,-0.043188,0.001000,0.001000,0.001000,0.001000,0.001000
1003.615385,-0.042465,0.001000,0.001000,0.001000,0.001000,0.001000
1003.634615,-0.041709,0.001000,0.001000,0.001000,0.001000,0.001000
1003.653846,-0.040920,0.001000,0.001000,0.001000,0.001000,0.001000
1003.673077,-0.040099,0.001000,0.001000,0.001000,0.001000,0.001000
1003.692308,-0.039246,0.001000,0.001000,0.001000,0.001000,0.001000
1003.711538,-0.038363,0.001000,0.001000,0.001000,0.001000,0.001000
1003.730769,-0.037449,0.001000,0.001000,0.001000,0.001000,0.001000
1003.750000,-0.036506,0.001000,0.001000,0.001000,0.001000,0.001000
1003.769231,-0.035534,0.001000,0.001000,0.001000,0.001000,0.001000
1003.788462,-0.034535,0.001000,0.001000,0.001000,0.001000,0.001000
1003.807692,-0.033508,0.001000,0.001000,0.001000,0.001000,0.001000
1003.826923,-0.032455,0.001000,0.001000,0.001000,0.001000,0.001000
1003.846154,-0.031377,0.001000,0.001000,0.001000,0.001000,0.001000
1003.865385,-0.030273,0.001000,0.001000,0.001000,0.001000,0.001000
1003.884615,-0.029147,0.001000,0.001000,0.001000,0.001000,0.001000
1003.903846,-0.027997,0.001000,0.001000,0.001000,0.001000,0.001000
1003.923077,-0.026825,0.001000,0.001000,0.001000,0.001000,0.001000
1003.942308,-0.025632,0.001000,0.001000,0.001000,0.001000,0.001000
1003.961538,-0.024419,0.001000,0.001000,0.001000,0.001000,0.001000
1003.980769,-0.023187,0.001000,0.001000,0.001000,0.001000,0.001000
1004.000000,-0.021937,0.001000,0.001000,0.001000,0.001000,0.001000
1004.019231,-0.020669,0.001000,0.001000,0.001000,0.001000,0.001000
1004.038462,-0.019385,0.001000,0.001000,0.001000,0.001000,0.001000
1004.057692,-0.018086,0.001000,0.001000,0.001000,0.001000,0.001000
1004.076923,-0.016773,0.001000,0.001000,0.001000,0.001000,0.001000
1004.096154,-0.015447,0.001000,0.001000,0.001000,0.001000,0.001000
1004.115385,-0.014108,0.001000,0.001000,0.001000,0.001000,0.001000
1004.134615,-0.012758,0.001000,0.001000,0.001000,0.001000,0.001000
1004.153846,-0.011399,0.001000,0.001000,0.001000,0.001000,0.001000
1004.173077,-0.010030,0.001000,0.001000,0.001000,0.001000,0.001000
1004.192308,-0.008654,0.001000,0.001000,0.001000,0.001000,0.001000
1004.211538,-0.007270,0.001000,0.001000,0.001000,0.001000,0.001000
1004.230769,-0.005881,0.001000,0.001000,0.001000,0.001000,0.001000
1004.250000,-0.004488,0.001000,0.001000,0.001000,0.001000,0.001000
1004.269231,-0.003091,0.001000,0.001000,0.001000,0.001000,0.001000
1004.288462,-0.001691,0.001000,0.001000,0.001000,0.001000,0.001000
1004.307692,-0.000290,0.001000,0.001000,0.001000,0.001000,0.001000
1004.326923,0.001111,0.001000,0.001000,0.001000,0.001000,0.001000
1004.346154,0.002511,0.001000,0.001000,0.001000,0.001000,0.001000
1004.365385,0.003909,0.001000,0.001000,0.001000,0.001000,0.001000
1004.384615,0.005305,0.001000,0.001000,0.001000,0.001000,0.001000
1004.403846,0.006696,0.001000,0.001000,0.001000,0.001000,0.001000
1004.423077,0.008081,0.001000,0.001000,0.001000,0.001000,0.001000
1004.442308,0.009461,0.001000,0.001000,0.001000,0.001000,0.001000
1004.461538,0.010833,0.001000,0.001000,0.001000,0.001000,0.001000
1004.480769,0.012196,0.001000,0.001000,0.001000,0.001000,0.001000
1004.500000,0.013550,0.001000,0.001000,0.001000,0.001000,0.001000
1004.519231,0.014894,0.001000,0.001000,0.001000,0.001000,0.001000
1004.538462,0.016225,0.001000,0.001000,0.001000,0.001000,0.001000
1004.557692,0.017544,0.001000,0.001000,0.001000,0.001000,0.001000
1004.576923,0.018849,0.001000,0.001000,0.001000,0.001000,0.001000
1004.596154,0.020139,0.001000,0.001000,0.001000,0.001000,0.001000
1004.615385,0.021414,0.001000,0.001000,0.001000,0.001000,0.001000
1004.634615,0.022671,0.001000,0.001000,0.001000,0.001000,0.001000
1004.653846,0.023911,0.001000,0.001000,0.001000,0.001000,0.001000
1004.673077,0.025132,0.001000,0.001000,0.001000,0.001000,0.001000
1004.692308,0.026333,0.001000,0.001000,0.001000,0.001000,0.001000
1004.711538,0.027514,0.001000,0.001000,0.001000,0.001000,0.001000
1004.730769,0.028673,0.001000,0.001000,0.001000,0.001000,0.001000
1004.750000,0.029810,0.001000,0.001000,0.001000,0.001000,0.001000
1004.769231,0.030923,0.001000,0.001000,0.001000,0.001000,0.001000
1004.788462,0.032011,0.001000,0.001000,0.001000,0.001000,0.001000
1004.807692,0.033075,0.001000,0.001000,0.001000,0.001000,0.001000
1004.826923,0.034113,0.001000,0.001000,0.001000,0.001000,0.001000
1004.846154,0.035124,0.001000,0.001000,0.001000,0.001000,0.001000
1004.865385,0.036107,0.001000,0.001000,0.001000,0.001000,0.001000
1004.884615,0.037062,0.001000,0.001000,0.001000,0.001000,0.001000
1004.903846,0.037988,0.001000,0.001000,0.001000,0.001000,0.001000
1004.923077,0.038884,0.001000,0.001000,0.001000,0.001000,0.001000
1004.942308,0.039749,0.001000,0.001000,0.001000,0.001000,0.001000
1004.961538,0.040584,0.001000,0.001000,0.001000,0.001000,0.001000
1004.980769,0.041386,0.001000,0.001000,0.001000,0.001000,0.001000
1005.000000,0.042156,0.001000,0.001000,0.001000,0.001000,0.001000
1005.019231,0.042893,0.001000,0.001000,0.001000,0.001000,0.001000
1005.038462,0.043596,0.001000,0.001000,0.001000,0.001000,0.001000
1005.057692,0.044265,0.001000,0.001000,0.001000,0.001000,0.001000
1005.076923,0.044899,0.001000,0.001000,0.001000,0.001000,0.001000
1005.096154,0.045498,0.001000,0.001000,0.001000,0.001000,0.001000
1005.115385,0.046061,0.001000,0.001000,0.001000,0.001000,0.001000
1005.134615,0.046588,0.001000,0.001000,0.001000,0.001000,0.001000
1005.153846,0.047078,0.001000,0.001000,0.001000,0.001000,0.001000
1005.173077,0.047532,0.001000,0.001000,0.001000,0.001000,0.001000
1005.192308,0.047948,0.001000,0.001000,0.001000,0.001000,0.001000
1005.211538,0.048326,0.001000,0.001000,0.001000,0.001000,0.001000
1005.230769,0.048667,0.001000,0.001000,0.001000,0.001000,0.001000
1005.250000,0.048969,0.001000,0.001000,0.001000,0.001000,0.001000
1005.269231,0.049233,0.001000,0.001000,0.001000,0.001000,0.001000
1005.288462,0.049458,0.001000,0.001000,0.001000,0.001000,0.001000
1005.307692,0.049644,0.001000,0.001000,0.001000,0.001000,0.001000
1005.326923,0.049792,0.001000,0.001000,0.001000,0.001000,0.001000
1005.346154,0.049900,0.001000,0.001000,0.001000,0.001000,0.001000
1005.365385,0.049969,0.001000,0.001000,0.001000,0.001000,0.001000
1005.384615,0.049999,0.001000,0.001000,0.001000,0.001000,0.001000
1005.403846,0.049989,0.001000,0.001000,0.001000,0.001000,0.001000
1005.423077,0.049940,0.001000,0.001000,0.001000,0.001000,0.001000
1005.442308,0.049853,0.001000,0.001000,0.001000,0.001000,0.001000
1005.461538,0.049725,0.001000,0.001000,0.001000,0.001000,0.001000
1005.480769,0.049559,0.001000,0.001000,0.001000,0.001000,0.001000
1005.500000,0.049354,0.001000,0.001000,0.001000,0.001000,0.001000
1005.519231,0.049110,0.001000,0.001000,0.001000,0.001000,0.001000
1005.538462,0.048828,0.001000,0.001000,0.001000,0.001000,0.001000
1005.557692,0.048507,0.001000,0.001000,0.001000,0.001000,0.001000
1005.576923,0.048149,0.001000,0.001000,0.001000,0.001000,0.001000
1005.596154,0.047752,0.001000,0.001000,0.001000,0.001000,0.001000
1005.615385,0.047318,0.001000,0.001000,0.001000,0.001000,0.001000
1005.634615,0.046846,0.001000,0.001000,0.001000,0.001000,0.001000
1005.653846,0.046338,0.001000,0.001000,0.001000,0.001000,0.001000
1005.673077,0.045794,0.001000,0.001000,0.001000,0.001000,0.001000
1005.692308,0.045213,0.001000,0.001000,0.001000,0.001000,0.001000
1005.711538,0.044598,0.001000,0.001000,0.001000,0.001000,0.001000
1005.730769,0.043947,0.001000,0.001000,0.001000,0.001000,0.001000
1005.750000,0.043261,0.001000,0.001000,0.001000,0.001000,0.001000
1005.769231,0.042542,0.001000,0.001000,0.001000,0.001000,0.001000
1005.788462,0.041789,0.001000,0.001000,0.001000,0.001000,0.001000
1005.807692,0.041003,0.001000,0.001000,0.001000,0.001000,0.001000
1005.826923,0.040185,0.001000,0.001000,0.001000,0.001000,0.001000
1005.846154,0.039336,0.001000,0.001000,0.001000,0.001000,0.001000
1005.865385,0.038456,0.001000,0.001000,0.001000,0.001000,0.001000
1005.884615,0.037545,0.001000,0.001000,0.001000,0.001000,0.001000
1005.903846,0.036605,0.001000,0.001000,0.001000,0.001000,0.001000
1005.923077,0.035636,0.001000,0.001000,0.001000,0.001000,0.001000
1005.942308,0.034640,0.001000,0.001000,0.001000,0.001000,0.001000
1005.961538,0.033616,0.001000,0.001000,0.001000,0.001000,0.001000
1005.980769,0.032565,0.001000,0.001000,0.001000,0.001000,0.001000
1006.000000,0.031489,0.001000,0.001000,0.001000,0.001000,0.001000
1006.019231,0.030389,0.001000,0.001000,0.001000,0.001000,0.001000
1006.038462,0.029264,0.001000,0.001000,0.001000,0.001000,0.001000
1006.057692,0.028117,0.001000,0.001000,0.001000,0.001000,0.001000
1006.076923,0.026947,0.001000,0.001000,0.001000,0.001000,0.001000
1006.096154,0.025757,0.001000,0.001000,0.001000,0.001000,0.001000
1006.115385,0.024546,0.001000,0.001000,0.001000,0.001000,0.001000
1006.134615,0.023315,0.001000,0.001000,0.001000,0.001000,0.001000
1006.153846,0.022067,0.001000,0.001000,0.001000,0.001000,0.001000
1006.173077,0.020801,0.001000,0.001000,0.001000,0.001000,0.001000
1006.192308,0.019519,0.001000,0.001000,0.001000,0.001000,0.001000
1006.211538,0.018221,0.001000,0.001000,0.001000,0.001000,0.001000
1006.230769,0.016910,0.001000,0.001000,0.001000,0.001000,0.001000
1006.250000,0.015584,0.001000,0.001000,0.001000,0.001000,0.001000
1006.269231,0.014247,0.001000,0.001000,0.001000,0.001000,0.001000
1006.288462,0.012899,0.001000,0.001000,0.001000,0.001000,0.001000
1006.307692,0.011540,0.001000,0.001000,0.001000,0.001000,0.001000
1006.326923,0.010172,0.001000,0.001000,0.001000,0.001000,0.001000
1006.346154,0.008796,0.001000,0.001000,0.001000,0.001000,0.001000
1006.365385,0.007414,0.001000,0.001000,0.001000,0.001000,0.001000
1006.384615,0.006025,0.001000,0.001000,0.001000,0.001000,0.001000
1006.403846,0.004632,0.001000,0.001000,0.001000,0.001000,0.001000
1006.423077,0.003235,0.001000,0.001000,0.001000,0.001000,0.001000
1006.442308,0.001836,0.001000,0.001000,0.001000,0.001000,0.001000
1006.461538,0.000435,0.001000,0.001000,0.001000,0.001000,0.001000
1006.480769,-0.000966,0.001000,0.001000,0.001000,0.001000,0.001000
1006.500000,-0.002366,0.001000,0.001000,0.001000,0.001000,0.001000
1006.519231,-0.003765,0.001000,0.001000,0.001000,0.001000,0.001000
1006.538462,-0.005160,0.001000,0.001000,0.001000,0.001000,0.001000
1006.557692,-0.006552,0.001000,0.001000,0.001000,0.001000,0.001000
1006.576923,-0.007938,0.001000,0.001000,0.001000,0.001000,0.001000
1006.596154,-0.009318,0.001000,0.001000,0.001000,0.001000,0.001000
1006.615385,-0.010691,0.001000,0.001000,0.001000,0.001000,0.001000
1006.634615,-0.012056,0.001000,0.001000,0.001000,0.001000,0.001000
1006.653846,-0.013411,0.001000,0.001000,0.001000,0.001000,0.001000
1006.673077,-0.014755,0.001000,0.001000,0.001000,0.001000,0.001000
1006.692308,-0.016088,0.001000,0.001000,0.001000,0.001000,0.001000
1006.711538,-0.017408,0.001000,0.001000,0.001000,0.001000,0.001000
1006.730769,-0.018714,0.001000,0.001000,0.001000,0.001000,0.001000
1006.750000,-0.020006,0.001000,0.001000,0.001000,0.001000,0.001000
1006.769231,-0.021282,0.001000,0.001000,0.001000,0.001000,0.001000
1006.788462,-0.022542,0.001000,0.001000,0.001000,0.001000,0.001000
1006.807692,-0.023784,0.001000,0.001000,0.001000,0.001000,0.001000
1006.826923,-0.025007,0.001000,0.001000,0.001000,0.001000,0.001000
1006.846154,-0.026210,0.001000,0.001000,0.001000,0.001000,0.001000
1006.865385,-0.027393,0.001000,0.001000,0.001000,0.001000,0.001000
1006.884615,-0.028554,0.001000,0.001000,0.001000,0.001000,0.001000
1006.903846,-0.029693,0.001000,0.001000,0.001000,0.001000,0.001000
1006.923077,-0.030809,0.001000,0.001000,0.001000,0.001000,0.001000
1006.942308,-0.031900,0.001000,0.001000,0.001000,0.001000,0.001000
1006.961538,-0.032966,0.001000,0.001000,0.001000,0.001000,0.001000
1006.980769,-0.034007,0.001000,0.001000,0.001000,0.001000,0.001000
1007.000000,-0.035020,0.001000,0.001000,0.001000,0.001000,0.001000
1007.019231,-0.036007,0.001000,0.001000,0.001000,0.001000,0.001000
1007.038462,-0.036964,0.001000,0.001000,0.001000,0.001000,0.001000
1007.057692,-0.037893,0.001000,0.001000,0.001000,0.001000,0.001000
1007.076923,-0.038793,0.001000,0.001000,0.001000,0.001000,0.001000
1007.096154,-0.039661,0.001000,0.001000,0.001000,0.001000,0.001000
1007.115385,-0.040499,0.001000,0.001000,0.001000,0.001000,0.001000
1007.134615,-0.041305,0.001000,0.001000,0.001000,0.001000,0.001000
1007.153846,-0.042078,0.001000,0.001000,0.001000,0.001000,0.001000
1007.173077,-0.042818,0.001000,0.001000,0.001000,0.001000,0.001000
1007.192308,-0.043525,0.001000,0.001000,0.001000,0.001000,0.001000
1007.211538,-0.044197,0.001000,0.001000,0.001000,0.001000,0.001000
1007.230769,-0.044835,0.001000,0.001000,0.001000,0.001000,0.001000
1007.250000,-0.045438,0.001000,0.001000,0.001000,0.001000,0.001000
1007.269231,-0.046004,0.001000,0.001000,0.001000,0.001000,0.001000
1007.288462,-0.046535,0.001000,0.001000,0.001000,0.001000,0.001000
1007.307692,-0.047029,0.001000,0.001000,0.001000,0.001000,0.001000
1007.326923,-0.047487,0.001000,0.001000,0.001000,0.001000,0.001000
1007.346154,-0.047907,0.001000,0.001000,0.001000,0.001000,0.001000
1007.365385,-0.048289,0.001000,0.001000,0.001000,0.001000,0.001000
1007.384615,-0.048633,0.001000,0.001000,0.001000,0.001000,0.001000
1007.403846,-0.048940,0.001000,0.001000,0.001000,0.001000,0.001000
1007.423077,-0.049207,0.001000,0.001000,0.001000,0.001000,0.001000
1007.442308,-0.049436,0.001000,0.001000,0.001000,0.001000,0.001000
1007.461538,-0.049627,0.001000,0.001000,0.001000,0.001000,0.001000
1007.480769,-0.049778,0.001000,0.001000,0.001000,0.001000,0.001000
1007.500000,-0.049890,0.001000,0.001000,0.001000,0.001000,0.001000
1007.519231,-0.049964,0.001000,0.001000,0.001000,0.001000,0.001000
1007.538462,-0.049997,0.001000,0.001000,0.001000,0.001000,0.001000
1007.557692,-0.049992,0.001000,0.001000,0.001000,0.001000,0.001000
1007.576923,-0.049947,0.001000,0.001000,0.001000,0.001000,0.001000
1007.596154,-0.049863,0.001000,0.001000,0.001000,0.001000,0.001000
1007.615385,-0.049740,0.001000,0.001000,0.001000,0.001000,0.001000
1007.634615,-0.049578,0.001000,0.001000,0.001000,0.001000,0.001000
1007.653846,-0.049377,0.001000,0.001000,0.001000,0.001000,0.001000
1007.673077,-0.049137,0.001000,0.001000,0.001000,0.001000,0.001000
1007.692308,-0.048859,0.001000,0.001000,0.001000,0.001000,0.001000
1007.711538,-0.048542,0.001000,0.001000,0.001000,0.001000,0.001000
1007.730769,-0.048187,0.001000,0.001000,0.001000,0.001000,0.001000
1007.750000,-0.047795,0.001000,0.001000,0.001000,0.001000,0.001000
1007.769231,-0.047364,0.001000,0.001000,0.001000,0.001000,0.001000
1007.788462,-0.046897,0.001000,0.001000,0.001000,0.001000,0.001000
1007.807692,-0.046393,0.001000,0.001000,0.001000,0.001000,0.001000
1007.826923,-0.045852,0.001000,0.001000,0.001000,0.001000,0.001000
1007.846154,-0.045275,0.001000,0.001000,0.001000,0.001000,0.001000
1007.865385,-0.044663,0.001000,0.001000,0.001000,0.001000,0.001000
1007.884615,-0.044016,0.001000,0.001000,0.001000,0.001000,0.001000
1007.903846,-0.043334,0.001000,0.001000,0.001000,0.001000,0.001000
1007.923077,-0.042618,0.001000,0.001000,0.001000,0.001000,0.001000
1007.942308,-0.041868,0.001000,0.001000,0.001000,0.001000,0.001000
1007.961538,-0.041086,0.001000,0.001000,0.001000,0.001000,0.001000
1007.980769,-0.040271,0.001000,0.001000,0.001000,0.001000,0.001000
1008.000000,-0.039425,0.001000,0.001000,0.001000,0.001000,0.001000
1008.019231,-0.038548,0.001000,0.001000,0.001000,0.001000,0.001000
1008.038462,-0.037641,0.001000,0.001000,0.001000,0.001000,0.001000
1008.057692,-0.036704,0.001000,0.001000,0.001000,0.001000,0.001000
1008.076923,-0.035738,0.001000,0.001000,0.001000,0.001000,0.001000
1008.096154,-0.034744,0.001000,0.001000,0.001000,0.001000,0.001000
1008.115385,-0.033723,0.001000,0.001000,0.001000,0.001000,0.001000
1008.134615,-0.032675,0.001000,0.001000,0.001000,0.001000,0.001000
1008.153846,-0.031602,0.001000,0.001000,0.001000,0.001000,0.001000
1008.173077,-0.030504,0.001000,0.001000,0.001000,0.001000,0.001000
1008.192308,-0.029382,0.001000,0.001000,0.001000,0.001000,0.001000
1008.211538,-0.028237,0.001000,0.001000,0.001000,0.001000,0.001000
1008.230769,-0.027069,0.001000,0.001000,0.001000,0.001000,0.001000
1008.250000,-0.025881,0.001000,0.001000,0.001000,0.001000,0.001000
1008.269231,-0.024672,0.001000,0.001000,0.001000,0.001000,0.001000
1008.288462,-0.023444,0.001000,0.001000,0.001000,0.001000,0.001000
1008.307692,-0.022197,0.001000,0.001000,0.001000,0.001000,0.001000
1008.326923,-0.020933,0.001000,0.001000,0.001000,0.001000,0.001000
1008.346154,-0.019652,0.001000,0.001000,0.001000,0.001000,0.001000
1008.365385,-0.018356,0.001000,0.001000,0.001000,0.001000,0.001000
1008.384615,-0.017046,0.001000,0.001000,0.001000,0.001000,0.001000
1008.403846,-0.015722,0.001000,0.001000,0.001000,0.001000,0.001000
1008.423077,-0.014386,0.001000,0.001000,0.001000,0.001000,0.001000
1008.442308,-0.013039,0.001000,0.001000,0.001000,0.001000,0.001000
1008.461538,-0.011681,0.001000,0.001000,0.001000,0.001000,0.001000
1008.480769,-0.010314,0.001000,0.001000,0.001000,0.001000,0.001000
1008.500000,-0.008939,0.001000,0.001000,0.001000,0.001000,0.001000
1008.519231,-0.007557,0.001000,0.001000,0.001000,0.001000,0.001000
1008.538462,-0.006169,0.001000,0.001000,0.001000,0.001000,0.001000
1008.557692,-0.004777,0.001000,0.001000,0.001000,0.001000,0.001000
1008.576923,-0.003380,0.001000,0.001000,0.001000,0.001000,0.001000
1008.596154,-0.001981,0.001000,0.001000,0.001000,0.001000,0.001000
1008.615385,-0.000580,0.001000,0.001000,0.001000,0.001000,0.001000
1008.634615,0.000821,0.001000,0.001000,0.001000,0.001000,0.001000
1008.653846,0.002221,0.001000,0.001000,0.001000,0.001000,0.001000
1008.673077,0.003620,0.001000,0.001000,0.001000,0.001000,0.001000
1008.692308,0.005016,0.001000,0.001000,0.001000,0.001000,0.001000
1008.711538,0.006408,0.001000,0.001000,0.001000,0.001000,0.001000
1008.730769,0.007795,0.001000,0.001000,0.001000,0.001000,0.001000
1008.750000,0.009176,0.001000,0.001000,0.001000,0.001000,0.001000
1008.769231,0.010549,0.001000,0.001000,0.001000,0.001000,0.001000
1008.788462,0.011915,0.001000,0.001000,0.001000,0.001000,0.001000
1008.807692,0.013271,0.001000,0.001000,0.001000,0.001000,0.001000
1008.826923,0.014616,0.001000,0.001000,0.001000,0.001000,0.001000
1008.846154,0.015950,0.001000,0.001000,0.001000,0.001000,0.001000
1008.865385,0.017272,0.001000,0.001000,0.001000,0.001000,0.001000
1008.884615,0.018580,0.001000,0.001000,0.001000,0.001000,0.001000
1008.903846,0.019873,0.001000,0.001000,0.001000,0.001000,0.001000
1008.923077,0.021151,0.001000,0.001000,0.001000,0.001000,0.001000
1008.942308,0.022412,0.001000,0.001000,0.001000,0.001000,0.001000
1008.961538,0.023656,0.001000,0.001000,0.001000,0.001000,0.001000
1008.980769,0.024881,0.001000,0.001000,0.001000,0.001000,0.001000
1009.000000,0.026086,0.001000,0.001000,0.001000,0.001000,0.001000
1009.019231,0.027271,0.001000,0.001000,0.001000,0.001000,0.001000
1009.038462,0.028435,0.001000,0.001000,0.001000,0.001000,0.001000
1009.057692,0.029576,0.001000,0.001000,0.001000,0.001000,0.001000
1009.076923,0.030694,0.001000,0.001000,0.001000,0.001000,0.001000
1009.096154,0.031788,0.001000,0.001000,0.001000,0.001000,0.001000
1009.115385,0.032857,0.001000,0.001000,0.001000,0.001000,0.001000
1009.134615,0.033900,0.001000,0.001000,0.001000,0.001000,0.001000
1009.153846,0.034917,0.001000,0.001000,0.001000,0.001000,0.001000
1009.173077,0.035906,0.001000,0.001000,0.001000,0.001000,0.001000
1009.192308,0.036867,0.001000,0.001000,0.001000,0.001000,0.001000
1009.211538,0.037799,0.001000,0.001000,0.001000,0.001000,0.001000
1009.230769,0.038701,0.001000,0.001000,0.001000,0.001000,0.001000
1009.250000,0.039573,0.001000,0.001000,0.001000,0.001000,0.001000
1009.269231,0.040414,0.001000,0.001000,0.001000,0.001000,0.001000
1009.288462,0.041223,0.001000,0.001000,0.001000,0.001000,0.001000
1009.307692,0.041999,0.001000,0.001000,0.001000,0.001000,0.001000
1009.326923,0.042743,0.001000,0.001000,0.001000,0.001000,0.001000
1009.346154,0.043453,0.001000,0.001000,0.001000,0.001000,0.001000
1009.365385,0.044129,0.001000,0.001000,0.001000,0.001000,0.001000
1009.384615,0.044771,0.001000,0.001000,0.001000,0.001000,0.001000
1009.403846,0.045377,0.001000,0.001000,0.001000,0.001000,0.001000
1009.423077,0.045947,0.001000,0.001000,0.001000,0.001000,0.001000
1009.442308,0.046482,0.001000,0.001000,0.001000,0.001000,0.001000
1009.461538,0.046980,0.001000,0.001000,0.001000,0.001000,0.001000
1009.480769,0.047441,0.001000,0.001000,0.001000,0.001000,0.001000
1009.500000,0.047865,0.001000,0.001000,0.001000,0.001000,0.001000
1009.519231,0.048251,0.001000,0.001000,0.001000,0.001000,0.001000
1009.538462,0.048599,0.001000,0.001000,0.001000,0.001000,0.001000
1009.557692,0.048910,0.001000,0.001000,0.001000,0.001000,0.001000
1009.576923,0.049181,0.001000,0.001000,0.001000,0.001000,0.001000
1009.596154,0.049415,0.001000,0.001000,0.001000,0.001000,0.001000
1009.615385,0.049609,0.001000,0.001000,0.001000,0.001000,0.001000
1009.634615,0.049764,0.001000,0.001000,0.001000,0.001000,0.001000
1009.653846,0.049881,0.001000,0.001000,0.001000,0.001000,0.001000
1009.673077,0.049958,0.001000,0.001000,0.001000,0.001000,0.001000
1009.692308,0.049996,0.001000,0.001000,0.001000,0.001000,0.001000
1009.711538,0.049994,0.001000,0.001000,0.001000,0.001000,0.001000
1009.730769,0.049954,0.001000,0.001000,0.001000,0.001000,0.001000
1009.750000,0.049874,0.001000,0.001000,0.001000,0.001000,0.001000
1009.769231,0.049755,0.001000,0.001000,0.001000,0.001000,0.001000
1009.788462,0.049597,0.001000,0.001000,0.001000,0.001000,0.001000
1009.807692,0.049400,0.001000,0.001000,0.001000,0.001000,0.001000
1009.826923,0.049164,0.001000,0.001000,0.001000,0.001000,0.001000
1009.846154,0.048890,0.001000,0.001000,0.001000,0.001000,0.001000
1009.865385,0.048577,0.001000,0.001000,0.001000,0.001000,0.001000
1009.884615,0.048226,0.001000,0.001000,0.001000,0.001000,0.001000
1009.903846,0.047837,0.001000,0.001000,0.001000,0.001000,0.001000
1009.923077,0.047411,0.001000,0.001000,0.001000,0.001000,0.001000
1009.942308,0.046947,0.001000,0.001000,0.001000,0.001000,0.001000
1009.961538,0.046447,0.001000,0.001000,0.001000,0.001000,0.001000
1009.980769,0.045910,0.001000,0.001000,0.001000,0.001000,0.001000
1010.000000,0.045337,0.001000,0.001000,0.001000,0.001000,0.001000
1010.019231,0.044728,0.001000,0.001000,0.001000,0.001000,0.001000
1010.038462,0.044084,0.001000,0.001000,0.001000,0.001000,0.001000
1010.057692,0.043406,0.001000,0.001000,0.001000,0.001000,0.001000
1010.076923,0.042693,0.001000,0.001000,0.001000,0.001000,0.001000
1010.096154,0.041947,0.001000,0.001000,0.001000,0.001000,0.001000
1010.115385,0.041169,0.001000,0.001000,0.001000,0.001000,0.001000
1010.134615,0.040357,0.001000,0.001000,0.001000,0.001000,0.001000
1010.153846,0.039514,0.001000,0.001000,0.001000,0.001000,0.001000
1010.173077,0.038640,0.001000,0.001000,0.001000,0.001000,0.001000
1010.192308,0.037736,0.001000,0.001000,0.001000,0.001000,0.001000
1010.211538,0.036802,0.001000,0.001000,0.001000,0.001000,0.001000
1010.230769,0.035839,0.001000,0.001000,0.001000,0.001000,0.001000
1010.250000,0.034848,0.001000,0.001000,0.001000,0.001000,0.001000
1010.269231,0.033830,0.001000,0.001000,0.001000,0.001000,0.001000
1010.288462,0.032785,0.001000,0.001000,0.001000,0.001000,0.001000
1010.307692,0.031714,0.001000,0.001000,0.001000,0.001000,0.001000
1010.326923,0.030619,0.001000,0.001000,0.001000,0.001000,0.001000
1010.346154,0.029499,0.001000,0.001000,0.001000,0.001000,0.001000
1010.365385,0.028356,0.001000,0.001000,0.001000,0.001000,0.001000
1010.384615,0.027191,0.001000,0.001000,0.001000,0.001000,0.001000
1010.403846,0.026005,0.001000,0.001000,0.001000,0.001000,0.001000
1010.423077,0.024798,0.001000,0.001000,0.001000,0.001000,0.001000
1010.442308,0.023572,0.001000,0.001000,0.001000,0.001000,0.001000
1010.461538,0.022327,0.001000,0.001000,0.001000,0.001000,0.001000
1010.480769,0.021065,0.001000,0.001000,0.001000,0.001000,0.001000
1010.500000,0.019786,0.001000,0.001000,0.001000,0.001000,0.001000
1010.519231,0.018491,0.001000,0.001000,0.001000,0.001000,0.001000
1010.538462,0.017182,0.001000,0.001000,0.001000,0.001000,0.001000
1010.557692,0.015860,0.001000,0.001000,0.001000,0.001000,0.001000
1010.576923,0.014525,0.001000,0.001000,0.001000,0.001000,0.001000
1010.596154,0.013179,0.001000,0.001000,0.001000,0.001000,0.001000
1010.615385,0.011822,0.001000,0.001000,0.001000,0.001000,0.001000
1010.634615,0.010456,0.001000,0.001000,0.001000,0.001000,0.001000
1010.653846,0.009082,0.001000,0.001000,0.001000,0.001000,0.001000
1010.673077,0.007701,0.001000,0.001000,0.001000,0.001000,0.001000
1010.692308,0.006313,0.001000,0.001000,0.001000,0.001000,0.001000
1010.711538,0.004921,0.001000,0.001000,0.001000,0.001000,0.001000
1010.730769,0.003525,0.001000,0.001000,0.001000,0.001000,0.001000
1010.750000,0.002126,0.001000,0.001000,0.001000,0.001000,0.001000
1010.769231,0.000725,0.001000,0.001000,0.001000,0.001000,0.001000
1010.788462,-0.000676,0.001000,0.001000,0.001000,0.001000,0.001000
1010.807692,-0.002076,0.001000,0.001000,0.001000,0.001000,0.001000
1010.826923,-0.003475,0.001000,0.001000,0.001000,0.001000,0.001000
1010.846154,-0.004872,0.001000,0.001000,0.001000,0.001000,0.001000
1010.865385,-0.006264,0.001000,0.001000,0.001000,0.001000,0.001000
1010.884615,-0.007652,0.001000,0.001000,0.001000,0.001000,0.001000
1010.903846,-0.009033,0.001000,0.001000,0.001000,0.001000,0.001000
1010.923077,-0.010407,0.001000,0.001000,0.001000,0.001000,0.001000
1010.942308,-0.011774,0.001000,0.001000,0.001000,0.001000,0.001000
1010.961538,-0.013131,0.001000,0.001000,0.001000,0.001000,0.001000
1010.980769,-0.014477,0.001000,0.001000,0.001000,0.001000,0.001000
1011.000000,-0.015813,0.001000,0.001000,0.001000,0.001000,0.001000
1011.019231,-0.017136,0.001000,0.001000,0.001000,0.001000,0.001000
1011.038462,-0.018445,0.001000,0.001000,0.001000,0.001000,0.001000
1011.057692,-0.019740,0.001000,0.001000,0.001000,0.001000,0.001000
1011.076923,-0.021020,0.001000,0.001000,0.001000,0.001000,0.001000
1011.096154,-0.022282,0.001000,0.001000,0.001000,0.001000,0.001000
1011.115385,-0.023528,0.001000,0.001000,0.001000,0.001000,0.001000
1011.134615,-0.024755,0.001000,0.001000,0.001000,0.001000,0.001000
1011.153846,-0.025962,0.001000,0.001000,0.001000,0.001000,0.001000
1011.173077,-0.027150,0.001000,0.001000,0.001000,0.001000,0.001000
1011.192308,-0.028315,0.001000,0.001000,0.001000,0.001000,0.001000
1011.211538,-0.029459,0.001000,0.001000,0.001000,0.001000,0.001000
1011.230769,-0.030579,0.001000,0.001000,0.001000,0.001000,0.001000
1011.250000,-0.031676,0.001000,0.001000,0.001000,0.001000,0.001000
1011.269231,-0.032747,0.001000,0.001000,0.001000,0.001000,0.001000
1011.288462,-0.033793,0.001000,0.001000,0.001000,0.001000,0.001000
1011.307692,-0.034813,0.001000,0.001000,0.001000,0.001000,0.001000
1011.326923,-0.035805,0.001000,0.001000,0.001000,0.001000,0.001000
1011.346154,-0.036768,0.001000,0.001000,0.001000,0.001000,0.001000
1011.365385,-0.037703,0.001000,0.001000,0.001000,0.001000,0.001000
1011.384615,-0.038609,0.001000,0.001000,0.001000,0.001000,0.001000
1011.403846,-0.039484,0.001000,0.001000,0.001000,0.001000,0.001000
1011.423077,-0.040328,0.001000,0.001000,0.001000,0.001000,0.001000
1011.442308,-0.041140,0.001000,0.001000,0.001000,0.001000,0.001000
1011.461538,-0.041920,0.001000,0.001000,0.001000,0.001000,0.001000
1011.480769,-0.042668,0.001000,0.001000,0.001000,0.001000,0.001000
1011.500000,-0.043381,0.001000,0.001000,0.001000,0.001000,0.001000
1011.519231,-0.044061,0.001000,0.001000,0.001000,0.001000,0.001000
1011.538462,-0.044706,0.001000,0.001000,0.001000,0.001000,0.001000
1011.557692,-0.045316,0.001000,0.001000,0.001000,0.001000,0.001000
1011.576923,-0.045890,0.001000,0.001000,0.001000,0.001000,0.001000
1011.596154,-0.046428,0.001000,0.001000,0.001000,0.001000,0.001000
1011.615385,-0.046930,0.001000,0.001000,0.001000,0.001000,0.001000
1011.634615,-0.047395,0.001000,0.001000,0.001000,0.001000,0.001000
1011.653846,-0.047823,0.001000,0.001000,0.001000,0.001000,0.001000
1011.673077,-0.048213,0.001000,0.001000,0.001000,0.001000,0.001000
1011.692308,-0.048565,0.001000,0.001000,0.001000,0.001000,0.001000
1011.711538,-0.048879,0.001000,0.001000,0.001000,0.001000,0.001000
1011.730769,-0.049155,0.001000,0.001000,0.001000,0.001000,0.001000
1011.750000,-0.049392,0.001000,0.001000,0.001000,0.001000,0.001000
1011.769231,-0.049591,0.001000,0.001000,0.001000,0.001000,0.001000
1011.788462,-0.049750,0.001000,0.001000,0.001000,0.001000,0.001000
1011.807692,-0.049870,0.001000,0.001000,0.001000,0.001000,0.001000
1011.826923,-0.049952,0.001000,0.001000,0.001000,0.001000,0.001000
1011.846154,-0.049994,0.001000,0.001000,0.001000,0.001000,0.001000
1011.865385,-0.049996,0.001000,0.001000,0.001000,0.001000,0.001000
1011.884615,-0.049960,0.001000,0.001000,0.001000,0.001000,0.001000
1011.903846,-0.049884,0.001000,0.001000,0.001000,0.001000,0.001000
1011.923077,-0.049769,0.001000,0.001000,0.001000,0.001000,0.001000
1011.942308,-0.049615,0.001000,0.001000,0.001000,0.001000,0.001000
1011.961538,-0.049422,0.001000,0.001000,0.001000,0.001000,0.001000
1011.980769,-0.049190,0.001000,0.001000,0.001000,0.001000,0.001000
1012.000000,-0.048920,0.001000,0.001000,0.001000,0.001000,0.001000
1012.019231,-0.048611,0.001000,0.001000,0.001000,0.001000,0.001000
1012.038462,-0.048264,0.001000,0.001000,0.001000,0.001000,0.001000
1012.057692,-0.047879,0.001000,0.001000,0.001000,0.001000,0.001000
1012.076923,-0.047457,0.001000,0.001000,0.001000,0.001000,0.001000
1012.096154,-0.046997,0.001000,0.001000,0.001000,0.001000,0.001000
1012.115385,-0.046500,0.001000,0.001000,0.001000,0.001000,0.001000
1012.134615,-0.045967,0.001000,0.001000,0.001000,0.001000,0.001000
1012.153846,-0.045398,0.001000,0.001000,0.001000,0.001000,0.001000
1012.173077,-0.044793,0.001000,0.001000,0.001000,0.001000,0.001000
1012.192308,-0.044153,0.001000,0.001000,0.001000,0.001000,0.001000
1012.211538,-0.043478,0.001000,0.001000,0.001000,0.001000,0.001000
1012.230769,-0.042769,0.001000,0.001000,0.001000,0.001000,0.001000
1012.250000,-0.042026,0.001000,0.001000,0.001000,0.001000,0.001000
1012.269231,-0.041251,0.001000,0.001000,0.001000,0.001000,0.001000
1012.288462,-0.040443,0.001000,0.001000,0.001000,0.001000,0.001000
1012.307692,-0.039603,0.001000,0.001000,0.001000,0.001000,0.001000
1012.326923,-0.038732,0.001000,0.001000,0.001000,0.001000,0.001000
1012.346154,-0.037831,0.001000,0.001000,0.001000,0.001000,0.001000
1012.365385,-0.036900,0.001000,0.001000,0.001000,0.001000,0.001000
1012.384615,-0.035940,0.001000,0.001000,0.001000,0.001000,0.001000
1012.403846,-0.034952,0.001000,0.001000,0.001000,0.001000,0.001000
1012.423077,-0.033937,0.001000,0.001000,0.001000,0.001000,0.001000
1012.442308,-0.032894,0.001000,0.001000,0.001000,0.001000,0.001000
1012.461538,-0.031826,0.001000,0.001000,0.001000,0.001000,0.001000
1012.480769,-0.030733,0.001000,0.001000,0.001000,0.001000,0.001000
1012.500000,-0.029616,0.001000,0.001000,0.001000,0.001000,0.001000
1012.519231,-0.028476,0.001000,0.001000,0.001000,0.001000,0.001000
1012.538462,-0.027313,0.001000,0.001000,0.001000,0.001000,0.001000
1012.557692,-0.026129,0.001000,0.001000,0.001000,0.001000,0.001000
1012.576923,-0.024924,0.001000,0.001000,0.001000,0.001000,0.001000
1012.596154,-0.023700,0.001000,0.001000,0.001000,0.001000,0.001000
1012.615385,-0.022457,0.001000,0.001000,0.001000,0.001000,0.001000
1012.634615,-0.021196,0.001000,0.001000,0.001000,0.001000,0.001000
1012.653846,-0.019919,0.001000,0.001000,0.001000,0.001000,0.001000
1012.673077,-0.018626,0.001000,0.001000,0.001000,0.001000,0.001000
1012.692308,-0.017319,0.001000,0.001000,0.001000,0.001000,0.001000
1012.711538,-0.015997,0.001000,0.001000,0.001000,0.001000,0.001000
1012.730769,-0.014664,0.001000,0.001000,0.001000,0.001000,0.001000
1012.750000,-0.013319,0.001000,0.001000,0.001000,0.001000,0.001000
1012.769231,-0.011963,0.001000,0.001000,0.001000,0.001000,0.001000
1012.788462,-0.010598,0.001000,0.001000,0.001000,0.001000,0.001000
1012.807692,-0.009225,0.001000,0.001000,0.001000,0.001000,0.001000
1012.826923,-0.007844,0.001000,0.001000,0.001000,0.001000,0.001000
1012.846154,-0.006457,0.001000,0.001000,0.001000,0.001000,0.001000
1012.865385,-0.005065,0.001000,0.001000,0.001000,0.001000,0.001000
1012.884615,-0.003670,0.001000,0.001000,0.001000,0.001000,0.001000
1012.903846,-0.002271,0.001000,0.001000,0.001000,0.001000,0.001000
1012.923077,-0.000871,0.001000,0.001000,0.001000,0.001000,0.001000
1012.942308,0.000531,0.001000,0.001000,0.001000,0.001000,0.001000
1012.961538,0.001931,0.001000,0.001000,0.001000,0.001000,0.001000
1012.980769,0.003331,0.001000,0.001000,0.001000,0.001000,0.001000
1013.000000,0.004727,0.001000,0.001000,0.001000,0.001000,0.001000
1013.019231,0.006120,0.001000,0.001000,0.001000,0.001000,0.001000
1013.038462,0.007508,0.001000,0.001000,0.001000,0.001000,0.001000
1013.057692,0.008890,0.001000,0.001000,0.001000,0.001000,0.001000
1013.076923,0.010266,0.001000,0.001000,0.001000,0.001000,0.001000
1013.096154,0.011633,0.001000,0.001000,0.001000,0.001000,0.001000
1013.115385,0.012991,0.001000,0.001000,0.001000,0.001000,0.001000
1013.134615,0.014338,0.001000,0.001000,0.001000,0.001000,0.001000
1013.153846,0.015675,0.001000,0.001000,0.001000,0.001000,0.001000
1013.173077,0.016999,0.001000,0.001000,0.001000,0.001000,0.001000
1013.192308,0.018310,0.001000,0.001000,0.001000,0.001000,0.001000
1013.211538,0.019607,0.001000,0.001000,0.001000,0.001000,0.001000
1013.230769,0.020888,0.001000,0.001000,0.001000,0.001000,0.001000
1013.250000,0.022152,0.001000,0.001000,0.001000,0.001000,0.001000
1013.269231,0.023400,0.001000,0.001000,0.001000,0.001000,0.001000
1013.288462,0.024629,0.001000,0.001000,0.001000,0.001000,0.001000
1013.307692,0.025838,0.001000,0.001000,0.001000,0.001000,0.001000
1013.326923,0.027028,0.001000,0.001000,0.001000,0.001000,0.001000
1013.346154,0.028196,0.001000,0.001000,0.001000,0.001000,0.001000
1013.365385,0.029342,0.001000,0.001000,0.001000,0.001000,0.001000
1013.384615,0.030465,0.001000,0.001000,0.001000,0.001000,0.001000
1013.403846,0.031564,0.001000,0.001000,0.001000,0.001000,0.001000
1013.423077,0.032638,0.001000,0.001000,0.001000,0.001000,0.001000
1013.442308,0.033686,0.001000,0.001000,0.001000,0.001000,0.001000
1013.461538,0.034708,0.001000,0.001000,0.001000,0.001000,0.001000
1013.480769,0.035703,0.001000,0.001000,0.001000,0.001000,0.001000
1013.500000,0.036670,0.001000,0.001000,0.001000,0.001000,0.001000
1013.519231,0.037608,0.001000,0.001000,0.001000,0.001000,0.001000
1013.538462,0.038516,0.001000,0.001000,0.001000,0.001000,0.001000
1013.557692,0.039395,0.001000,0.001000,0.001000,0.001000,0.001000
1013.576923,0.040242,0.001000,0.001000,0.001000,0.001000,0.001000
1013.596154,0.041058,0.001000,0.001000,0.001000,0.001000,0.001000
1013.615385,0.041841,0.001000,0.001000,0.001000,0.001000,0.001000
1013.634615,0.042592,0.001000,0.001000,0.001000,0.001000,0.001000
1013.653846,0.043309,0.001000,0.001000,0.001000,0.001000,0.001000
1013.673077,0.043992,0.001000,0.001000,0.001000,0.001000,0.001000
1013.692308,0.044641,0.001000,0.001000,0.001000,0.001000,0.001000
1013.711538,0.045254,0.001000,0.001000,0.001000,0.001000,0.001000
1013.730769,0.045832,0.001000,0.001000,0.001000,0.001000,0.001000
1013.750000,0.046374,0.001000,0.001000,0.001000,0.001000,0.001000
1013.769231,0.046880,0.001000,0.001000,0.001000,0.001000,0.001000
1013.788462,0.047348,0.001000,0.001000,0.001000,0.001000,0.001000
1013.807692,0.047780,0.001000,0.001000,0.001000,0.001000,0.001000
1013.826923,0.048174,0.001000,0.001000,0.001000,0.001000,0.001000
1013.846154,0.048530,0.001000,0.001000,0.001000,0.001000,0.001000
1013.865385,0.048848,0.001000,0.001000,0.001000,0.001000,0.001000
1013.884615,0.049128,0.001000,0.001000,0.001000,0.001000,0.001000
1013.903846,0.049369,0.001000,0.001000,0.001000,0.001000,0.001000
1013.923077,0.049572,0.001000,0.001000,0.001000,0.001000,0.001000
1013.942308,0.049735,0.001000,0.001000,0.001000,0.001000,0.001000
1013.961538,0.049860,0.001000,0.001000,0.001000,0.001000,0.001000
1013.980769,0.049945,0.001000,0.001000,0.001000,0.001000,0.001000
1014.000000,0.049991,0.001000,0.001000,0.001000,0.001000,0.001000
1014.019231,0.049998,0.001000,0.001000,0.001000,0.001000,0.001000
1014.038462,0.049965,0.001000,0.001000,0.001000,0.001000,0.001000
1014.057692,0.049894,0.001000,0.001000,0.001000,0.001000,0.001000
1014.076923,0.049783,0.001000,0.001000,0.001000,0.001000,0.001000
1014.096154,0.049633,0.001000,0.001000,0.001000,0.001000,0.001000
1014.115385,0.049444,0.001000,0.001000,0.001000,0.001000,0.001000
1014.134615,0.049216,0.001000,0.001000,0.001000,0.001000,0.001000
1014.153846,0.048950,0.001000,0.001000,0.001000,0.001000,0.001000
1014.173077,0.048645,0.001000,0.001000,0.001000,0.001000,0.001000
1014.192308,0.048302,0.001000,0.001000,0.001000,0.001000,0.001000
1014.211538,0.047921,0.001000,0.001000,0.001000,0.001000,0.001000
1014.230769,0.047502,0.001000,0.001000,0.001000,0.001000,0.001000
1014.250000,0.047046,0.001000,0.001000,0.001000,0.001000,0.001000
1014.269231,0.046553,0.001000,0.001000,0.001000,0.001000,0.001000
1014.288462,0.046024,0.001000,0.001000,0.001000,0.001000,0.001000
1014.307692,0.045458,0.001000,0.001000,0.001000,0.001000,0.001000
1014.326923,0.044857,0.001000,0.001000,0.001000,0.001000,0.001000
1014.346154,0.044220,0.001000,0.001000,0.001000,0.001000,0.001000
1014.365385,0.043549,0.001000,0.001000,0.001000,0.001000,0.001000
1014.384615,0.042844,0.001000,0.001000,0.001000,0.001000,0.001000
1014.403846,0.042105,0.001000,0.001000,0.001000,0.001000,0.001000
1014.423077,0.041333,0.001000,0.001000,0.001000,0.001000,0.001000
1014.442308,0.040528,0.001000,0.001000,0.001000,0.001000,0.001000
1014.461538,0.039692,0.001000,0.001000,0.001000,0.001000,0.001000
1014.480769,0.038824,0.001000,0.001000,0.001000,0.001000,0.001000
1014.500000,0.037926,0.001000,0.001000,0.001000,0.001000,0.001000
1014.519231,0.036998,0.001000,0.001000,0.001000,0.001000,0.001000
1014.538462,0.036041,0.001000,0.001000,0.001000,0.001000,0.001000
1014.557692,0.035056,0.001000,0.001000,0.001000,0.001000,0.001000
1014.576923,0.034043,0.001000,0.001000,0.001000,0.001000,0.001000
1014.596154,0.033004,0.001000,0.001000,0.001000,0.001000,0.001000
1014.615385,0.031938,0.001000,0.001000,0.001000,0.001000,0.001000
1014.634615,0.030848,0.001000,0.001000,0.001000,0.001000,0.001000
1014.653846,0.029733,0.001000,0.001000,0.001000,0.001000,0.001000
1014.673077,0.028595,0.001000,0.001000,0.001000,0.001000,0.001000
1014.692308,0.027434,0.001000,0.001000,0.001000,0.001000,0.001000
1014.711538,0.026252,0.001000,0.001000,0.001000,0.001000,0.001000
1014.730769,0.025050,0.001000,0.001000,0.001000,0.001000,0.001000
1014.750000,0.023827,0.001000,0.001000,0.001000,0.001000,0.001000
1014.769231,0.022586,0.001000,0.001000,0.001000,0.001000,0.001000
1014.788462,0.021327,0.001000,0.001000,0.001000,0.001000,0.001000
1014.807692,0.020052,0.001000,0.001000,0.001000,0.001000,0.001000
1014.826923,0.018761,0.001000,0.001000,0.001000,0.001000,0.001000
1014.846154,0.017455,0.001000,0.001000,0.001000,0.001000,0.001000
1014.865385,0.016135,0.001000,0.001000,0.001000,0.001000,0.001000
1014.884615,0.014802,0.001000,0.001000,0.001000,0.001000,0.001000
1014.903846,0.013458,0.001000,0.001000,0.001000,0.001000,0.001000
1014.923077,0.012104,0.001000,0.001000,0.001000,0.001000,0.001000
1014.942308,0.010740,0.001000,0.001000,0.001000,0.001000,0.001000
1014.961538,0.009367,0.001000,0.001000,0.001000,0.001000,0.001000
1014.980769,0.007987,0.001000,0.001000,0.001000,0.001000,0.001000
1015.000000,0.006601,0.001000,0.001000,0.001000,0.001000,0.001000
1015.019231,0.005210,0.001000,0.001000,0.001000,0.001000,0.001000
1015.038462,0.003814,0.001000,0.001000,0.001000,0.001000,0.001000
1015.057692,0.002416,0.001000,0.001000,0.001000,0.001000,0.001000
1015.076923,0.001016,0.001000,0.001000,0.001000,0.001000,0.001000
1015.096154,-0.000386,0.001000,0.001000,0.001000,0.001000,0.001000
1015.115385,-0.001786,0.001000,0.001000,0.001000,0.001000,0.001000
1015.134615,-0.003186,0.001000,0.001000,0.001000,0.001000,0.001000
1015.153846,-0.004583,0.001000,0.001000,0.001000,0.001000,0.001000
1015.173077,-0.005976,0.001000,0.001000,0.001000,0.001000,0.001000
1015.192308,-0.007365,0.001000,0.001000,0.001000,0.001000,0.001000
1015.211538,-0.008748,0.001000,0.001000,0.001000,0.001000,0.001000
1015.230769,-0.010123,0.001000,0.001000,0.001000,0.001000,0.001000
1015.250000,-0.011492,0.001000,0.001000,0.001000,0.001000,0.001000
1015.269231,-0.012851,0.001000,0.001000,0.001000,0.001000,0.001000
1015.288462,-0.014199,0.001000,0.001000,0.001000,0.001000,0.001000
1015.307692,-0.015537,0.001000,0.001000,0.001000,0.001000,0.001000
1015.326923,-0.016863,0.001000,0.001000,0.001000,0.001000,0.001000
1015.346154,-0.018175,0.001000,0.001000,0.001000,0.001000,0.001000
1015.365385,-0.019473,0.001000,0.001000,0.001000,0.001000,0.001000
1015.384615,-0.020756,0.001000,0.001000,0.001000,0.001000,0.001000
1015.403846,-0.022022,0.001000,0.001000,0.001000,0.001000,0.001000
1015.423077,-0.023271,0.001000,0.001000,0.001000,0.001000,0.001000
1015.442308,-0.024502,0.001000,0.001000,0.001000,0.001000,0.001000
1015.461538,-0.025714,0.001000,0.001000,0.001000,0.001000,0.001000
1015.480769,-0.026905,0.001000,0.001000,0.001000,0.001000,0.001000
1015.500000,-0.028076,0.001000,0.001000,0.001000,0.001000,0.001000
1015.519231,-0.029224,0.001000,0.001000,0.001000,0.001000,0.001000
1015.538462,-0.030349,0.001000,0.001000,0.001000,0.001000,0.001000
1015.557692,-0.031451,0.001000,0.001000,0.001000,0.001000,0.001000
1015.576923,-0.032528,0.001000,0.001000,0.001000,0.001000,0.001000
1015.596154,-0.033579,0.001000,0.001000,0.001000,0.001000,0.001000
1015.615385,-0.034604,0.001000,0.001000,0.001000,0.001000,0.001000
1015.634615,-0.035601,0.001000,0.001000,0.001000,0.001000,0.001000
1015.653846,-0.036571,0.001000,0.001000,0.001000,0.001000,0.001000
1015.673077,-0.037512,0.001000,0.001000,0.001000,0.001000,0.001000
1015.692308,-0.038424,0.001000,0.001000,0.001000,0.001000,0.001000
1015.711538,-0.039305,0.001000,0.001000,0.001000,0.001000,0.001000
1015.730769,-0.040156,0.001000,0.001000,0.001000,0.001000,0.001000
1015.750000,-0.040975,0.001000,0.001000,0.001000,0.001000,0.001000
1015.769231,-0.041762,0.001000,0.001000,0.001000,0.001000,0.001000
1015.788462,-0.042516,0.001000,0.001000,0.001000,0.001000,0.001000
1015.807692,-0.043236,0.001000,0.001000,0.001000,0.001000,0.001000
1015.826923,-0.043923,0.001000,0.001000,0.001000,0.001000,0.001000
1015.846154,-0.044575,0.001000,0.001000,0.001000,0.001000,0.001000
1015.865385,-0.045192,0.001000,0.001000,0.001000,0.001000,0.001000
1015.884615,-0.045774,0.001000,0.001000,0.001000,0.001000,0.001000
1015.903846,-0.046320,0.001000,0.001000,0.001000,0.001000,0.001000
1015.923077,-0.046829,0.001000,0.001000,0.001000,0.001000,0.001000
1015.942308,-0.047302,0.001000,0.001000,0.001000,0.001000,0.001000
1015.961538,-0.047737,0.001000,0.001000,0.001000,0.001000,0.001000
1015.980769,-0.048135,0.001000,0.001000,0.001000,0.001000,0.001000
1016.000000,-0.048495,0.001000,0.001000,0.001000,0.001000,0.001000
1016.019231,-0.048817,0.001000,0.001000,0.001000,0.001000,0.001000
1016.038462,-0.049101,0.001000,0.001000,0.001000,0.001000,0.001000
1016.057692,-0.049346,0.001000,0.001000,0.001000,0.001000,0.001000
1016.076923,-0.049553,0.001000,0.001000,0.001000,0.001000,0.001000
1016.096154,-0.049720,0.001000,0.001000,0.001000,0.001000,0.001000
1016.115385,-0.049849,0.001000,0.001000,0.001000,0.001000,0.001000
1016.134615,-0.049938,0.001000,0.001000,0.001000,0.001000,0.001000
1016.153846,-0.049988,0.001000,0.001000,0.001000,0.001000,0.001000
1016.173077,-0.049999,0.001000,0.001000,0.001000,0.001000,0.001000
1016.192308,-0.049971,0.001000,0.001000,0.001000,0.001000,0.001000
1016.211538,-0.049903,0.001000,0.001000,0.001000,0.001000,0.001000
1016.230769,-0.049796,0.001000,0.001000,0.001000,0.001000,0.001000
1016.250000,-0.049650,0.001000,0.001000,0.001000,0.001000,0.001000
1016.269231,-0.049465,0.001000,0.001000,0.001000,0.001000,0.001000
1016.288462,-0.049242,0.001000,0.001000,0.001000,0.001000,0.001000
1016.307692,-0.048979,0.001000,0.001000,0.001000,0.001000,0.001000
1016.326923,-0.048678,0.001000,0.001000,0.001000,0.001000,0.001000
1016.346154,-0.048339,0.001000,0.001000,0.001000,0.001000,0.001000
1016.365385,-0.047962,0.001000,0.001000,0.001000,0.001000,0.001000
1016.384615,-0.047547,0.001000,0.001000,0.001000,0.001000,0.001000
1016.403846,-0.047095,0.001000,0.001000,0.001000,0.001000,0.001000
1016.423077,-0.046606,0.001000,0.001000,0.001000,0.001000,0.001000
1016.442308,-0.046080,0.001000,0.001000,0.001000,0.001000,0.001000
1016.461538,-0.045518,0.001000,0.001000,0.001000,0.001000,0.001000
1016.480769,-0.044921,0.001000,0.001000,0.001000,0.001000,0.001000
1016.500000,-0.044288,0.001000,0.001000,0.001000,0.001000,0.001000
1016.519231,-0.043620,0.001000,0.001000,0.001000,0.001000,0.001000
1016.538462,-0.042918,0.001000,0.001000,0.001000,0.001000,0.001000
1016.557692,-0.042183,0.001000,0.001000,0.001000,0.001000,0.001000
1016.576923,-0.041414,0.001000,0.001000,0.001000,0.001000,0.001000
1016.596154,-0.040613,0.001000,0.001000,0.001000,0.001000,0.001000
1016.615385,-0.039780,0.001000,0.001000,0.001000,0.001000,0.001000
1016.634615,-0.038915,0.001000,0.001000,0.001000,0.001000,0.001000
1016.653846,-0.038020,0.001000,0.001000,0.001000,0.001000,0.001000
1016.673077,-0.037095,0.001000,0.001000,0.001000,0.001000,0.001000
1016.692308,-0.036141,0.001000,0.001000,0.001000,0.001000,0.001000
1016.711538,-0.035159,0.001000,0.001000,0.001000,0.001000,0.001000
1016.730769,-0.034149,0.001000,0.001000,0.001000,0.001000,0.001000
1016.750000,-0.033112,0.001000,0.001000,0.001000,0.001000,0.001000
1016.769231,-0.032050,0.001000,0.001000,0.001000,0.001000,0.001000
1016.788462,-0.030962,0.001000,0.001000,0.001000,0.001000,0.001000
1016.807692,-0.029849,0.001000,0.001000,0.001000,0.001000,0.001000
1016.826923,-0.028714,0.001000,0.001000,0.001000,0.001000,0.001000
1016.846154,-0.027556,0.001000,0.001000,0.001000,0.001000,0.001000
1016.865385,-0.026376,0.001000,0.001000,0.001000,0.001000,0.001000
1016.884615,-0.025175,0.001000,0.001000,0.001000,0.001000,0.001000
1016.903846,-0.023955,0.001000,0.001000,0.001000,0.001000,0.001000
1016.923077,-0.022716,0.001000,0.001000,0.001000,0.001000,0.001000
1016.942308,-0.021459,0.001000,0.001000,0.001000,0.001000,0.001000
1016.961538,-0.020185,0.001000,0.001000,0.001000,0.001000,0.001000
1016.980769,-0.018895,0.001000,0.001000,0.001000,0.001000,0.001000
1017.000000,-0.017590,0.001000,0.001000,0.001000,0.001000,0.001000
1017.019231,-0.016272,0.001000,0.001000,0.001000,0.001000,0.001000
1017.038462,-0.014941,0.001000,0.001000,0.001000,0.001000,0.001000
1017.057692,-0.013598,0.001000,0.001000,0.001000,0.001000,0.001000
1017.076923,-0.012245,0.001000,0.001000,0.001000,0.001000,0.001000
1017.096154,-0.010881,0.001000,0.001000,0.001000,0.001000,0.001000
1017.115385,-0.009510,0.001000,0.001000,0.001000,0.001000,0.001000
1017.134615,-0.008130,0.001000,0.001000,0.001000,0.001000,0.001000
1017.153846,-0.006745,0.001000,0.001000,0.001000,0.001000,0.001000
1017.173077,-0.005354,0.001000,0.001000,0.001000,0.001000,0.001000
1017.192308,-0.003959,0.001000,0.001000,0.001000,0.001000,0.001000
1017.211538,-0.002561,0.001000,0.001000,0.001000,0.001000,0.001000
1017.230769,-0.001161,0.001000,0.001000,0.001000,0.001000,0.001000
1017.250000,0.000240,0.001000,0.001000,0.001000,0.001000,0.001000
1017.269231,0.001641,0.001000,0.001000,0.001000,0.001000,0.001000
1017.288462,0.003041,0.001000,0.001000,0.001000,0.001000,0.001000
1017.307692,0.004438,0.001000,0.001000,0.001000,0.001000,0.001000
1017.326923,0.005832,0.001000,0.001000,0.001000,0.001000,0.001000
1017.346154,0.007221,0.001000,0.001000,0.001000,0.001000,0.001000
1017.365385,0.008605,0.001000,0.001000,0.001000,0.001000,0.001000
1017.384615,0.009981,0.001000,0.001000,0.001000,0.001000,0.001000
1017.403846,0.011350,0.001000,0.001000,0.001000,0.001000,0.001000
1017.423077,0.012710,0.001000,0.001000,0.001000,0.001000,0.001000
1017.442308,0.014060,0.001000,0.001000,0.001000,0.001000,0.001000
1017.461538,0.015399,0.001000,0.001000,0.001000,0.001000,0.001000
1017.480769,0.016726,0.001000,0.001000,0.001000,0.001000,0.001000
1017.500000,0.018040,0.001000,0.001000,0.001000,0.001000,0.001000
1017.519231,0.019339,0.001000,0.001000,0.001000,0.001000,0.001000
1017.538462,0.020624,0.001000,0.001000,0.001000,0.001000,0.001000
1017.557692,0.021892,0.001000,0.001000,0.001000,0.001000,0.001000
1017.576923,0.023143,0.001000,0.001000,0.001000,0.001000,0.001000
1017.596154,0.024376,0.001000,0.001000,0.001000,0.001000,0.001000
1017.615385,0.025589,0.001000,0.001000,0.001000,0.001000,0.001000
1017.634615,0.026783,0.001000,0.001000,0.001000,0.001000,0.001000
1017.653846,0.027956,0.001000,0.001000,0.001000,0.001000,0.001000
1017.673077,0.029106,0.001000,0.001000,0.001000,0.001000,0.001000
1017.692308,0.030234,0.001000,0.001000,0.001000,0.001000,0.001000
1017.711538,0.031338,0.001000,0.001000,0.001000,0.001000,0.001000
1017.730769,0.032417,0.001000,0.001000,0.001000,0.001000,0.001000
1017.750000,0.033471,0.001000,0.001000,0.001000,0.001000,0.001000
1017.769231,0.034499,0.001000,0.001000,0.001000,0.001000,0.001000
1017.788462,0.035499,0.001000,0.001000,0.001000,0.001000,0.001000
1017.807692,0.036472,0.001000,0.001000,0.001000,0.001000,0.001000
1017.826923,0.037416,0.001000,0.001000,0.001000,0.001000,0.001000
1017.846154,0.038331,0.001000,0.001000,0.001000,0.001000,0.001000
1017.865385,0.039215,0.001000,0.001000,0.001000,0.001000,0.001000
1017.884615,0.040069,0.001000,0.001000,0.001000,0.001000,0.001000
1017.903846,0.040891,0.001000,0.001000,0.001000,0.001000,0.001000
1017.923077,0.041682,0.001000,0.001000,0.001000,0.001000,0.001000
1017.942308,0.042439,0.001000,0.001000,0.001000,0.001000,0.001000
1017.961538,0.043163,0.001000,0.001000,0.001000,0.001000,0.001000
1017.980769,0.043853,0.001000,0.001000,0.001000,0.001000,0.001000
1018.000000,0.044509,0.001000,0.001000,0.001000,0.001000,0.001000
1018.019231,0.045130,0.001000,0.001000,0.001000,0.001000,0.001000
1018.038462,0.045715,0.001000,0.001000,0.001000,0.001000,0.001000
1018.057692,0.046265,0.001000,0.001000,0.001000,0.001000,0.001000
1018.076923,0.046778,0.001000,0.001000,0.001000,0.001000,0.001000
1018.096154,0.047254,0.001000,0.001000,0.001000,0.001000,0.001000
1018.115385,0.047694,0.001000,0.001000,0.001000,0.001000,0.001000
1018.134615,0.048096,0.001000,0.001000,0.001000,0.001000,0.001000
1018.153846,0.048460,0.001000,0.001000,0.001000,0.001000,0.001000
1018.173077,0.048786,0.001000,0.001000,0.001000,0.001000,0.001000
1018.192308,0.049073,0.001000,0.001000,0.001000,0.001000,0.001000
1018.211538,0.049323,0.001000,0.001000,0.001000,0.001000,0.001000
1018.230769,0.049533,0.001000,0.001000,0.001000,0.001000,0.001000
1018.250000,0.049705,0.001000,0.001000,0.001000,0.001000,0.001000
1018.269231,0.049837,0.001000,0.001000,0.001000,0.001000,0.001000
1018.288462,0.049931,0.001000,0.001000,0.001000,0.001000,0.001000
1018.307692,0.049985,0.001000,0.001000,0.001000,0.001000,0.001000
1018.326923,0.050000,0.001000,0.001000,0.001000,0.001000,0.001000
1018.346154,0.049975,0.001000,0.001000,0.001000,0.001000,0.001000
1018.365385,0.049912,0.001000,0.001000,0.001000,0.001000,0.001000
1018.384615,0.049809,0.001000,0.001000,0.001000,0.001000,0.001000
1018.403846,0.049667,0.001000,0.001000,0.001000,0.001000,0.001000
1018.423077,0.049486,0.001000,0.001000,0.001000,0.001000,0.001000
1018.442308,0.049266,0.001000,0.001000,0.001000,0.001000,0.001000
1018.461538,0.049008,0.001000,0.001000,0.001000,0.001000,0.001000
1018.480769,0.048711,0.001000,0.001000,0.001000,0.001000,0.001000
1018.500000,0.048376,0.001000,0.001000,0.001000,0.001000,0.001000
1018.519231,0.048003,0.001000,0.001000,0.001000,0.001000,0.001000
1018.538462,0.047592,0.001000,0.001000,0.001000,0.001000,0.001000
1018.557692,0.047144,0.001000,0.001000,0.001000,0.001000,0.001000
1018.576923,0.046658,0.001000,0.001000,0.001000,0.001000,0.001000
1018.596154,0.046136,0.001000,0.001000,0.001000,0.001000,0.001000
1018.615385,0.045578,0.001000,0.001000,0.001000,0.001000,0.001000
1018.634615,0.044984,0.001000,0.001000,0.001000,0.001000,0.001000
1018.653846,0.044355,0.001000,0.001000,0.001000,0.001000,0.001000
1018.673077,0.043691,0.001000,0.001000,0.001000,0.001000,0.001000
1018.692308,0.042993,0.001000,0.001000,0.001000,0.001000,0.001000
1018.711538,0.042260,0.001000,0.001000,0.001000,0.001000,0.001000
1018.730769,0.041495,0.001000,0.001000,0.001000,0.001000,0.001000
1018.750000,0.040697,0.001000,0.001000,0.001000,0.001000,0.001000
1018.769231,0.039867,0.001000,0.001000,0.001000,0.001000,0.001000
1018.788462,0.039006,0.001000,0.001000,0.001000,0.001000,0.001000
1018.807692,0.038114,0.001000,0.001000,0.001000,0.001000,0.001000
1018.826923,0.037193,0.001000,0.001000,0.001000,0.001000,0.001000
1018.846154,0.036242,0.001000,0.001000,0.001000,0.001000,0.001000
1018.865385,0.035262,0.001000,0.001000,0.001000,0.001000,0.001000
1018.884615,0.034255,0.001000,0.001000,0.001000,0.001000,0.001000
1018.903846,0.033221,0.001000,0.001000,0.001000,0.001000,0.001000
1018.923077,0.032161,0.001000,0.001000,0.001000,0.001000,0.001000
1018.942308,0.031076,0.001000,0.001000,0.001000,0.001000,0.001000
1018.961538,0.029966,0.001000,0.001000,0.001000,0.001000,0.001000
1018.980769,0.028832,0.001000,0.001000,0.001000,0.001000,0.001000
1019.000000,0.027677,0.001000,0.001000,0.001000,0.001000,0.001000
1019.019231,0.026499,0.001000,0.001000,0.001000,0.001000,0.001000
1019.038462,0.025300,0.001000,0.001000,0.001000,0.001000,0.001000
1019.057692,0.024082,0.001000,0.001000,0.001000,0.001000,0.001000
1019.076923,0.022845,0.001000,0.001000,0.001000,0.001000,0.001000
1019.096154,0.021590,0.001000,0.001000,0.001000,0.001000,0.001000
1019.115385,0.020317,0.001000,0.001000,0.001000,0.001000,0.001000
1019.134615,0.019029,0.001000,0.001000,0.001000,0.001000,0.001000
1019.153846,0.017726,0.001000,0.001000,0.001000,0.001000,0.001000
1019.173077,0.016409,0.001000,0.001000,0.001000,0.001000,0.001000
1019.192308,0.015079,0.001000,0.001000,0.001000,0.001000,0.001000
1019.211538,0.013738,0.001000,0.001000,0.001000,0.001000,0.001000
1019.230769,0.012385,0.001000,0.001000,0.001000,0.001000,0.001000
1019.250000,0.011023,0.001000,0.001000,0.001000,0.001000,0.001000
1019.269231,0.009652,0.001000,0.001000,0.001000,0.001000,0.001000
1019.288462,0.008274,0.001000,0.001000,0.001000,0.001000,0.001000
1019.307692,0.006889,0.001000,0.001000,0.001000,0.001000,0.001000
1019.326923,0.005498,0.001000,0.001000,0.001000,0.001000,0.001000
1019.346154,0.004104,0.001000,0.001000,0.001000,0.001000,0.001000
1019.365385,0.002706,0.001000,0.001000,0.001000,0.001000,0.001000
1019.384615,0.001306,0.001000,0.001000,0.001000,0.001000,0.001000
1019.403846,-0.000095,0.001000,0.001000,0.001000,0.001000,0.001000
1019.423077,-0.001496,0.001000,0.001000,0.001000,0.001000,0.001000
1019.442308,-0.002896,0.001000,0.001000,0.001000,0.001000,0.001000
1019.461538,-0.004294,0.001000,0.001000,0.001000,0.001000,0.001000
1019.480769,-0.005688,0.001000,0.001000,0.001000,0.001000,0.001000
1019.500000,-0.007078,0.001000,0.001000,0.001000,0.001000,0.001000
1019.519231,-0.008462,0.001000,0.001000,0.001000,0.001000,0.001000
1019.538462,-0.009839,0.001000,0.001000,0.001000,0.001000,0.001000
1019.557692,-0.011209,0.001000,0.001000,0.001000,0.001000,0.001000
1019.576923,-0.012570,0.001000,0.001000,0.001000,0.001000,0.001000
1019.596154,-0.013921,0.001000,0.001000,0.001000,0.001000,0.001000
1019.615385,-0.015261,0.001000,0.001000,0.001000,0.001000,0.001000
1019.634615,-0.016589,0.001000,0.001000,0.001000,0.001000,0.001000
1019.653846,-0.017904,0.001000,0.001000,0.001000,0.001000,0.001000
1019.673077,-0.019206,0.001000,0.001000,0.001000,0.001000,0.001000
1019.692308,-0.020492,0.001000,0.001000,0.001000,0.001000,0.001000
1019.711538,-0.021761,0.001000,0.001000,0.001000,0.001000,0.001000
1019.730769,-0.023014,0.001000,0.001000,0.001000,0.001000,0.001000
1019.750000,-0.024249,0.001000,0.001000,0.001000,0.001000,0.001000
1019.769231,-0.025465,0.001000,0.001000,0.001000,0.001000,0.001000
1019.788462,-0.026660,0.001000,0.001000,0.001000,0.001000,0.001000
1019.807692,-0.027835,0.001000,0.001000,0.001000,0.001000,0.001000
1019.826923,-0.028988,0.001000,0.001000,0.001000,0.001000,0.001000
1019.846154,-0.030118,0.001000,0.001000,0.001000,0.001000,0.001000
1019.865385,-0.031225,0.001000,0.001000,0.001000,0.001000,0.001000
1019.884615,-0.032307,0.001000,0.001000,0.001000,0.001000,0.001000
1019.903846,-0.033363,0.001000,0.001000,0.001000,0.001000,0.001000
1019.923077,-0.034394,0.001000,0.001000,0.001000,0.001000,0.001000
1019.942308,-0.035397,0.001000,0.001000,0.001000,0.001000,0.001000
1019.961538,-0.036373,0.001000,0.001000,0.001000,0.001000,0.001000
1019.980769,-0.037320,0.001000,0.001000,0.001000,0.001000,0.001000
1020.000000,-0.038237,0.001000,0.001000,0.001000,0.001000,0.001000
1020.019231,-0.039125,0.001000,0.001000,0.001000,0.001000,0.001000
1020.038462,-0.039982,0.001000,0.001000,0.001000,0.001000,0.001000
1020.057692,-0.040808,0.001000,0.001000,0.001000,0.001000,0.001000
1020.076923,-0.041601,0.001000,0.001000,0.001000,0.001000,0.001000
1020.096154,-0.042362,0.001000,0.001000,0.001000,0.001000,0.001000
1020.115385,-0.043090,0.001000,0.001000,0.001000,0.001000,0.001000
1020.134615,-0.043783,0.001000,0.001000,0.001000,0.001000,0.001000
1020.153846,-0.044443,0.001000,0.001000,0.001000,0.001000,0.001000
1020.173077,-0.045067,0.001000,0.001000,0.001000,0.001000,0.001000
1020.192308,-0.045656,0.001000,0.001000,0.001000,0.001000,0.001000
1020.211538,-0.046210,0.001000,0.001000,0.001000,0.001000,0.001000
1020.230769,-0.046727,0.001000,0.001000,0.001000,0.001000,0.001000
1020.250000,-0.047207,0.001000,0.001000,0.001000,0.001000,0.001000
1020.269231,-0.047650,0.001000,0.001000,0.001000,0.001000,0.001000
1020.288462,-0.048056,0.001000,0.001000,0.001000,0.001000,0.001000
1020.307692,-0.048424,0.001000,0.001000,0.001000,0.001000,0.001000
1020.326923,-0.048754,0.001000,0.001000,0.001000,0.001000,0.001000
1020.346154,-0.049045,0.001000,0.001000,0.001000,0.001000,0.001000
1020.365385,-0.049299,0.001000,0.001000,0.001000,0.001000,0.001000
1020.384615,-0.049513,0.001000,0.001000,0.001000,0.001000,0.001000
1020.403846,-0.049689,0.001000,0.001000,0.001000,0.001000,0.001000
1020.423077,-0.049825,0.001000,0.001000,0.001000,0.001000,0.001000
1020.442308,-0.049923,0.001000,0.001000,0.001000,0.001000,0.001000
1020.461538,-0.049981,0.001000,0.001000,0.001000,0.001000,0.001000
1020.480769,-0.050000,0.001000,0.001000,0.001000,0.001000,0.001000
1020.500000,-0.049980,0.001000,0.001000,0.001000,0.001000,0.001000
1020.519231,-0.049920,0.001000,0.001000,0.001000,0.001000,0.001000
1020.538462,-0.049821,0.001000,0.001000,0.001000,0.001000,0.001000
1020.557692,-0.049684,0.001000,0.001000,0.001000,0.001000,0.001000
1020.576923,-0.049507,0.001000,0.001000,0.001000,0.001000,0.001000
1020.596154,-0.049291,0.001000,0.001000,0.001000,0.001000,0.001000
1020.615385,-0.049037,0.001000,0.001000,0.001000,0.001000,0.001000
1020.634615,-0.048744,0.001000,0.001000,0.001000,0.001000,0.001000
1020.653846,-0.048412,0.001000,0.001000,0.001000,0.001000,0.001000
1020.673077,-0.048043,0.001000,0.001000,0.001000,0.001000,0.001000
1020.692308,-0.047636,0.001000,0.001000,0.001000,0.001000,0.001000
1020.711538,-0.047192,0.001000,0.001000,0.001000,0.001000,0.001000
1020.730769,-0.046710,0.001000,0.001000,0.001000,0.001000,0.001000
1020.750000,-0.046192,0.001000,0.001000,0.001000,0.001000,0.001000
1020.769231,-0.045638,0.001000,0.001000,0.001000,0.001000,0.001000
1020.788462,-0.045048,0.001000,0.001000,0.001000,0.001000,0.001000
1020.807692,-0.044422,0.001000,0.001000,0.001000,0.001000,0.001000
1020.826923,-0.043761,0.001000,0.001000,0.001000,0.001000,0.001000
1020.846154,-0.043067,0.001000,0.001000,0.001000,0.001000,0.001000
1020.865385,-0.042338,0.001000,0.001000,0.001000,0.001000,0.001000
1020.884615,-0.041576,0.001000,0.001000,0.001000,0.001000,0.001000
1020.903846,-0.040781,0.001000,0.001000,0.001000,0.001000,0.001000
1020.923077,-0.039955,0.001000,0.001000,0.001000,0.001000,0.001000
1020.942308,-0.039097,0.001000,0.001000,0.001000,0.001000,0.001000
1020.961538,-0.038208,0.001000,0.001000,0.001000,0.001000,0.001000
1020.980769,-0.037289,0.001000,0.001000,0.001000,0.001000,0.001000
1021.000000,-0.036341,0.001000,0.001000,0.001000,0.001000,0.001000
1021.019231,-0.035365,0.001000,0.001000,0.001000,0.001000,0.001000
1021.038462,-0.034361,0.001000,0.001000,0.001000,0.001000,0.001000
1021.057692,-0.033329,0.001000,0.001000,0.001000,0.001000,0.001000
1021.076923,-0.032272,0.001000,0.001000,0.001000,0.001000,0.001000
1021.096154,-0.031189,0.001000,0.001000,0.001000,0.001000,0.001000
1021.115385,-0.030082,0.001000,0.001000,0.001000,0.001000,0.001000
1021.134615,-0.028951,0.001000,0.001000,0.001000,0.001000,0.001000
1021.153846,-0.027797,0.001000,0.001000,0.001000,0.001000,0.001000
1021.173077,-0.026622,0.001000,0.001000,0.001000,0.001000,0.001000
1021.192308,-0.025425,0.001000,0.001000,0.001000,0.001000,0.001000
1021.211538,-0.024209,0.001000,0.001000,0.001000,0.001000,0.001000
1021.230769,-0.022974,0.001000,0.001000,0.001000,0.001000,0.001000
1021.250000,-0.021720,0.001000,0.001000,0.001000,0.001000,0.001000
1021.269231,-0.020450,0.001000,0.001000,0.001000,0.001000,0.001000
1021.288462,-0.019163,0.001000,0.001000,0.001000,0.001000,0.001000
1021.307692,-0.017862,0.001000,0.001000,0.001000,0.001000,0.001000
1021.326923,-0.016546,0.001000,0.001000,0.001000,0.001000,0.001000
1021.346154,-0.015218,0.001000,0.001000,0.001000,0.001000,0.001000
1021.365385,-0.013877,0.001000,0.001000,0.001000,0.001000,0.001000
1021.384615,-0.012526,0.001000,0.001000,0.001000,0.001000,0.001000
1021.403846,-0.011164,0.001000,0.001000,0.001000,0.001000,0.001000
1021.423077,-0.009794,0.001000,0.001000,0.001000,0.001000,0.001000
1021.442308,-0.008417,0.001000,0.001000,0.001000,0.001000,0.001000
1021.461538,-0.007032,0.001000,0.001000,0.001000,0.001000,0.001000
1021.480769,-0.005642,0.001000,0.001000,0.001000,0.001000,0.001000
1021.500000,-0.004248,0.001000,0.001000,0.001000,0.001000,0.001000
1021.519231,-0.002851,0.001000,0.001000,0.001000,0.001000,0.001000
1021.538462,-0.001451,0.001000,0.001000,0.001000,0.001000,0.001000
1021.557692,-0.000050,0.001000,0.001000,0.001000,0.001000,0.001000
1021.576923,0.001351,0.001000,0.001000,0.001000,0.001000,0.001000
1021.596154,0.002751,0.001000,0.001000,0.001000,0.001000,0.001000
1021.615385,0.004149,0.001000,0.001000,0.001000,0.001000,0.001000
1021.634615,0.005544,0.001000,0.001000,0.001000,0.001000,0.001000
1021.653846,0.006934,0.001000,0.001000,0.001000,0.001000,0.001000
1021.673077,0.008319,0.001000,0.001000,0.001000,0.001000,0.001000
1021.692308,0.009697,0.001000,0.001000,0.001000,0.001000,0.001000
1021.711538,0.011067,0.001000,0.001000,0.001000,0.001000,0.001000
1021.730769,0.012429,0.001000,0.001000,0.001000,0.001000,0.001000
1021.750000,0.013782,0.001000,0.001000,0.001000,0.001000,0.001000
1021.769231,0.015123,0.001000,0.001000,0.001000,0.001000,0.001000
1021.788462,0.016452,0.001000,0.001000,0.001000,0.001000,0.001000
1021.807692,0.017769,0.001000,0.001000,0.001000,0.001000,0.001000
1021.826923,0.019071,0.001000,0.001000,0.001000,0.001000,0.001000
1021.846154,0.020359,0.001000,0.001000,0.001000,0.001000,0.001000
1021.865385,0.021631,0.001000,0.001000,0.001000,0.001000,0.001000
1021.884615,0.022885,0.001000,0.001000,0.001000,0.001000,0.001000
1021.903846,0.024122,0.001000,0.001000,0.001000,0.001000,0.001000
1021.923077,0.025340,0.001000,0.001000,0.001000,0.001000,0.001000
1021.942308,0.026538,0.001000,0.001000,0.001000,0.001000,0.001000
1021.961538,0.027715,0.001000,0.001000,0.001000,0.001000,0.001000
1021.980769,0.028870,0.001000,0.001000,0.001000,0.001000,0.001000
1022.000000,0.030002,0.001000,0.001000,0.001000,0.001000,0.001000
1022.019231,0.031111,0.001000,0.001000,0.001000,0.001000,0.001000
1022.038462,0.032196,0.001000,0.001000,0.001000,0.001000,0.001000
1022.057692,0.033255,0.001000,0.001000,0.001000,0.001000,0.001000
1022.076923,0.034288,0.001000,0.001000,0.001000,0.001000,0.001000
1022.096154,0.035294,0.001000,0.001000,0.001000,0.001000,0.001000
1022.115385,0.036273,0.001000,0.001000,0.001000,0.001000,0.001000
1022.134615,0.037223,0.001000,0.001000,0.001000,0.001000,0.001000
1022.153846,0.038144,0.001000,0.001000,0.001000,0.001000,0.001000
1022.173077,0.039035,0.001000,0.001000,0.001000,0.001000,0.001000
1022.192308,0.039895,0.001000,0.001000,0.001000,0.001000,0.001000
1022.211538,0.040724,0.001000,0.001000,0.001000,0.001000,0.001000
1022.230769,0.041521,0.001000,0.001000,0.001000,0.001000,0.001000
1022.250000,0.042285,0.001000,0.001000,0.001000,0.001000,0.001000
1022.269231,0.043016,0.001000,0.001000,0.001000,0.001000,0.001000
1022.288462,0.043713,0.001000,0.001000,0.001000,0.001000,0.001000
1022.307692,0.044376,0.001000,0.001000,0.001000,0.001000,0.001000
1022.326923,0.045004,0.001000,0.001000,0.001000,0.001000,0.001000
1022.346154,0.045597,0.001000,0.001000,0.001000,0.001000,0.001000
1022.365385,0.046154,0.001000,0.001000,0.001000,0.001000,0.001000
1022.384615,0.046675,0.001000,0.001000,0.001000,0.001000,0.001000
1022.403846,0.047159,0.001000,0.001000,0.001000,0.001000,0.001000
1022.423077,0.047606,0.001000,0.001000,0.001000,0.001000,0.001000
1022.442308,0.048015,0.001000,0.001000,0.001000,0.001000,0.001000
1022.461538,0.048387,0.001000,0.001000,0.001000,0.001000,0.001000
1022.480769,0.048721,0.001000,0.001000,0.001000,0.001000,0.001000
1022.500000,0.049017,0.001000,0.001000,0.001000,0.001000,0.001000
1022.519231,0.049274,0.001000,0.001000,0.001000,0.001000,0.001000
1022.538462,0.049493,0.001000,0.001000,0.001000,0.001000,0.001000
1022.557692,0.049672,0.001000,0.001000,0.001000,0.001000,0.001000
1022.576923,0.049813,0.001000,0.001000,0.001000,0.001000,0.001000
1022.596154,0.049914,0.001000,0.001000,0.001000,0.001000,0.001000
1022.615385,0.049977,0.001000,0.001000,0.001000,0.001000,0.001000
1022.634615,0.050000,0.001000,0.001000,0.001000,0.001000,0.001000
1022.653846,0.049984,0.001000,0.001000,0.001000,0.001000,0.001000
1022.673077,0.049928,0.001000,0.001000,0.001000,0.001000,0.001000
1022.692308,0.049834,0.001000,0.001000,0.001000,0.001000,0.001000
1022.711538,0.049700,0.001000,0.001000,0.001000,0.001000,0.001000
1022.730769,0.049527,0.001000,0.001000,0.001000,0.001000,0.001000
1022.750000,0.049315,0.001000,0.001000,0.001000,0.001000,0.001000
1022.769231,0.049065,0.001000,0.001000,0.001000,0.001000,0.001000
1022.788462,0.048776,0.001000,0.001000,0.001000,0.001000,0.001000
1022.807692,0.048448,0.001000,0.001000,0.001000,0.001000,0.001000
1022.826923,0.048083,0.001000,0.001000,0.001000,0.001000,0.001000
1022.846154,0.047680,0.001000,0.001000,0.001000,0.001000,0.001000
1022.865385,0.047240,0.001000,0.001000,0.001000,0.001000,0.001000
1022.884615,0.046762,0.001000,0.001000,0.001000,0.001000,0.001000
1022.903846,0.046248,0.001000,0.001000,0.001000,0.001000,0.001000
1022.923077,0.045697,0.001000,0.001000,0.001000,0.001000,0.001000
1022.942308,0.045110,0.001000,0.001000,0.001000,0.001000,0.001000
1022.961538,0.044488,0.001000,0.001000,0.001000,0.001000,0.001000
1022.980769,0.043831,0.001000,0.001000,0.001000,0.001000,0.001000
1023.000000,0.043140,0.001000,0.001000,0.001000,0.001000,0.001000
1023.019231,0.042415,0.001000,0.001000,0.001000,0.001000,0.001000
1023.038462,0.041656,0.001000,0.001000,0.001000,0.001000,0.001000
1023.057692,0.040865,0.001000,0.001000,0.001000,0.001000,0.001000
1023.076923,0.040042,0.001000,0.001000,0.001000,0.001000,0.001000
1023.096154,0.039187,0.001000,0.001000,0.001000,0.001000,0.001000
1023.115385,0.038301,0.001000,0.001000,0.001000,0.001000,0.001000
1023.134615,0.037386,0.001000,0.001000,0.001000,0.001000,0.001000
1023.153846,0.036441,0.001000,0.001000,0.001000,0.001000,0.001000
1023.173077,0.035467,0.001000,0.001000,0.001000,0.001000,0.001000
1023.192308,0.034466,0.001000,0.001000,0.001000,0.001000,0.001000
1023.211538,0.033437,0.001000,0.001000,0.001000,0.001000,0.001000
1023.230769,0.032383,0.001000,0.001000,0.001000,0.001000,0.001000
1023.250000,0.031302,0.001000,0.001000,0.001000,0.001000,0.001000
1023.269231,0.030198,0.001000,0.001000,0.001000,0.001000,0.001000
1023.288462,0.029069,0.001000,0.001000,0.001000,0.001000,0.001000
1023.307692,0.027918,0.001000,0.001000,0.001000,0.001000,0.001000
1023.326923,0.026744,0.001000,0.001000,0.001000,0.001000,0.001000
1023.346154,0.025550,0.001000,0.001000,0.001000,0.001000,0.001000
1023.365385,0.024336,0.001000,0.001000,0.001000,0.001000,0.001000
1023.384615,0.023102,0.001000,0.001000,0.001000,0.001000,0.001000
1023.403846,0.021851,0.001000,0.001000,0.001000,0.001000,0.001000
1023.423077,0.020582,0.001000,0.001000,0.001000,0.001000,0.001000
1023.442308,0.019297,0.001000,0.001000,0.001000,0.001000,0.001000
1023.461538,0.017997,0.001000,0.001000,0.001000,0.001000,0.001000
1023.480769,0.016683,0.001000,0.001000,0.001000,0.001000,0.001000
1023.500000,0.015356,0.001000,0.001000,0.001000,0.001000,0.001000
1023.519231,0.014016,0.001000,0.001000,0.001000,0.001000,0.001000
1023.538462,0.012666,0.001000,0.001000,0.001000,0.001000,0.001000
1023.557692,0.011306,0.001000,0.001000,0.001000,0.001000,0.001000
1023.576923,0.009937,0.001000,0.001000,0.001000,0.001000,0.001000
1023.596154,0.008560,0.001000,0.001000,0.001000,0.001000,0.001000
1023.615385,0.007176,0.001000,0.001000,0.001000,0.001000,0.001000
1023.634615,0.005787,0.001000,0.001000,0.001000,0.001000,0.001000
1023.653846,0.004393,0.001000,0.001000,0.001000,0.001000,0.001000
1023.673077,0.002995,0.001000,0.001000,0.001000,0.001000,0.001000
1023.692308,0.001596,0.001000,0.001000,0.001000,0.001000,0.001000
1023.711538,0.000195,0.001000,0.001000,0.001000,0.001000,0.001000
1023.730769,-0.001206,0.001000,0.001000,0.001000,0.001000,0.001000
1023.750000,-0.002606,0.001000,0.001000,0.001000,0.001000,0.001000
1023.769231,-0.004005,0.001000,0.001000,0.001000,0.001000,0.001000
1023.788462,-0.005399,0.001000,0.001000,0.001000,0.001000,0.001000
1023.807692,-0.006790,0.001000,0.001000,0.001000,0.001000,0.001000
1023.826923,-0.008176,0.001000,0.001000,0.001000,0.001000,0.001000
1023.846154,-0.009554,0.001000,0.001000,0.001000,0.001000,0.001000
1023.865385,-0.010926,0.001000,0.001000,0.001000,0.001000,0.001000
1023.884615,-0.012289,0.001000,0.001000,0.001000,0.001000,0.001000
1023.903846,-0.013642,0.001000,0.001000,0.001000,0.001000,0.001000
1023.923077,-0.014985,0.001000,0.001000,0.001000,0.001000,0.001000
1023.942308,-0.016315,0.001000,0.001000,0.001000,0.001000,0.001000
1023.961538,-0.017633,0.001000,0.001000,0.001000,0.001000,0.001000
1023.980769,-0.018937,0.001000,0.001000,0.001000,0.001000,0.001000
1024.000000,-0.020226,0.001000,0.001000,0.001000,0.001000,0.001000
1024.019231,-0.021500,0.001000,0.001000,0.001000,0.001000,0.001000
1024.038462,-0.022756,0.001000,0.001000,0.001000,0.001000,0.001000
1024.057692,-0.023995,0.001000,0.001000,0.001000,0.001000,0.001000
1024.076923,-0.025215,0.001000,0.001000,0.001000,0.001000,0.001000
1024.096154,-0.026414,0.001000,0.001000,0.001000,0.001000,0.001000
1024.115385,-0.027594,0.001000,0.001000,0.001000,0.001000,0.001000
1024.134615,-0.028751,0.001000,0.001000,0.001000,0.001000,0.001000
1024.153846,-0.029886,0.001000,0.001000,0.001000,0.001000,0.001000
1024.173077,-0.030998,0.001000,0.001000,0.001000,0.001000,0.001000
1024.192308,-0.032085,0.001000,0.001000,0.001000,0.001000,0.001000
1024.211538,-0.033147,0.001000,0.001000,0.001000,0.001000,0.001000
1024.230769,-0.034183,0.001000,0.001000,0.001000,0.001000,0.001000
1024.250000,-0.035192,0.001000,0.001000,0.001000,0.001000,0.001000
1024.269231,-0.036173,0.001000,0.001000,0.001000,0.001000,0.001000
1024.288462,-0.037126,0.001000,0.001000,0.001000,0.001000,0.001000
1024.307692,-0.038050,0.001000,0.001000,0.001000,0.001000,0.001000
1024.326923,-0.038944,0.001000,0.001000,0.001000,0.001000,0.001000
1024.346154,-0.039807,0.001000,0.001000,0.001000,0.001000,0.001000
1024.365385,-0.040639,0.001000,0.001000,0.001000,0.001000,0.001000
1024.384615,-0.041440,0.001000,0.001000,0.001000,0.001000,0.001000
1024.403846,-0.042207,0.001000,0.001000,0.001000,0.001000,0.001000
1024.423077,-0.042942,0.001000,0.001000,0.001000,0.001000,0.001000
1024.442308,-0.043643,0.001000,0.001000,0.001000,0.001000,0.001000
1024.461538,-0.044309,0.001000,0.001000,0.001000,0.001000,0.001000
1024.480769,-0.044941,0.001000,0.001000,0.001000,0.001000,0.001000
1024.500000,-0.045537,0.001000,0.001000,0.001000,0.001000,0.001000
1024.519231,-0.046098,0.001000,0.001000,0.001000,0.001000,0.001000
1024.538462,-0.046623,0.001000,0.001000,0.001000,0.001000,0.001000
1024.557692,-0.047110,0.001000,0.001000,0.001000,0.001000,0.001000
1024.576923,-0.047561,0.001000,0.001000,0.001000,0.001000,0.001000
1024.596154,-0.047975,0.001000,0.001000,0.001000,0.001000,0.001000
1024.615385,-0.048351,0.001000,0.001000,0.001000,0.001000,0.001000
1024.634615,-0.048689,0.001000,0.001000,0.001000,0.001000,0.001000
1024.653846,-0.048988,0.001000,0.001000,0.001000,0.001000,0.001000
1024.673077,-0.049249,0.001000,0.001000,0.001000,0.001000,0.001000
1024.692308,-0.049472,0.001000,0.001000,0.001000,0.001000,0.001000
1024.711538,-0.049656,0.001000,0.001000,0.001000,0.001000,0.001000
1024.730769,-0.049800,0.001000,0.001000,0.001000,0.001000,0.001000
1024.750000,-0.049906,0.001000,0.001000,0.001000,0.001000,0.001000
1024.769231,-0.049972,0.001000,0.001000,0.001000,0.001000,0.001000
1024.788462,-0.049999,0.001000,0.001000,0.001000,0.001000,0.001000
1024.807692,-0.049987,0.001000,0.001000,0.001000,0.001000,0.001000
1024.826923,-0.049936,0.001000,0.001000,0.001000,0.001000,0.001000
1024.846154,-0.049845,0.001000,0.001000,0.001000,0.001000,0.001000
1024.865385,-0.049715,0.001000,0.001000,0.001000,0.001000,0.001000
1024.884615,-0.049547,0.001000,0.001000,0.001000,0.001000,0.001000
1024.903846,-0.049339,0.001000,0.001000,0.001000,0.001000,0.001000
1024.923077,-0.049092,0.001000,0.001000,0.001000,0.001000,0.001000
1024.942308,-0.048807,0.001000,0.001000,0.001000,0.001000,0.001000
1024.961538,-0.048484,0.001000,0.001000,0.001000,0.001000,0.001000
1024.980769,-0.048123,0.001000,0.001000,0.001000,0.001000,0.001000
1025.000000,-0.047724,0.001000,0.001000,0.001000,0.001000,0.001000
1025.019231,-0.047287,0.001000,0.001000,0.001000,0.001000,0.001000
1025.038462,-0.046813,0.001000,0.001000,0.001000,0.001000,0.001000
1025.057692,-0.046302,0.001000,0.001000,0.001000,0.001000,0.001000
1025.076923,-0.045756,0.001000,0.001000,0.001000,0.001000,0.001000
1025.096154,-0.045173,0.001000,0.001000,0.001000,0.001000,0.001000
1025.115385,-0.044554,0.001000,0.001000,0.001000,0.001000,0.001000
1025.134615,-0.043901,0.001000,0.001000,0.001000,0.001000,0.001000
1025.153846,-0.043213,0.001000,0.001000,0.001000,0.001000,0.001000
1025.173077,-0.042492,0.001000,0.001000,0.001000,0.001000,0.001000
1025.192308,-0.041736,0.001000,0.001000,0.001000,0.001000,0.001000
1025.211538,-0.040949,0.001000,0.001000,0.001000,0.001000,0.001000
1025.230769,-0.040128,0.001000,0.001000,0.001000,0.001000,0.001000
1025.250000,-0.039277,0.001000,0.001000,0.001000,0.001000,0.001000
1025.269231,-0.038395,0.001000,0.001000,0.001000,0.001000,0.001000
1025.288462,-0.037482,0.001000,0.001000,0.001000,0.001000,0.001000
1025.307692,-0.036540,0.001000,0.001000,0.001000,0.001000,0.001000
1025.326923,-0.035569,0.001000,0.001000,0.001000,0.001000,0.001000
1025.346154,-0.034571,0.001000,0.001000,0.001000,0.001000,0.001000
1025.365385,-0.033545,0.001000,0.001000,0.001000,0.001000,0.001000
1025.384615,-0.032493,0.001000,0.001000,0.001000,0.001000,0.001000
1025.403846,-0.031415,0.001000,0.001000,0.001000,0.001000,0.001000
1025.423077,-0.030313,0.001000,0.001000,0.001000,0.001000,0.001000
1025.442308,-0.029187,0.001000,0.001000,0.001000,0.001000,0.001000
1025.461538,-0.028038,0.001000,0.001000,0.001000,0.001000,0.001000
1025.480769,-0.026867,0.001000,0.001000,0.001000,0.001000,0.001000
1025.500000,-0.025675,0.001000,0.001000,0.001000,0.001000,0.001000
1025.519231,-0.024463,0.001000,0.001000,0.001000,0.001000,0.001000
1025.538462,-0.023231,0.001000,0.001000,0.001000,0.001000,0.001000
1025.557692,-0.021981,0.001000,0.001000,0.001000,0.001000,0.001000
1025.576923,-0.020714,0.001000,0.001000,0.001000,0.001000,0.001000
1025.596154,-0.019431,0.001000,0.001000,0.001000,0.001000,0.001000
1025.615385,-0.018133,0.001000,0.001000,0.001000,0.001000,0.001000
1025.634615,-0.016820,0.001000,0.001000,0.001000,0.001000,0.001000
1025.653846,-0.015494,0.001000,0.001000,0.001000,0.001000,0.001000
1025.673077,-0.014156,0.001000,0.001000,0.001000,0.001000,0.001000
1025.692308,-0.012806,0.001000,0.001000,0.001000,0.001000,0.001000
1025.711538,-0.011447,0.001000,0.001000,0.001000,0.001000,0.001000
1025.730769,-0.010079,0.001000,0.001000,0.001000,0.001000,0.001000
1025.750000,-0.008703,0.001000,0.001000,0.001000,0.001000,0.001000
1025.769231,-0.007320,0.001000,0.001000,0.001000,0.001000,0.001000
1025.788462,-0.005931,0.001000,0.001000,0.001000,0.001000,0.001000
1025.807692,-0.004537,0.001000,0.001000,0.001000,0.001000,0.001000
1025.826923,-0.003140,0.001000,0.001000,0.001000,0.001000,0.001000
1025.846154,-0.001741,0.001000,0.001000,0.001000,0.001000,0.001000
1025.865385,-0.000340,0.001000,0.001000,0.001000,0.001000,0.001000
1025.884615,0.001061,0.001000,0.001000,0.001000,0.001000,0.001000
1025.903846,0.002462,0.001000,0.001000,0.001000,0.001000,0.001000
1025.923077,0.003860,0.001000,0.001000,0.001000,0.001000,0.001000
1025.942308,0.005255,0.001000,0.001000,0.001000,0.001000,0.001000
1025.961538,0.006646,0.001000,0.001000,0.001000,0.001000,0.001000
1025.980769,0.008032,0.001000,0.001000,0.001000,0.001000,0.001000
1026.000000,0.009412,0.001000,0.001000,0.001000,0.001000,0.001000
1026.019231,0.010784,0.001000,0.001000,0.001000,0.001000,0.001000
1026.038462,0.012148,0.001000,0.001000,0.001000,0.001000,0.001000
1026.057692,0.013502,0.001000,0.001000,0.001000,0.001000,0.001000
1026.076923,0.014846,0.001000,0.001000,0.001000,0.001000,0.001000
1026.096154,0.016178,0.001000,0.001000,0.001000,0.001000,0.001000
1026.115385,0.017497,0.001000,0.001000,0.001000,0.001000,0.001000
1026.134615,0.018803,0.001000,0.001000,0.001000,0.001000,0.001000
1026.153846,0.020094,0.001000,0.001000,0.001000,0.001000,0.001000
1026.173077,0.021369,0.001000,0.001000,0.001000,0.001000,0.001000
1026.192308,0.022627,0.001000,0.001000,0.001000,0.001000,0.001000
1026.211538,0.023867,0.001000,0.001000,0.001000,0.001000,0.001000
1026.230769,0.025089,0.001000,0.001000,0.001000,0.001000,0.001000
1026.250000,0.026291,0.001000,0.001000,0.001000,0.001000,0.001000
1026.269231,0.027473,0.001000,0.001000,0.001000,0.001000,0.001000
1026.288462,0.028632,0.001000,0.001000,0.001000,0.001000,0.001000
1026.307692,0.029770,0.001000,0.001000,0.001000,0.001000,0.001000
1026.326923,0.030884,0.001000,0.001000,0.001000,0.001000,0.001000
1026.346154,0.031973,0.001000,0.001000,0.001000,0.001000,0.001000
1026.365385,0.033038,0.001000,0.001000,0.001000,0.001000,0.001000
1026.384615,0.034076,0.001000,0.001000,0.001000,0.001000,0.001000
1026.403846,0.035088,0.001000,0.001000,0.001000,0.001000,0.001000
1026.423077,0.036073,0.001000,0.001000,0.001000,0.001000,0.001000
1026.442308,0.037029,0.001000,0.001000,0.001000,0.001000,0.001000
1026.461538,0.037956,0.001000,0.001000,0.001000,0.001000,0.001000
1026.480769,0.038853,0.001000,0.001000,0.001000,0.001000,0.001000
1026.500000,0.039719,0.001000,0.001000,0.001000,0.001000,0.001000
1026.519231,0.040555,0.001000,0.001000,0.001000,0.001000,0.001000
1026.538462,0.041358,0.001000,0.001000,0.001000,0.001000,0.001000
1026.557692,0.042129,0.001000,0.001000,0.001000,0.001000,0.001000
1026.576923,0.042867,0.001000,0.001000,0.001000,0.001000,0.001000
1026.596154,0.043572,0.001000,0.001000,0.001000,0.001000,0.001000
1026.615385,0.044242,0.001000,0.001000,0.001000,0.001000,0.001000
1026.634615,0.044877,0.001000,0.001000,0.001000,0.001000,0.001000
1026.653846,0.045477,0.001000,0.001000,0.001000,0.001000,0.001000
1026.673077,0.046042,0.001000,0.001000,0.001000,0.001000,0.001000
1026.692308,0.046570,0.001000,0.001000,0.001000,0.001000,0.001000
1026.711538,0.047062,0.001000,0.001000,0.001000,0.001000,0.001000
1026.730769,0.047516,0.001000,0.001000,0.001000,0.001000,0.001000
1026.750000,0.047934,0.001000,0.001000,0.001000,0.001000,0.001000
1026.769231,0.048314,0.001000,0.001000,0.001000,0.001000,0.001000
1026.788462,0.048655,0.001000,0.001000,0.001000,0.001000,0.001000
1026.807692,0.048959,0.001000,0.001000,0.001000,0.001000,0.001000
1026.826923,0.049224,0.001000,0.001000,0.001000,0.001000,0.001000
1026.846154,0.049451,0.001000,0.001000,0.001000,0.001000,0.001000
1026.865385,0.049638,0.001000,0.001000,0.001000,0.001000,0.001000
1026.884615,0.049787,0.001000,0.001000,0.001000,0.001000,0.001000
1026.903846,0.049897,0.001000,0.001000,0.001000,0.001000,0.001000
1026.923077,0.049967,0.001000,0.001000,0.001000,0.001000,0.001000
1026.942308,0.049998,0.001000,0.001000,0.001000,0.001000,0.001000
1026.961538,0.049990,0.001000,0.001000,0.001000,0.001000,0.001000
1026.980769,0.049943,0.001000,0.001000,0.001000,0.001000,0.001000
1027.000000,0.049856,0.001000,0.001000,0.001000,0.001000,0.001000
1027.019231,0.049731,0.001000,0.001000,0.001000,0.001000,0.001000
1027.038462,0.049566,0.001000,0.001000,0.001000,0.001000,0.001000
1027.057692,0.049362,0.001000,0.001000,0.001000,0.001000,0.001000
1027.076923,0.049120,0.001000,0.001000,0.001000,0.001000,0.001000
1027.096154,0.048839,0.001000,0.001000,0.001000,0.001000,0.001000
1027.115385,0.048519,0.001000,0.001000,0.001000,0.001000,0.001000
1027.134615,0.048162,0.001000,0.001000,0.001000,0.001000,0.001000
1027.153846,0.047767,0.001000,0.001000,0.001000,0.001000,0.001000
1027.173077,0.047334,0.001000,0.001000,0.001000,0.001000,0.001000
1027.192308,0.046864,0.001000,0.001000,0.001000,0.001000,0.001000
1027.211538,0.046357,0.001000,0.001000,0.001000,0.001000,0.001000
1027.230769,0.045814,0.001000,0.001000,0.001000,0.001000,0.001000
1027.250000,0.045235,0.001000,0.001000,0.001000,0.001000,0.001000
1027.269231,0.044620,0.001000,0.001000,0.001000,0.001000,0.001000
1027.288462,0.043970,0.001000,0.001000,0.001000,0.001000,0.001000
1027.307692,0.043286,0.001000,0.001000,0.001000,0.001000,0.001000
1027.326923,0.042568,0.001000,0.001000,0.001000,0.001000,0.001000
1027.346154,0.041816,0.001000,0.001000,0.001000,0.001000,0.001000
1027.365385,0.041032,0.001000,0.001000,0.001000,0.001000,0.001000
1027.384615,0.040215,0.001000,0.001000,0.001000,0.001000,0.001000
1027.403846,0.039367,0.001000,0.001000,0.001000,0.001000,0.001000
1027.423077,0.038487,0.001000,0.001000,0.001000,0.001000,0.001000
1027.442308,0.037578,0.001000,0.001000,0.001000,0.001000,0.001000
1027.461538,0.036639,0.001000,0.001000,0.001000,0.001000,0.001000
1027.480769,0.035671,0.001000,0.001000,0.001000,0.001000,0.001000
1027.500000,0.034675,0.001000,0.001000,0.001000,0.001000,0.001000
1027.519231,0.033652,0.001000,0.001000,0.001000,0.001000,0.001000
1027.538462,0.032603,0.001000,0.001000,0.001000,0.001000,0.001000
1027.557692,0.031528,0.001000,0.001000,0.001000,0.001000,0.001000
1027.576923,0.030428,0.001000,0.001000,0.001000,0.001000,0.001000
1027.596154,0.029305,0.001000,0.001000,0.001000,0.001000,0.001000
1027.615385,0.028158,0.001000,0.001000,0.001000,0.001000,0.001000
1027.634615,0.026989,0.001000,0.001000,0.001000,0.001000,0.001000
1027.653846,0.025799,0.001000,0.001000,0.001000,0.001000,0.001000
1027.673077,0.024589,0.001000,0.001000,0.001000,0.001000,0.001000
1027.692308,0.023359,0.001000,0.001000,0.001000,0.001000,0.001000
1027.711538,0.022112,0.001000,0.001000,0.001000,0.001000,0.001000
1027.730769,0.020846,0.001000,0.001000,0.001000,0.001000,0.001000
1027.750000,0.019565,0.001000,0.001000,0.001000,0.001000,0.001000
1027.769231,0.018268,0.001000,0.001000,0.001000,0.001000,0.001000
1027.788462,0.016956,0.001000,0.001000,0.001000,0.001000,0.001000
1027.807692,0.015632,0.001000,0.001000,0.001000,0.001000,0.001000
1027.826923,0.014295,0.001000,0.001000,0.001000,0.001000,0.001000
1027.846154,0.012947,0.001000,0.001000,0.001000,0.001000,0.001000
1027.865385,0.011588,0.001000,0.001000,0.001000,0.001000,0.001000
1027.884615,0.010221,0.001000,0.001000,0.001000,0.001000,0.001000
1027.903846,0.008845,0.001000,0.001000,0.001000,0.001000,0.001000
1027.923077,0.007463,0.001000,0.001000,0.001000,0.001000,0.001000
1027.942308,0.006075,0.001000,0.001000,0.001000,0.001000,0.001000
1027.961538,0.004682,0.001000,0.001000,0.001000,0.001000,0.001000
1027.980769,0.003285,0.001000,0.001000,0.001000,0.001000,0.001000
1028.000000,0.001886,0.001000,0.001000,0.001000,0.001000,0.001000
1028.019231,0.000485,0.001000,0.001000,0.001000,0.001000,0.001000
1028.038462,-0.000916,0.001000,0.001000,0.001000,0.001000,0.001000
1028.057692,-0.002317,0.001000,0.001000,0.001000,0.001000,0.001000
1028.076923,-0.003715,0.001000,0.001000,0.001000,0.001000,0.001000
1028.096154,-0.005111,0.001000,0.001000,0.001000,0.001000,0.001000
1028.115385,-0.006503,0.001000,0.001000,0.001000,0.001000,0.001000
1028.134615,-0.007889,0.001000,0.001000,0.001000,0.001000,0.001000
1028.153846,-0.009269,0.001000,0.001000,0.001000,0.001000,0.001000
1028.173077,-0.010643,0.001000,0.001000,0.001000,0.001000,0.001000
1028.192308,-0.012007,0.001000,0.001000,0.001000,0.001000,0.001000
1028.211538,-0.013363,0.001000,0.001000,0.001000,0.001000,0.001000
1028.230769,-0.014707,0.001000,0.001000,0.001000,0.001000,0.001000
1028.250000,-0.016041,0.001000,0.001000,0.001000,0.001000,0.001000
1028.269231,-0.017361,0.001000,0.001000,0.001000,0.001000,0.001000
1028.288462,-0.018668,0.001000,0.001000,0.001000,0.001000,0.001000
1028.307692,-0.019961,0.001000,0.001000,0.001000,0.001000,0.001000
1028.326923,-0.021237,0.001000,0.001000,0.001000,0.001000,0.001000
1028.346154,-0.022497,0.001000,0.001000,0.001000,0.001000,0.001000
1028.365385,-0.023740,0.001000,0.001000,0.001000,0.001000,0.001000
1028.384615,-0.024964,0.001000,0.001000,0.001000,0.001000,0.001000
1028.403846,-0.026168,0.001000,0.001000,0.001000,0.001000,0.001000
1028.423077,-0.027351,0.001000,0.001000,0.001000,0.001000,0.001000
1028.442308,-0.028513,0.001000,0.001000,0.001000,0.001000,0.001000
1028.461538,-0.029653,0.001000,0.001000,0.001000,0.001000,0.001000
1028.480769,-0.030769,0.001000,0.001000,0.001000,0.001000,0.001000
1028.500000,-0.031862,0.001000,0.001000,0.001000,0.001000,0.001000
1028.519231,-0.032929,0.001000,0.001000,0.001000,0.001000,0.001000
1028.538462,-0.033970,0.001000,0.001000,0.001000,0.001000,0.001000
1028.557692,-0.034985,0.001000,0.001000,0.001000,0.001000,0.001000
1028.576923,-0.035972,0.001000,0.001000,0.001000,0.001000,0.001000
1028.596154,-0.036931,0.001000,0.001000,0.001000,0.001000,0.001000
1028.615385,-0.037861,0.001000,0.001000,0.001000,0.001000,0.001000
1028.634615,-0.038761,0.001000,0.001000,0.001000,0.001000,0.001000
1028.653846,-0.039631,0.001000,0.001000,0.001000,0.001000,0.001000
1028.673077,-0.040470,0.001000,0.001000,0.001000,0.001000,0.001000
1028.692308,-0.041277,0.001000,0.001000,0.001000,0.001000,0.001000
1028.711538,-0.042051,0.001000,0.001000,0.001000,0.001000,0.001000
1028.730769,-0.042792,0.001000,0.001000,0.001000,0.001000,0.001000
1028.750000,-0.043500,0.001000,0.001000,0.001000,0.001000,0.001000
1028.769231,-0.044174,0.001000,0.001000,0.001000,0.001000,0.001000
1028.788462,-0.044813,0.001000,0.001000,0.001000,0.001000,0.001000
1028.807692,-0.045417,0.001000,0.001000,0.001000,0.001000,0.001000
1028.826923,-0.045985,0.001000,0.001000,0.001000,0.001000,0.001000
1028.846154,-0.046517,0.001000,0.001000,0.001000,0.001000,0.001000
1028.865385,-0.047012,0.001000,0.001000,0.001000,0.001000,0.001000
1028.884615,-0.047471,0.001000,0.001000,0.001000,0.001000,0.001000
1028.903846,-0.047892,0.001000,0.001000,0.001000,0.001000,0.001000
1028.923077,-0.048276,0.001000,0.001000,0.001000,0.001000,0.001000
1028.942308,-0.048622,0.001000,0.001000,0.001000,0.001000,0.001000
1028.961538,-0.048929,0.001000,0.001000,0.001000,0.001000,0.001000
1028.980769,-0.049198,0.001000,0.001000,0.001000,0.001000,0.001000
1029.000000,-0.049429,0.001000,0.001000,0.001000,0.001000,0.001000
1029.019231,-0.049621,0.001000,0.001000,0.001000,0.001000,0.001000
1029.038462,-0.049773,0.001000,0.001000,0.001000,0.001000,0.001000
1029.057692,-0.049887,0.001000,0.001000,0.001000,0.001000,0.001000
1029.076923,-0.049962,0.001000,0.001000,0.001000,0.001000,0.001000
1029.096154,-0.049997,0.001000,0.001000,0.001000,0.001000,0.001000
1029.115385,-0.049993,0.001000,0.001000,0.001000,0.001000,0.001000
1029.134615,-0.049950,0.001000,0.001000,0.001000,0.001000,0.001000
1029.153846,-0.049867,0.001000,0.001000,0.001000,0.001000,0.001000
1029.173077,-0.049745,0.001000,0.001000,0.001000,0.001000,0.001000
1029.192308,-0.049585,0.001000,0.001000,0.001000,0.001000,0.001000
1029.211538,-0.049385,0.001000,0.001000,0.001000,0.001000,0.001000
1029.230769,-0.049147,0.001000,0.001000,0.001000,0.001000,0.001000
1029.250000,-0.048870,0.001000,0.001000,0.001000,0.001000,0.001000
1029.269231,-0.048554,0.001000,0.001000,0.001000,0.001000,0.001000
1029.288462,-0.048201,0.001000,0.001000,0.001000,0.001000,0.001000
1029.307692,-0.047809,0.001000,0.001000,0.001000,0.001000,0.001000
1029.326923,-0.047380,0.001000,0.001000,0.001000,0.001000,0.001000
1029.346154,-0.046914,0.001000,0.001000,0.001000,0.001000,0.001000
1029.365385,-0.046411,0.001000,0.001000,0.001000,0.001000,0.001000
1029.384615,-0.045872,0.001000,0.001000,0.001000,0.001000,0.001000
1029.403846,-0.045296,0.001000,0.001000,0.001000,0.001000,0.001000
1029.423077,-0.044685,0.001000,0.001000,0.001000,0.001000,0.001000
1029.442308,-0.044039,0.001000,0.001000,0.001000,0.001000,0.001000
1029.461538,-0.043358,0.001000,0.001000,0.001000,0.001000,0.001000
1029.480769,-0.042644,0.001000,0.001000,0.001000,0.001000,0.001000
1029.500000,-0.041895,0.001000,0.001000,0.001000,0.001000,0.001000
1029.519231,-0.041114,0.001000,0.001000,0.001000,0.001000,0.001000
1029.538462,-0.040301,0.001000,0.001000,0.001000,0.001000,0.001000
1029.557692,-0.039456,0.001000,0.001000,0.001000,0.001000,0.001000
1029.576923,-0.038580,0.001000,0.001000,0.001000,0.001000,0.001000
1029.596154,-0.037673,0.001000,0.001000,0.001000,0.001000,0.001000
1029.615385,-0.036738,0.001000,0.001000,0.001000,0.001000,0.001000
1029.634615,-0.035773,0.001000,0.001000,0.001000,0.001000,0.001000
1029.653846,-0.034780,0.001000,0.001000,0.001000,0.001000,0.001000
1029.673077,-0.033760,0.001000,0.001000,0.001000,0.001000,0.001000
1029.692308,-0.032713,0.001000,0.001000,0.001000,0.001000,0.001000
1029.711538,-0.031641,0.001000,0.001000,0.001000,0.001000,0.001000
1029.730769,-0.030543,0.001000,0.001000,0.001000,0.001000,0.001000
1029.750000,-0.029422,0.001000,0.001000,0.001000,0.001000,0.001000
1029.769231,-0.028278,0.001000,0.001000,0.001000,0.001000,0.001000
1029.788462,-0.027111,0.001000,0.001000,0.001000,0.001000,0.001000
1029.807692,-0.025923,0.001000,0.001000,0.001000,0.001000,0.001000
1029.826923,-0.024715,0.001000,0.001000,0.001000,0.001000,0.001000
1029.846154,-0.023488,0.001000,0.001000,0.001000,0.001000,0.001000
1029.865385,-0.022242,0.001000,0.001000,0.001000,0.001000,0.001000
1029.884615,-0.020978,0.001000,0.001000,0.001000,0.001000,0.001000
1029.903846,-0.019698,0.001000,0.001000,0.001000,0.001000,0.001000
1029.923077,-0.018403,0.001000,0.001000,0.001000,0.001000,0.001000
1029.942308,-0.017093,0.001000,0.001000,0.001000,0.001000,0.001000
1029.961538,-0.015769,0.001000,0.001000,0.001000,0.001000,0.001000
1029.980769,-0.014434,0.001000,0.001000,0.001000,0.001000,0.001000
1030.000000,0.000000,0.001000,0.001000,0.001000,0.001000,0.001000
1030.019231,0.001408,0.001000,0.001000,0.001000,0.001000,0.001000
1030.038462,0.002814,0.001000,0.001000,0.001000,0.001000,0.001000
1030.057692,0.004219,0.001000,0.001000,0.001000,0.001000,0.001000
1030.076923,0.005620,0.001000,0.001000,0.001000,0.001000,0.001000
1030.096154,0.007016,0.001000,0.001000,0.001000,0.001000,0.001000
1030.115385,0.008407,0.001000,0.001000,0.001000,0.001000,0.001000
1030.134615,0.009792,0.001000,0.001000,0.001000,0.001000,0.001000
1030.153846,0.011168,0.001000,0.001000,0.001000,0.001000,0.001000
1030.173077,0.012536,0.001000,0.001000,0.001000,0.001000,0.001000
1030.192308,0.013894,0.001000,0.001000,0.001000,0.001000,0.001000
1030.211538,0.015241,0.001000,0.001000,0.001000,0.001000,0.001000
1030.230769,0.016576,0.001000,0.001000,0.001000,0.001000,0.001000
1030.250000,0.017897,0.001000,0.001000,0.001000,0.001000,0.001000
1030.269231,0.019204,0.001000,0.001000,0.001000,0.001000,0.001000
1030.288462,0.020497,0.001000,0.001000,0.001000,0.001000,0.001000
1030.307692,0.021773,0.001000,0.001000,0.001000,0.001000,0.001000
1030.326923,0.023031,0.001000,0.001000,0.001000,0.001000,0.001000
1030.346154,0.024272,0.001000,0.001000,0.001000,0.001000,0.001000
1030.365385,0.025493,0.001000,0.001000,0.001000,0.001000,0.001000
1030.384615,0.026694,0.001000,0.001000,0.001000,0.001000,0.001000
1030.403846,0.027873,0.001000,0.001000,0.001000,0.001000,0.001000
1030.423077,0.029031,0.001000,0.001000,0.001000,0.001000,0.001000
1030.442308,0.030166,0.001000,0.001000,0.001000,0.001000,0.001000
1030.461538,0.031276,0.001000,0.001000,0.001000,0.001000,0.001000
1030.480769,0.032362,0.001000,0.001000,0.001000,0.001000,0.001000
1030.500000,0.033423,0.001000,0.001000,0.001000,0.001000,0.001000
1030.519231,0.034456,0.001000,0.001000,0.001000,0.001000,0.001000
1030.538462,0.035463,0.001000,0.001000,0.001000,0.001000,0.001000
1030.557692,0.036441,0.001000,0.001000,0.001000,0.001000,0.001000
1030.576923,0.037391,0.001000,0.001000,0.001000,0.001000,0.001000
1030.596154,0.038310,0.001000,0.001000,0.001000,0.001000,0.001000
1030.615385,0.039200,0.001000,0.001000,0.001000,0.001000,0.001000
1030.634615,0.040058,0.001000,0.001000,0.001000,0.001000,0.001000
1030.653846,0.040885,0.001000,0.001000,0.001000,0.001000,0.001000
1030.673077,0.041679,0.001000,0.001000,0.001000,0.001000,0.001000
1030.692308,0.042440,0.001000,0.001000,0.001000,0.001000,0.001000
1030.711538,0.043167,0.001000,0.001000,0.001000,0.001000,0.001000
1030.730769,0.043861,0.001000,0.001000,0.001000,0.001000,0.001000
1030.750000,0.044519,0.001000,0.001000,0.001000,0.001000,0.001000
1030.769231,0.045142,0.001000,0.001000,0.001000,0.001000,0.001000
1030.788462,0.045730,0.001000,0.001000,0.001000,0.001000,0.001000
1030.807692,0.046281,0.001000,0.001000,0.001000,0.001000,0.001000
1030.826923,0.046795,0.001000,0.001000,0.001000,0.001000,0.001000
1030.846154,0.047273,0.001000,0.001000,0.001000,0.001000,0.001000
1030.865385,0.047712,0.001000,0.001000,0.001000,0.001000,0.001000
1030.884615,0.048114,0.001000,0.001000,0.001000,0.001000,0.001000
1030.903846,0.048478,0.001000,0.001000,0.001000,0.001000,0.001000
1030.923077,0.048804,0.001000,0.001000,0.001000,0.001000,0.001000
1030.942308,0.049091,0.001000,0.001000,0.001000,0.001000,0.001000
1030.961538,0.049338,0.001000,0.001000,0.001000,0.001000,0.001000
1030.980769,0.049547,0.001000,0.001000,0.001000,0.001000,0.001000
1031.000000,0.049716,0.001000,0.001000,0.001000,0.001000,0.001000
1031.019231,0.049846,0.001000,0.001000,0.001000,0.001000,0.001000
1031.038462,0.049937,0.001000,0.001000,0.001000,0.001000,0.001000
1031.057692,0.049988,0.001000,0.001000,0.001000,0.001000,0.001000
1031.076923,0.049999,0.001000,0.001000,0.001000,0.001000,0.001000
1031.096154,0.049971,0.001000,0.001000,0.001000,0.001000,0.001000
1031.115385,0.049903,0.001000,0.001000,0.001000,0.001000,0.001000
1031.134615,0.049795,0.001000,0.001000,0.001000,0.001000,0.001000
1031.153846,0.049648,0.001000,0.001000,0.001000,0.001000,0.001000
1031.173077,0.049462,0.001000,0.001000,0.001000,0.001000,0.001000
1031.192308,0.049236,0.001000,0.001000,0.001000,0.001000,0.001000
1031.211538,0.048971,0.001000,0.001000,0.001000,0.001000,0.001000
1031.230769,0.048668,0.001000,0.001000,0.001000,0.001000,0.001000
1031.250000,0.048326,0.001000,0.001000,0.001000,0.001000,0.001000
1031.269231,0.047945,0.001000,0.001000,0.001000,0.001000,0.001000
1031.288462,0.047527,0.001000,0.001000,0.001000,0.001000,0.001000
1031.307692,0.047071,0.001000,0.001000,0.001000,0.001000,0.001000
1031.326923,0.046577,0.001000,0.001000,0.001000,0.001000,0.001000
1031.346154,0.046047,0.001000,0.001000,0.001000,0.001000,0.001000
1031.365385,0.045480,0.001000,0.001000,0.001000,0.001000,0.001000
1031.384615,0.044877,0.001000,0.001000,0.001000,0.001000,0.001000
1031.403846,0.044239,0.001000,0.001000,0.001000,0.001000,0.001000
1031.423077,0.043565,0.001000,0.001000,0.001000,0.001000,0.001000
1031.442308,0.042857,0.001000,0.001000,0.001000,0.001000,0.001000
1031.461538,0.042115,0.001000,0.001000,0.001000,0.001000,0.001000
1031.480769,0.041340,0.001000,0.001000,0.001000,0.001000,0.001000
1031.500000,0.040531,0.001000,0.001000,0.001000,0.001000,0.001000
1031.519231,0.039691,0.001000,0.001000,0.001000,0.001000,0.001000
1031.538462,0.038819,0.001000,0.001000,0.001000,0.001000,0.001000
1031.557692,0.037916,0.001000,0.001000,0.001000,0.001000,0.001000
1031.576923,0.036984,0.001000,0.001000,0.001000,0.001000,0.001000
1031.596154,0.036022,0.001000,0.001000,0.001000,0.001000,0.001000
1031.615385,0.035031,0.001000,0.001000,0.001000,0.001000,0.001000
1031.634615,0.034013,0.001000,0.001000,0.001000,0.001000,0.001000
1031.653846,0.032967,0.001000,0.001000,0.001000,0.001000,0.001000
1031.673077,0.031896,0.001000,0.001000,0.001000,0.001000,0.001000
1031.692308,0.030799,0.001000,0.001000,0.001000,0.001000,0.001000
1031.711538,0.029678,0.001000,0.001000,0.001000,0.001000,0.001000
1031.730769,0.028533,0.001000,0.001000,0.001000,0.001000,0.001000
1031.750000,0.027366,0.001000,0.001000,0.001000,0.001000,0.001000
1031.769231,0.026177,0.001000,0.001000,0.001000,0.001000,0.001000
1031.788462,0.024967,0.001000,0.001000,0.001000,0.001000,0.001000
1031.807692,0.023738,0.001000,0.001000,0.001000,0.001000,0.001000
1031.826923,0.022489,0.001000,0.001000,0.001000,0.001000,0.001000
1031.846154,0.021223,0.001000,0.001000,0.001000,0.001000,0.001000
1031.865385,0.019940,0.001000,0.001000,0.001000,0.001000,0.001000
1031.884615,0.018641,0.001000,0.001000,0.001000,0.001000,0.001000
1031.903846,0.017327,0.001000,0.001000,0.001000,0.001000,0.001000
1031.923077,0.016000,0.001000,0.001000,0.001000,0.001000,0.001000
1031.942308,0.014660,0.001000,0.001000,0.001000,0.001000,0.001000
1031.961538,0.013308,0.001000,0.001000,0.001000,0.001000,0.001000
1031.980769,0.011946,0.001000,0.001000,0.001000,0.001000,0.001000
1032.000000,0.010574,0.001000,0.001000,0.001000,0.001000,0.001000
1032.019231,0.009194,0.001000,0.001000,0.001000,0.001000,0.001000
1032.038462,0.007807,0.001000,0.001000,0.001000,0.001000,0.001000
1032.057692,0.006413,0.001000,0.001000,0.001000,0.001000,0.001000
1032.076923,0.005015,0.001000,0.001000,0.001000,0.001000,0.001000
1032.096154,0.003612,0.001000,0.001000,0.001000,0.001000,0.001000
1032.115385,0.002206,0.001000,0.001000,0.001000,0.001000,0.001000
1032.134615,0.000799,0.001000,0.001000,0.001000,0.001000,0.001000
1032.153846,-0.000609,0.001000,0.001000,0.001000,0.001000,0.001000
1032.173077,-0.002016,0.001000,0.001000,0.001000,0.001000,0.001000
1032.192308,-0.003422,0.001000,0.001000,0.001000,0.001000,0.001000
1032.211538,-0.004825,0.001000,0.001000,0.001000,0.001000,0.001000
1032.230769,-0.006224,0.001000,0.001000,0.001000,0.001000,0.001000
1032.250000,-0.007619,0.001000,0.001000,0.001000,0.001000,0.001000
1032.269231,-0.009007,0.001000,0.001000,0.001000,0.001000,0.001000
1032.288462,-0.010388,0.001000,0.001000,0.001000,0.001000,0.001000
1032.307692,-0.011761,0.001000,0.001000,0.001000,0.001000,0.001000
1032.326923,-0.013125,0.001000,0.001000,0.001000,0.001000,0.001000
1032.346154,-0.014478,0.001000,0.001000,0.001000,0.001000,0.001000
1032.365385,-0.015819,0.001000,0.001000,0.001000,0.001000,0.001000
1032.384615,-0.017149,0.001000,0.001000,0.001000,0.001000,0.001000
1032.403846,-0.018464,0.001000,0.001000,0.001000,0.001000,0.001000
1032.423077,-0.019765,0.001000,0.001000,0.001000,0.001000,0.001000
1032.442308,-0.021050,0.001000,0.001000,0.001000,0.001000,0.001000
1032.461538,-0.022319,0.001000,0.001000,0.001000,0.001000,0.001000
1032.480769,-0.023570,0.001000,0.001000,0.001000,0.001000,0.001000
1032.500000,-0.024802,0.001000,0.001000,0.001000,0.001000,0.001000
1032.519231,-0.026014,0.001000,0.001000,0.001000,0.001000,0.001000
1032.538462,-0.027206,0.001000,0.001000,0.001000,0.001000,0.001000
1032.557692,-0.028377,0.001000,0.001000,0.001000,0.001000,0.001000
1032.576923,-0.029524,0.001000,0.001000,0.001000,0.001000,0.001000
1032.596154,-0.030649,0.001000,0.001000,0.001000,0.001000,0.001000
1032.615385,-0.031749,0.001000,0.001000,0.001000,0.001000,0.001000
1032.634615,-0.032824,0.001000,0.001000,0.001000,0.001000,0.001000
1032.653846,-0.033873,0.001000,0.001000,0.001000,0.001000,0.001000
1032.673077,-0.034895,0.001000,0.001000,0.001000,0.001000,0.001000
1032.692308,-0.035889,0.001000,0.001000,0.001000,0.001000,0.001000
1032.711538,-0.036855,0.001000,0.001000,0.001000,0.001000,0.001000
1032.730769,-0.037792,0.001000,0.001000,0.001000,0.001000,0.001000
1032.750000,-0.038699,0.001000,0.001000,0.001000,0.001000,0.001000
1032.769231,-0.039575,0.001000,0.001000,0.001000,0.001000,0.001000
1032.788462,-0.040419,0.001000,0.001000,0.001000,0.001000,0.001000
1032.807692,-0.041232,0.001000,0.001000,0.001000,0.001000,0.001000
1032.826923,-0.042012,0.001000,0.001000,0.001000,0.001000,0.001000
1032.846154,-0.042759,0.001000,0.001000,0.001000,0.001000,0.001000
1032.865385,-0.043471,0.001000,0.001000,0.001000,0.001000,0.001000
1032.884615,-0.044150,0.001000,0.001000,0.001000,0.001000,0.001000
1032.903846,-0.044793,0.001000,0.001000,0.001000,0.001000,0.001000
1032.923077,-0.045401,0.001000,0.001000,0.001000,0.001000,0.001000
1032.942308,-0.045973,0.001000,0.001000,0.001000,0.001000,0.001000
1032.961538,-0.046508,0.001000,0.001000,0.001000,0.001000,0.001000
1032.980769,-0.047006,0.001000,0.001000,0.001000,0.001000,0.001000
1033.000000,-0.047467,0.001000,0.001000,0.001000,0.001000,0.001000
1033.019231,-0.047891,0.001000,0.001000,0.001000,0.001000,0.001000
1033.038462,-0.048277,0.001000,0.001000,0.001000,0.001000,0.001000
1033.057692,-0.048624,0.001000,0.001000,0.001000,0.001000,0.001000
1033.076923,-0.048933,0.001000,0.001000,0.001000,0.001000,0.001000
1033.096154,-0.049202,0.001000,0.001000,0.001000,0.001000,0.001000
1033.115385,-0.049433,0.001000,0.001000,0.001000,0.001000,0.001000
1033.134615,-0.049625,0.001000,0.001000,0.001000,0.001000,0.001000
1033.153846,-0.049778,0.001000,0.001000,0.001000,0.001000,0.001000
1033.173077,-0.049890,0.001000,0.001000,0.001000,0.001000,0.001000
1033.192308,-0.049964,0.001000,0.001000,0.001000,0.001000,0.001000
1033.211538,-0.049998,0.001000,0.001000,0.001000,0.001000,0.001000
1033.230769,-0.049992,0.001000,0.001000,0.001000,0.001000,0.001000
1033.250000,-0.049946,0.001000,0.001000,0.001000,0.001000,0.001000
1033.269231,-0.049861,0.001000,0.001000,0.001000,0.001000,0.001000
1033.288462,-0.049736,0.001000,0.001000,0.001000,0.001000,0.001000
1033.307692,-0.049572,0.001000,0.001000,0.001000,0.001000,0.001000
1033.326923,-0.049369,0.001000,0.001000,0.001000,0.001000,0.001000
1033.346154,-0.049126,0.001000,0.001000,0.001000,0.001000,0.001000
1033.365385,-0.048845,0.001000,0.001000,0.001000,0.001000,0.001000
1033.384615,-0.048525,0.001000,0.001000,0.001000,0.001000,0.001000
1033.403846,-0.048166,0.001000,0.001000,0.001000,0.001000,0.001000
1033.423077,-0.047769,0.001000,0.001000,0.001000,0.001000,0.001000
1033.442308,-0.047334,0.001000,0.001000,0.001000,0.001000,0.001000
1033.461538,-0.046862,0.001000,0.001000,0.001000,0.001000,0.001000
1033.480769,-0.046353,0.001000,0.001000,0.001000,0.001000,0.001000
1033.500000,-0.045806,0.001000,0.001000,0.001000,0.001000,0.001000
1033.519231,-0.045224,0.001000,0.001000,0.001000,0.001000,0.001000
1033.538462,-0.044606,0.001000,0.001000,0.001000,0.001000,0.001000
1033.557692,-0.043952,0.001000,0.001000,0.001000,0.001000,0.001000
1033.576923,-0.043263,0.001000,0.001000,0.001000,0.001000,0.001000
1033.596154,-0.042540,0.001000,0.001000,0.001000,0.001000,0.001000
1033.615385,-0.041784,0.001000,0.001000,0.001000,0.001000,0.001000
1033.634615,-0.040994,0.001000,0.001000,0.001000,0.001000,0.001000
1033.653846,-0.040172,0.001000,0.001000,0.001000,0.001000,0.001000
1033.673077,-0.039318,0.001000,0.001000,0.001000,0.001000,0.001000
1033.692308,-0.038432,0.001000,0.001000,0.001000,0.001000,0.001000
1033.711538,-0.037517,0.001000,0.001000,0.001000,0.001000,0.001000
1033.730769,-0.036571,0.001000,0.001000,0.001000,0.001000,0.001000
1033.750000,-0.035597,0.001000,0.001000,0.001000,0.001000,0.001000
1033.769231,-0.034594,0.001000,0.001000,0.001000,0.001000,0.001000
1033.788462,-0.033564,0.001000,0.001000,0.001000,0.001000,0.001000
1033.807692,-0.032507,0.001000,0.001000,0.001000,0.001000,0.001000
1033.826923,-0.031425,0.001000,0.001000,0.001000,0.001000,0.001000
1033.846154,-0.030317,0.001000,0.001000,0.001000,0.001000,0.001000
1033.865385,-0.029186,0.001000,0.001000,0.001000,0.001000,0.001000
1033.884615,-0.028031,0.001000,0.001000,0.001000,0.001000,0.001000
1033.903846,-0.026854,0.001000,0.001000,0.001000,0.001000,0.001000
1033.923077,-0.025656,0.001000,0.001000,0.001000,0.001000,0.001000
1033.942308,-0.024438,0.001000,0.001000,0.001000,0.001000,0.001000
1033.961538,-0.023200,0.001000,0.001000,0.001000,0.001000,0.001000
1033.980769,-0.021944,0.001000,0.001000,0.001000,0.001000,0.001000
1034.000000,-0.020670,0.001000,0.001000,0.001000,0.001000,0.001000
1034.019231,-0.019380,0.001000,0.001000,0.001000,0.001000,0.001000
1034.038462,-0.018075,0.001000,0.001000,0.001000,0.001000,0.001000
1034.057692,-0.016755,0.001000,0.001000,0.001000,0.001000,0.001000
1034.076923,-0.015422,0.001000,0.001000,0.001000,0.001000,0.001000
1034.096154,-0.014077,0.001000,0.001000,0.001000,0.001000,0.001000
1034.115385,-0.012720,0.001000,0.001000,0.001000,0.001000,0.001000
1034.134615,-0.011354,0.001000,0.001000,0.001000,0.001000,0.001000
1034.153846,-0.009978,0.001000,0.001000,0.001000,0.001000,0.001000
1034.173077,-0.008595,0.001000,0.001000,0.001000,0.001000,0.001000
1034.192308,-0.007205,0.001000,0.001000,0.001000,0.001000,0.001000
1034.211538,-0.005809,0.001000,0.001000,0.001000,0.001000,0.001000
1034.230769,-0.004408,0.001000,0.001000,0.001000,0.001000,0.001000
1034.250000,-0.003004,0.001000,0.001000,0.001000,0.001000,0.001000
1034.269231,-0.001598,0.001000,0.001000,0.001000,0.001000,0.001000
1034.288462,-0.000190,0.001000,0.001000,0.001000,0.001000,0.001000
1034.307692,0.001217,0.001000,0.001000,0.001000,0.001000,0.001000
1034.326923,0.002624,0.001000,0.001000,0.001000,0.001000,0.001000
1034.346154,0.004029,0.001000,0.001000,0.001000,0.001000,0.001000
1034.365385,0.005431,0.001000,0.001000,0.001000,0.001000,0.001000
1034.384615,0.006828,0.001000,0.001000,0.001000,0.001000,0.001000
1034.403846,0.008220,0.001000,0.001000,0.001000,0.001000,0.001000
1034.423077,0.009605,0.001000,0.001000,0.001000,0.001000,0.001000
1034.442308,0.010983,0.001000,0.001000,0.001000,0.001000,0.001000
1034.461538,0.012352,0.001000,0.001000,0.001000,0.001000,0.001000
1034.480769,0.013711,0.001000,0.001000,0.001000,0.001000,0.001000
1034.500000,0.015059,0.001000,0.001000,0.001000,0.001000,0.001000
1034.519231,0.016396,0.001000,0.001000,0.001000,0.001000,0.001000
1034.538462,0.017719,0.001000,0.001000,0.001000,0.001000,0.001000
1034.557692,0.019029,0.001000,0.001000,0.001000,0.001000,0.001000
1034.576923,0.020323,0.001000,0.001000,0.001000,0.001000,0.001000
1034.596154,0.021601,0.001000,0.001000,0.001000,0.001000,0.001000
1034.615385,0.022862,0.001000,0.001000,0.001000,0.001000,0.001000
1034.634615,0.024105,0.001000,0.001000,0.001000,0.001000,0.001000
1034.653846,0.025329,0.001000,0.001000,0.001000,0.001000,0.001000
1034.673077,0.026532,0.001000,0.001000,0.001000,0.001000,0.001000
