timestamp,ax,ay,az,gx,gy,gz
1000.000000,0.000000,0.001000,0.001000,0.001000,0.001000,0.001000
1000.019231,0.001168,0.001000,0.001000,0.001000,0.001000,0.001000
1000.038462,0.002336,0.001000,0.001000,0.001000,0.001000,0.001000
1000.057692,0.003502,0.001000,0.001000,0.001000,0.001000,0.001000
1000.076923,0.004666,0.001000,0.001000,0.001000,0.001000,0.001000
1000.096154,0.005828,0.001000,0.001000,0.001000,0.001000,0.001000
1000.115385,0.006986,0.001000,0.001000,0.001000,0.001000,0.001000
1000.134615,0.008141,0.001000,0.001000,0.001000,0.001000,0.001000
1000.153846,0.009292,0.001000,0.001000,0.001000,0.001000,0.001000
1000.173077,0.010437,0.001000,0.001000,0.001000,0.001000,0.001000
1000.192308,0.011576,0.001000,0.001000,0.001000,0.001000,0.001000
1000.211538,0.012710,0.001000,0.001000,0.001000,0.001000,0.001000
1000.230769,0.013836,0.001000,0.001000,0.001000,0.001000,0.001000
1000.250000,0.014955,0.001000,0.001000,0.001000,0.001000,0.001000
1000.269231,0.016065,0.001000,0.001000,0.001000,0.001000,0.001000
1000.288462,0.017167,0.001000,0.001000,0.001000,0.001000,0.001000
1000.307692,0.018259,0.001000,0.001000,0.001000,0.001000,0.001000
1000.326923,0.019342,0.001000,0.001000,0.001000,0.001000,0.001000
1000.346154,0.020414,0.001000,0.001000,0.001000,0.001000,0.001000
1000.365385,0.021475,0.001000,0.001000,0.001000,0.001000,0.001000
1000.384615,0.022524,0.001000,0.001000,0.001000,0.001000,0.001000
1000.403846,0.023560,0.001000,0.001000,0.001000,0.001000,0.001000
1000.423077,0.024584,0.001000,0.001000,0.001000,0.001000,0.001000
1000.442308,0.025595,0.001000,0.001000,0.001000,0.001000,0.001000
1000.461538,0.026591,0.001000,0.001000,0.001000,0.001000,0.001000
1000.480769,0.027573,0.001000,0.001000,0.001000,0.001000,0.001000
1000.500000,0.028540,0.001000,0.001000,0.001000,0.001000,0.001000
1000.519231,0.029492,0.001000,0.001000,0.001000,0.001000,0.001000
1000.538462,0.030427,0.001000,0.001000,0.001000,0.001000,0.001000
1000.557692,0.031345,0.001000,0.001000,0.001000,0.001000,0.001000
1000.576923,0.032247,0.001000,0.001000,0.001000,0.001000,0.001000
1000.596154,0.033131,0.001000,0.001000,0.001000,0.001000,0.001000
1000.615385,0.033997,0.001000,0.001000,0.001000,0.001000,0.001000
1000.634615,0.034844,0.001000,0.001000,0.001000,0.001000,0.001000
1000.653846,0.035672,0.001000,0.001000,0.001000,0.001000,0.001000
1000.673077,0.036481,0.001000,0.001000,0.001000,0.001000,0.001000
1000.692308,0.037270,0.001000,0.001000,0.001000,0.001000,0.001000
1000.711538,0.038038,0.001000,0.001000,0.001000,0.001000,0.001000
1000.730769,0.038786,0.001000,0.001000,0.001000,0.001000,0.001000
1000.750000,0.039513,0.001000,0.001000,0.001000,0.001000,0.001000
1000.769231,0.040218,0.001000,0.001000,0.001000,0.001000,0.001000
1000.788462,0.040901,0.001000,0.001000,0.001000,0.001000,0.001000
1000.807692,0.041562,0.001000,0.001000,0.001000,0.001000,0.001000
1000.826923,0.042200,0.001000,0.001000,0.001000,0.001000,0.001000
1000.846154,0.042815,0.001000,0.001000,0.001000,0.001000,0.001000
1000.865385,0.043406,0.001000,0.001000,0.001000,0.001000,0.001000
1000.884615,0.043974,0.001000,0.001000,0.001000,0.001000,0.001000
1000.903846,0.044518,0.001000,0.001000,0.001000,0.001000,0.001000
1000.923077,0.045038,0.001000,0.001000,0.001000,0.001000,0.001000
1000.942308,0.045533,0.001000,0.001000,0.001000,0.001000,0.001000
1000.961538,0.046003,0.001000,0.001000,0.001000,0.001000,0.001000
1000.980769,0.046448,0.001000,0.001000,0.001000,0.001000,0.001000
1001.000000,0.046868,0.001000,0.001000,0.001000,0.001000,0.001000
1001.019231,0.047262,0.001000,0.001000,0.001000,0.001000,0.001000
1001.038462,0.047630,0.001000,0.001000,0.001000,0.001000,0.001000
1001.057692,0.047973,0.001000,0.001000,0.001000,0.001000,0.001000
1001.076923,0.048289,0.001000,0.001000,0.001000,0.001000,0.001000
1001.096154,0.048579,0.001000,0.001000,0.001000,0.001000,0.001000
1001.115385,0.048842,0.001000,0.001000,0.001000,0.001000,0.001000
1001.134615,0.049079,0.001000,0.001000,0.001000,0.001000,0.001000
1001.153846,0.049288,0.001000,0.001000,0.001000,0.001000,0.001000
1001.173077,0.049471,0.001000,0.001000,0.001000,0.001000,0.001000
1001.192308,0.049627,0.001000,0.001000,0.001000,0.001000,0.001000
1001.211538,0.049756,0.001000,0.001000,0.001000,0.001000,0.001000
1001.230769,0.049858,0.001000,0.001000,0.001000,0.001000,0.001000
1001.250000,0.049932,0.001000,0.001000,0.001000,0.001000,0.001000
1001.269231,0.049979,0.001000,0.001000,0.001000,0.001000,0.001000
1001.288462,0.049999,0.001000,0.001000,0.001000,0.001000,0.001000
1001.307692,0.049992,0.001000,0.001000,0.001000,0.001000,0.001000
1001.326923,0.049957,0.001000,0.001000,0.001000,0.001000,0.001000
1001.346154,0.049895,0.001000,0.001000,0.001000,0.001000,0.001000
1001.365385,0.049806,0.001000,0.001000,0.001000,0.001000,0.001000
1001.384615,0.049690,0.001000,0.001000,0.001000,0.001000,0.001000
1001.403846,0.049546,0.001000,0.001000,0.001000,0.001000,0.001000
1001.423077,0.049376,0.001000,0.001000,0.001000,0.001000,0.001000
1001.442308,0.049178,0.001000,0.001000,0.001000,0.001000,0.001000
1001.461538,0.048954,0.001000,0.001000,0.001000,0.001000,0.001000
1001.480769,0.048703,0.001000,0.001000,0.001000,0.001000,0.001000
1001.500000,0.048425,0.001000,0.001000,0.001000,0.001000,0.001000
1001.519231,0.048121,0.001000,0.001000,0.001000,0.001000,0.001000
1001.538462,0.047791,0.001000,0.001000,0.001000,0.001000,0.001000
1001.557692,0.047434,0.001000,0.001000,0.001000,0.001000,0.001000
1001.576923,0.047052,0.001000,0.001000,0.001000,0.001000,0.001000
1001.596154,0.046644,0.001000,0.001000,0.001000,0.001000,0.001000
1001.615385,0.046210,0.001000,0.001000,0.001000,0.001000,0.001000
1001.634615,0.045752,0.001000,0.001000,0.001000,0.001000,0.001000
1001.653846,0.045268,0.001000,0.001000,0.001000,0.001000,0.001000
1001.673077,0.044759,0.001000,0.001000,0.001000,0.001000,0.001000
1001.692308,0.044227,0.001000,0.001000,0.001000,0.001000,0.001000
1001.711538,0.043670,0.001000,0.001000,0.001000,0.001000,0.001000
1001.730769,0.043089,0.001000,0.001000,0.001000,0.001000,0.001000
1001.750000,0.042485,0.001000,0.001000,0.001000,0.001000,0.001000
1001.769231,0.041857,0.001000,0.001000,0.001000,0.001000,0.001000
1001.788462,0.041207,0.001000,0.001000,0.001000,0.001000,0.001000
1001.807692,0.040534,0.001000,0.001000,0.001000,0.001000,0.001000
1001.826923,0.039839,0.001000,0.001000,0.001000,0.001000,0.001000
1001.846154,0.039122,0.001000,0.001000,0.001000,0.001000,0.001000
1001.865385,0.038384,0.001000,0.001000,0.001000,0.001000,0.001000
1001.884615,0.037625,0.001000,0.001000,0.001000,0.001000,0.001000
1001.903846,0.036845,0.001000,0.001000,0.001000,0.001000,0.001000
1001.923077,0.036046,0.001000,0.001000,0.001000,0.001000,0.001000
1001.942308,0.035226,0.001000,0.001000,0.001000,0.001000,0.001000
1001.961538,0.034388,0.001000,0.001000,0.001000,0.001000,0.001000
1001.980769,0.033530,0.001000,0.001000,0.001000,0.001000,0.001000
1002.000000,0.032654,0.001000,0.001000,0.001000,0.001000,0.001000
1002.019231,0.031761,0.001000,0.001000,0.001000,0.001000,0.001000
1002.038462,0.030850,0.001000,0.001000,0.001000,0.001000,0.001000
1002.057692,0.029922,0.001000,0.001000,0.001000,0.001000,0.001000
1002.076923,0.028978,0.001000,0.001000,0.001000,0.001000,0.001000
1002.096154,0.028018,0.001000,0.001000,0.001000,0.001000,0.001000
1002.115385,0.027043,0.001000,0.001000,0.001000,0.001000,0.001000
1002.134615,0.026053,0.001000,0.001000,0.001000,0.001000,0.001000
1002.153846,0.025049,0.001000,0.001000,0.001000,0.001000,0.001000
1002.173077,0.024031,0.001000,0.001000,0.001000,0.001000,0.001000
1002.192308,0.023001,0.001000,0.001000,0.001000,0.001000,0.001000
1002.211538,0.021957,0.001000,0.001000,0.001000,0.001000,0.001000
1002.230769,0.020902,0.001000,0.001000,0.001000,0.001000,0.001000
1002.250000,0.019835,0.001000,0.001000,0.001000,0.001000,0.001000
1002.269231,0.018757,0.001000,0.001000,0.001000,0.001000,0.001000
1002.288462,0.017669,0.001000,0.001000,0.001000,0.001000,0.001000
1002.307692,0.016572,0.001000,0.001000,0.001000,0.001000,0.001000
1002.326923,0.015465,0.001000,0.001000,0.001000,0.001000,0.001000
1002.346154,0.014350,0.001000,0.001000,0.001000,0.001000,0.001000
1002.365385,0.013227,0.001000,0.001000,0.001000,0.001000,0.001000
1002.384615,0.012097,0.001000,0.001000,0.001000,0.001000,0.001000
1002.403846,0.010960,0.001000,0.001000,0.001000,0.001000,0.001000
1002.423077,0.009817,0.001000,0.001000,0.001000,0.001000,0.001000
1002.442308,0.008669,0.001000,0.001000,0.001000,0.001000,0.001000
1002.461538,0.007516,0.001000,0.001000,0.001000,0.001000,0.001000
1002.480769,0.006360,0.001000,0.001000,0.001000,0.001000,0.001000
1002.500000,0.005199,0.001000,0.001000,0.001000,0.001000,0.001000
1002.519231,0.004036,0.001000,0.001000,0.001000,0.001000,0.001000
1002.538462,0.002871,0.001000,0.001000,0.001000,0.001000,0.001000
1002.557692,0.001704,0.001000,0.001000,0.001000,0.001000,0.001000
1002.576923,0.000536,0.001000,0.001000,0.001000,0.001000,0.001000
1002.596154,-0.000633,0.001000,0.001000,0.001000,0.001000,0.001000
1002.615385,-0.001800,0.001000,0.001000,0.001000,0.001000,0.001000
1002.634615,-0.002967,0.001000,0.001000,0.001000,0.001000,0.001000
1002.653846,-0.004133,0.001000,0.001000,0.001000,0.001000,0.001000
1002.673077,-0.005296,0.001000,0.001000,0.001000,0.001000,0.001000
1002.692308,-0.006456,0.001000,0.001000,0.001000,0.001000,0.001000
1002.711538,-0.007612,0.001000,0.001000,0.001000,0.001000,0.001000
1002.730769,-0.008765,0.001000,0.001000,0.001000,0.001000,0.001000
1002.750000,-0.009912,0.001000,0.001000,0.001000,0.001000,0.001000
1002.769231,-0.011055,0.001000,0.001000,0.001000,0.001000,0.001000
1002.788462,-0.012191,0.001000,0.001000,0.001000,0.001000,0.001000
1002.807692,-0.013320,0.001000,0.001000,0.001000,0.001000,0.001000
1002.826923,-0.014443,0.001000,0.001000,0.001000,0.001000,0.001000
1002.846154,-0.015557,0.001000,0.001000,0.001000,0.001000,0.001000
1002.865385,-0.016663,0.001000,0.001000,0.001000,0.001000,0.001000
1002.884615,-0.017760,0.001000,0.001000,0.001000,0.001000,0.001000
1002.903846,-0.018847,0.001000,0.001000,0.001000,0.001000,0.001000
1002.923077,-0.019924,0.001000,0.001000,0.001000,0.001000,0.001000
1002.942308,-0.020990,0.001000,0.001000,0.001000,0.001000,0.001000
1002.961538,-0.022044,0.001000,0.001000,0.001000,0.001000,0.001000
1002.980769,-0.023087,0.001000,0.001000,0.001000,0.001000,0.001000
1003.000000,-0.024116,0.001000,0.001000,0.001000,0.001000,0.001000
1003.019231,-0.025133,0.001000,0.001000,0.001000,0.001000,0.001000
1003.038462,-0.026136,0.001000,0.001000,0.001000,0.001000,0.001000
1003.057692,-0.027125,0.001000,0.001000,0.001000,0.001000,0.001000
1003.076923,-0.028099,0.001000,0.001000,0.001000,0.001000,0.001000
1003.096154,-0.029057,0.001000,0.001000,0.001000,0.001000,0.001000
1003.115385,-0.030000,0.001000,0.001000,0.001000,0.001000,0.001000
1003.134615,-0.030926,0.001000,0.001000,0.001000,0.001000,0.001000
1003.153846,-0.031836,0.001000,0.001000,0.001000,0.001000,0.001000
1003.173077,-0.032728,0.001000,0.001000,0.001000,0.001000,0.001000
1003.192308,-0.033602,0.001000,0.001000,0.001000,0.001000,0.001000
1003.211538,-0.034458,0.001000,0.001000,0.001000,0.001000,0.001000
1003.230769,-0.035295,0.001000,0.001000,0.001000,0.001000,0.001000
1003.250000,-0.036113,0.001000,0.001000,0.001000,0.001000,0.001000
1003.269231,-0.036911,0.001000,0.001000,0.001000,0.001000,0.001000
1003.288462,-0.037689,0.001000,0.001000,0.001000,0.001000,0.001000
1003.307692,-0.038446,0.001000,0.001000,0.001000,0.001000,0.001000
1003.326923,-0.039182,0.001000,0.001000,0.001000,0.001000,0.001000
1003.346154,-0.039897,0.001000,0.001000,0.001000,0.001000,0.001000
1003.365385,-0.040590,0.001000,0.001000,0.001000,0.001000,0.001000
1003.384615,-0.041261,0.001000,0.001000,0.001000,0.001000,0.001000
1003.403846,-0.041910,0.001000,0.001000,0.001000,0.001000,0.001000
1003.423077,-0.042536,0.001000,0.001000,0.001000,0.001000,0.001000
1003.442308,-0.043138,0.001000,0.001000,0.001000,0.001000,0.001000
1003.461538,-0.043717,0.001000,0.001000,0.001000,0.001000,0.001000
1003.480769,-0.044272,0.001000,0.001000,0.001000,0.001000,0.001000
1003.500000,-0.044803,0.001000,0.001000,0.001000,0.001000,0.001000
1003.519231,-0.045309,0.001000,0.001000,0.001000,0.001000,0.001000
1003.538462,-0.045791,0.001000,0.001000,0.001000,0.001000,0.001000
1003.557692,-0.046247,0.001000,0.001000,0.001000,0.001000,0.001000
1003.576923,-0.046679,0.001000,0.001000,0.001000,0.001000,0.001000
1003.596154,-0.047085,0.001000,0.001000,0.001000,0.001000,0.001000
1003.615385,-0.047465,0.001000,0.001000,0.001000,0.001000,0.001000
1003.634615,-0.047819,0.001000,0.001000,0.001000,0.001000,0.001000
1003.653846,-0.048147,0.001000,0.001000,0.001000,0.001000,0.001000
1003.673077,-0.048449,0.001000,0.001000,0.001000,0.001000,0.001000
1003.692308,-0.048725,0.001000,0.001000,0.001000,0.001000,0.001000
1003.711538,-0.048973,0.001000,0.001000,0.001000,0.001000,0.001000
1003.730769,-0.049196,0.001000,0.001000,0.001000,0.001000,0.001000
1003.750000,-0.049391,0.001000,0.001000,0.001000,0.001000,0.001000
1003.769231,-0.049559,0.001000,0.001000,0.001000,0.001000,0.001000
1003.788462,-0.049700,0.001000,0.001000,0.001000,0.001000,0.001000
1003.807692,-0.049815,0.001000,0.001000,0.001000,0.001000,0.001000
1003.826923,-0.049901,0.001000,0.001000,0.001000,0.001000,0.001000
1003.846154,-0.049961,0.001000,0.001000,0.001000,0.001000,0.001000
1003.865385,-0.049994,0.001000,0.001000,0.001000,0.001000,0.001000
1003.884615,-0.049999,0.001000,0.001000,0.001000,0.001000,0.001000
1003.903846,-0.049976,0.001000,0.001000,0.001000,0.001000,0.001000
1003.923077,-0.049927,0.001000,0.001000,0.001000,0.001000,0.001000
1003.942308,-0.049850,0.001000,0.001000,0.001000,0.001000,0.001000
1003.961538,-0.049746,0.001000,0.001000,0.001000,0.001000,0.001000
1003.980769,-0.049615,0.001000,0.001000,0.001000,0.001000,0.001000
1004.000000,-0.049457,0.001000,0.001000,0.001000,0.001000,0.001000
1004.019231,-0.049272,0.001000,0.001000,0.001000,0.001000,0.001000
1004.038462,-0.049060,0.001000,0.001000,0.001000,0.001000,0.001000
1004.057692,-0.048821,0.001000,0.001000,0.001000,0.001000,0.001000
1004.076923,-0.048556,0.001000,0.001000,0.001000,0.001000,0.001000
1004.096154,-0.048264,0.001000,0.001000,0.001000,0.001000,0.001000
1004.115385,-0.047945,0.001000,0.001000,0.001000,0.001000,0.001000
1004.134615,-0.047601,0.001000,0.001000,0.001000,0.001000,0.001000
1004.153846,-0.047230,0.001000,0.001000,0.001000,0.001000,0.001000
1004.173077,-0.046834,0.001000,0.001000,0.001000,0.001000,0.001000
1004.192308,-0.046412,0.001000,0.001000,0.001000,0.001000,0.001000
1004.211538,-0.045965,0.001000,0.001000,0.001000,0.001000,0.001000
1004.230769,-0.045493,0.001000,0.001000,0.001000,0.001000,0.001000
1004.250000,-0.044996,0.001000,0.001000,0.001000,0.001000,0.001000
1004.269231,-0.044474,0.001000,0.001000,0.001000,0.001000,0.001000
1004.288462,-0.043928,0.001000,0.001000,0.001000,0.001000,0.001000
1004.307692,-0.043358,0.001000,0.001000,0.001000,0.001000,0.001000
1004.326923,-0.042765,0.001000,0.001000,0.001000,0.001000,0.001000
1004.346154,-0.042148,0.001000,0.001000,0.001000,0.001000,0.001000
1004.365385,-0.041508,0.001000,0.001000,0.001000,0.001000,0.001000
1004.384615,-0.040845,0.001000,0.001000,0.001000,0.001000,0.001000
1004.403846,-0.040160,0.001000,0.001000,0.001000,0.001000,0.001000
1004.423077,-0.039453,0.001000,0.001000,0.001000,0.001000,0.001000
1004.442308,-0.038725,0.001000,0.001000,0.001000,0.001000,0.001000
1004.461538,-0.037975,0.001000,0.001000,0.001000,0.001000,0.001000
1004.480769,-0.037205,0.001000,0.001000,0.001000,0.001000,0.001000
1004.500000,-0.036415,0.001000,0.001000,0.001000,0.001000,0.001000
1004.519231,-0.035604,0.001000,0.001000,0.001000,0.001000,0.001000
1004.538462,-0.034774,0.001000,0.001000,0.001000,0.001000,0.001000
1004.557692,-0.033926,0.001000,0.001000,0.001000,0.001000,0.001000
1004.576923,-0.033058,0.001000,0.001000,0.001000,0.001000,0.001000
1004.596154,-0.032173,0.001000,0.001000,0.001000,0.001000,0.001000
1004.615385,-0.031270,0.001000,0.001000,0.001000,0.001000,0.001000
1004.634615,-0.030350,0.001000,0.001000,0.001000,0.001000,0.001000
1004.653846,-0.029413,0.001000,0.001000,0.001000,0.001000,0.001000
1004.673077,-0.028460,0.001000,0.001000,0.001000,0.001000,0.001000
1004.692308,-0.027492,0.001000,0.001000,0.001000,0.001000,0.001000
1004.711538,-0.026509,0.001000,0.001000,0.001000,0.001000,0.001000
1004.730769,-0.025511,0.001000,0.001000,0.001000,0.001000,0.001000
1004.750000,-0.024500,0.001000,0.001000,0.001000,0.001000,0.001000
1004.769231,-0.023475,0.001000,0.001000,0.001000,0.001000,0.001000
1004.788462,-0.022437,0.001000,0.001000,0.001000,0.001000,0.001000
1004.807692,-0.021387,0.001000,0.001000,0.001000,0.001000,0.001000
1004.826923,-0.020325,0.001000,0.001000,0.001000,0.001000,0.001000
1004.846154,-0.019252,0.001000,0.001000,0.001000,0.001000,0.001000
1004.865385,-0.018169,0.001000,0.001000,0.001000,0.001000,0.001000
1004.884615,-0.017076,0.001000,0.001000,0.001000,0.001000,0.001000
1004.903846,-0.015973,0.001000,0.001000,0.001000,0.001000,0.001000
1004.923077,-0.014862,0.001000,0.001000,0.001000,0.001000,0.001000
1004.942308,-0.013743,0.001000,0.001000,0.001000,0.001000,0.001000
1004.961538,-0.012616,0.001000,0.001000,0.001000,0.001000,0.001000
1004.980769,-0.011482,0.001000,0.001000,0.001000,0.001000,0.001000
1005.000000,-0.010342,0.001000,0.001000,0.001000,0.001000,0.001000
1005.019231,-0.009196,0.001000,0.001000,0.001000,0.001000,0.001000
1005.038462,-0.008046,0.001000,0.001000,0.001000,0.001000,0.001000
1005.057692,-0.006890,0.001000,0.001000,0.001000,0.001000,0.001000
1005.076923,-0.005732,0.001000,0.001000,0.001000,0.001000,0.001000
1005.096154,-0.004570,0.001000,0.001000,0.001000,0.001000,0.001000
1005.115385,-0.003405,0.001000,0.001000,0.001000,0.001000,0.001000
1005.134615,-0.002239,0.001000,0.001000,0.001000,0.001000,0.001000
1005.153846,-0.001071,0.001000,0.001000,0.001000,0.001000,0.001000
1005.173077,0.000097,0.001000,0.001000,0.001000,0.001000,0.001000
1005.192308,0.001265,0.001000,0.001000,0.001000,0.001000,0.001000
1005.211538,0.002433,0.001000,0.001000,0.001000,0.001000,0.001000
1005.230769,0.003599,0.001000,0.001000,0.001000,0.001000,0.001000
1005.250000,0.004763,0.001000,0.001000,0.001000,0.001000,0.001000
1005.269231,0.005924,0.001000,0.001000,0.001000,0.001000,0.001000
1005.288462,0.007083,0.001000,0.001000,0.001000,0.001000,0.001000
1005.307692,0.008237,0.001000,0.001000,0.001000,0.001000,0.001000
1005.326923,0.009387,0.001000,0.001000,0.001000,0.001000,0.001000
1005.346154,0.010532,0.001000,0.001000,0.001000,0.001000,0.001000
1005.365385,0.011671,0.001000,0.001000,0.001000,0.001000,0.001000
1005.384615,0.012803,0.001000,0.001000,0.001000,0.001000,0.001000
1005.403846,0.013929,0.001000,0.001000,0.001000,0.001000,0.001000
1005.423077,0.015047,0.001000,0.001000,0.001000,0.001000,0.001000
1005.442308,0.016157,0.001000,0.001000,0.001000,0.001000,0.001000
1005.461538,0.017258,0.001000,0.001000,0.001000,0.001000,0.001000
1005.480769,0.018350,0.001000,0.001000,0.001000,0.001000,0.001000
1005.500000,0.019431,0.001000,0.001000,0.001000,0.001000,0.001000
1005.519231,0.020502,0.001000,0.001000,0.001000,0.001000,0.001000
1005.538462,0.021562,0.001000,0.001000,0.001000,0.001000,0.001000
1005.557692,0.022610,0.001000,0.001000,0.001000,0.001000,0.001000
1005.576923,0.023646,0.001000,0.001000,0.001000,0.001000,0.001000
1005.596154,0.024669,0.001000,0.001000,0.001000,0.001000,0.001000
1005.615385,0.025678,0.001000,0.001000,0.001000,0.001000,0.001000
1005.634615,0.026673,0.001000,0.001000,0.001000,0.001000,0.001000
1005.653846,0.027654,0.001000,0.001000,0.001000,0.001000,0.001000
1005.673077,0.028620,0.001000,0.001000,0.001000,0.001000,0.001000
1005.692308,0.029570,0.001000,0.001000,0.001000,0.001000,0.001000
1005.711538,0.030504,0.001000,0.001000,0.001000,0.001000,0.001000
1005.730769,0.031421,0.001000,0.001000,0.001000,0.001000,0.001000
1005.750000,0.032321,0.001000,0.001000,0.001000,0.001000,0.001000
1005.769231,0.033203,0.001000,0.001000,0.001000,0.001000,0.001000
1005.788462,0.034068,0.001000,0.001000,0.001000,0.001000,0.001000
1005.807692,0.034913,0.001000,0.001000,0.001000,0.001000,0.001000
1005.826923,0.035740,0.001000,0.001000,0.001000,0.001000,0.001000
1005.846154,0.036547,0.001000,0.001000,0.001000,0.001000,0.001000
1005.865385,0.037334,0.001000,0.001000,0.001000,0.001000,0.001000
1005.884615,0.038101,0.001000,0.001000,0.001000,0.001000,0.001000
1005.903846,0.038847,0.001000,0.001000,0.001000,0.001000,0.001000
1005.923077,0.039572,0.001000,0.001000,0.001000,0.001000,0.001000
1005.942308,0.040275,0.001000,0.001000,0.001000,0.001000,0.001000
1005.961538,0.040957,0.001000,0.001000,0.001000,0.001000,0.001000
1005.980769,0.041615,0.001000,0.001000,0.001000,0.001000,0.001000
1006.000000,0.042252,0.001000,0.001000,0.001000,0.001000,0.001000
1006.019231,0.042865,0.001000,0.001000,0.001000,0.001000,0.001000
1006.038462,0.043454,0.001000,0.001000,0.001000,0.001000,0.001000
1006.057692,0.044020,0.001000,0.001000,0.001000,0.001000,0.001000
1006.076923,0.044562,0.001000,0.001000,0.001000,0.001000,0.001000
1006.096154,0.045080,0.001000,0.001000,0.001000,0.001000,0.001000
1006.115385,0.045573,0.001000,0.001000,0.001000,0.001000,0.001000
1006.134615,0.046041,0.001000,0.001000,0.001000,0.001000,0.001000
1006.153846,0.046484,0.001000,0.001000,0.001000,0.001000,0.001000
1006.173077,0.046902,0.001000,0.001000,0.001000,0.001000,0.001000
1006.192308,0.047294,0.001000,0.001000,0.001000,0.001000,0.001000
1006.211538,0.047660,0.001000,0.001000,0.001000,0.001000,0.001000
1006.230769,0.048000,0.001000,0.001000,0.001000,0.001000,0.001000
1006.250000,0.048314,0.001000,0.001000,0.001000,0.001000,0.001000
1006.269231,0.048602,0.001000,0.001000,0.001000,0.001000,0.001000
1006.288462,0.048863,0.001000,0.001000,0.001000,0.001000,0.001000
1006.307692,0.049097,0.001000,0.001000,0.001000,0.001000,0.001000
1006.326923,0.049305,0.001000,0.001000,0.001000,0.001000,0.001000
1006.346154,0.049485,0.001000,0.001000,0.001000,0.001000,0.001000
1006.365385,0.049639,0.001000,0.001000,0.001000,0.001000,0.001000
1006.384615,0.049766,0.001000,0.001000,0.001000,0.001000,0.001000
1006.403846,0.049865,0.001000,0.001000,0.001000,0.001000,0.001000
1006.423077,0.049937,0.001000,0.001000,0.001000,0.001000,0.001000
1006.442308,0.049982,0.001000,0.001000,0.001000,0.001000,0.001000
1006.461538,0.050000,0.001000,0.001000,0.001000,0.001000,0.001000
1006.480769,0.049990,0.001000,0.001000,0.001000,0.001000,0.001000
1006.500000,0.049953,0.001000,0.001000,0.001000,0.001000,0.001000
1006.519231,0.049889,0.001000,0.001000,0.001000,0.001000,0.001000
1006.538462,0.049797,0.001000,0.001000,0.001000,0.001000,0.001000
1006.557692,0.049679,0.001000,0.001000,0.001000,0.001000,0.001000
1006.576923,0.049533,0.001000,0.001000,0.001000,0.001000,0.001000
1006.596154,0.049360,0.001000,0.001000,0.001000,0.001000,0.001000
1006.615385,0.049161,0.001000,0.001000,0.001000,0.001000,0.001000
1006.634615,0.048934,0.001000,0.001000,0.001000,0.001000,0.001000
1006.653846,0.048681,0.001000,0.001000,0.001000,0.001000,0.001000
1006.673077,0.048401,0.001000,0.001000,0.001000,0.001000,0.001000
1006.692308,0.048095,0.001000,0.001000,0.001000,0.001000,0.001000
1006.711538,0.047762,0.001000,0.001000,0.001000,0.001000,0.001000
1006.730769,0.047403,0.001000,0.001000,0.001000,0.001000,0.001000
1006.750000,0.047019,0.001000,0.001000,0.001000,0.001000,0.001000
1006.769231,0.046609,0.001000,0.001000,0.001000,0.001000,0.001000
1006.788462,0.046173,0.001000,0.001000,0.001000,0.001000,0.001000
1006.807692,0.045712,0.001000,0.001000,0.001000,0.001000,0.001000
1006.826923,0.045227,0.001000,0.001000,0.001000,0.001000,0.001000
1006.846154,0.044716,0.001000,0.001000,0.001000,0.001000,0.001000
1006.865385,0.044181,0.001000,0.001000,0.001000,0.001000,0.001000
1006.884615,0.043622,0.001000,0.001000,0.001000,0.001000,0.001000
1006.903846,0.043040,0.001000,0.001000,0.001000,0.001000,0.001000
1006.923077,0.042433,0.001000,0.001000,0.001000,0.001000,0.001000
1006.942308,0.041804,0.001000,0.001000,0.001000,0.001000,0.001000
1006.961538,0.041152,0.001000,0.001000,0.001000,0.001000,0.001000
1006.980769,0.040477,0.001000,0.001000,0.001000,0.001000,0.001000
1007.000000,0.039780,0.001000,0.001000,0.001000,0.001000,0.001000
1007.019231,0.039062,0.001000,0.001000,0.001000,0.001000,0.001000
1007.038462,0.038322,0.001000,0.001000,0.001000,0.001000,0.001000
1007.057692,0.037561,0.001000,0.001000,0.001000,0.001000,0.001000
1007.076923,0.036780,0.001000,0.001000,0.001000,0.001000,0.001000
1007.096154,0.035978,0.001000,0.001000,0.001000,0.001000,0.001000
1007.115385,0.035157,0.001000,0.001000,0.001000,0.001000,0.001000
1007.134615,0.034317,0.001000,0.001000,0.001000,0.001000,0.001000
1007.153846,0.033458,0.001000,0.001000,0.001000,0.001000,0.001000
1007.173077,0.032581,0.001000,0.001000,0.001000,0.001000,0.001000
1007.192308,0.031686,0.001000,0.001000,0.001000,0.001000,0.001000
1007.211538,0.030774,0.001000,0.001000,0.001000,0.001000,0.001000
1007.230769,0.029845,0.001000,0.001000,0.001000,0.001000,0.001000
1007.250000,0.028899,0.001000,0.001000,0.001000,0.001000,0.001000
1007.269231,0.027938,0.001000,0.001000,0.001000,0.001000,0.001000
1007.288462,0.026962,0.001000,0.001000,0.001000,0.001000,0.001000
1007.307692,0.025971,0.001000,0.001000,0.001000,0.001000,0.001000
1007.326923,0.024965,0.001000,0.001000,0.001000,0.001000,0.001000
1007.346154,0.023946,0.001000,0.001000,0.001000,0.001000,0.001000
1007.365385,0.022914,0.001000,0.001000,0.001000,0.001000,0.001000
1007.384615,0.021870,0.001000,0.001000,0.001000,0.001000,0.001000
1007.403846,0.020813,0.001000,0.001000,0.001000,0.001000,0.001000
1007.423077,0.019746,0.001000,0.001000,0.001000,0.001000,0.001000
1007.442308,0.018667,0.001000,0.001000,0.001000,0.001000,0.001000
1007.461538,0.017578,0.001000,0.001000,0.001000,0.001000,0.001000
1007.480769,0.016480,0.001000,0.001000,0.001000,0.001000,0.001000
1007.500000,0.015373,0.001000,0.001000,0.001000,0.001000,0.001000
1007.519231,0.014257,0.001000,0.001000,0.001000,0.001000,0.001000
1007.538462,0.013133,0.001000,0.001000,0.001000,0.001000,0.001000
1007.557692,0.012003,0.001000,0.001000,0.001000,0.001000,0.001000
1007.576923,0.010865,0.001000,0.001000,0.001000,0.001000,0.001000
1007.596154,0.009722,0.001000,0.001000,0.001000,0.001000,0.001000
1007.615385,0.008574,0.001000,0.001000,0.001000,0.001000,0.001000
1007.634615,0.007421,0.001000,0.001000,0.001000,0.001000,0.001000
1007.653846,0.006263,0.001000,0.001000,0.001000,0.001000,0.001000
1007.673077,0.005103,0.001000,0.001000,0.001000,0.001000,0.001000
1007.692308,0.003939,0.001000,0.001000,0.001000,0.001000,0.001000
1007.711538,0.002774,0.001000,0.001000,0.001000,0.001000,0.001000
1007.730769,0.001607,0.001000,0.001000,0.001000,0.001000,0.001000
1007.750000,0.000439,0.001000,0.001000,0.001000,0.001000,0.001000
1007.769231,-0.000730,0.001000,0.001000,0.001000,0.001000,0.001000
1007.788462,-0.001897,0.001000,0.001000,0.001000,0.001000,0.001000
1007.807692,-0.003064,0.001000,0.001000,0.001000,0.001000,0.001000
1007.826923,-0.004229,0.001000,0.001000,0.001000,0.001000,0.001000
1007.846154,-0.005392,0.001000,0.001000,0.001000,0.001000,0.001000
1007.865385,-0.006552,0.001000,0.001000,0.001000,0.001000,0.001000
1007.884615,-0.007708,0.001000,0.001000,0.001000,0.001000,0.001000
1007.903846,-0.008860,0.001000,0.001000,0.001000,0.001000,0.001000
1007.923077,-0.010007,0.001000,0.001000,0.001000,0.001000,0.001000
1007.942308,-0.011149,0.001000,0.001000,0.001000,0.001000,0.001000
1007.961538,-0.012285,0.001000,0.001000,0.001000,0.001000,0.001000
1007.980769,-0.013414,0.001000,0.001000,0.001000,0.001000,0.001000
1008.000000,-0.014536,0.001000,0.001000,0.001000,0.001000,0.001000
1008.019231,-0.015649,0.001000,0.001000,0.001000,0.001000,0.001000
1008.038462,-0.016754,0.001000,0.001000,0.001000,0.001000,0.001000
1008.057692,-0.017850,0.001000,0.001000,0.001000,0.001000,0.001000
1008.076923,-0.018937,0.001000,0.001000,0.001000,0.001000,0.001000
1008.096154,-0.020013,0.001000,0.001000,0.001000,0.001000,0.001000
1008.115385,-0.021078,0.001000,0.001000,0.001000,0.001000,0.001000
1008.134615,-0.022131,0.001000,0.001000,0.001000,0.001000,0.001000
1008.153846,-0.023173,0.001000,0.001000,0.001000,0.001000,0.001000
1008.173077,-0.024201,0.001000,0.001000,0.001000,0.001000,0.001000
1008.192308,-0.025217,0.001000,0.001000,0.001000,0.001000,0.001000
1008.211538,-0.026219,0.001000,0.001000,0.001000,0.001000,0.001000
1008.230769,-0.027206,0.001000,0.001000,0.001000,0.001000,0.001000
1008.250000,-0.028179,0.001000,0.001000,0.001000,0.001000,0.001000
1008.269231,-0.029136,0.001000,0.001000,0.001000,0.001000,0.001000
1008.288462,-0.030078,0.001000,0.001000,0.001000,0.001000,0.001000
1008.307692,-0.031002,0.001000,0.001000,0.001000,0.001000,0.001000
1008.326923,-0.031910,0.001000,0.001000,0.001000,0.001000,0.001000
1008.346154,-0.032801,0.001000,0.001000,0.001000,0.001000,0.001000
1008.365385,-0.033674,0.001000,0.001000,0.001000,0.001000,0.001000
1008.384615,-0.034528,0.001000,0.001000,0.001000,0.001000,0.001000
1008.403846,-0.035364,0.001000,0.001000,0.001000,0.001000,0.001000
1008.423077,-0.036180,0.001000,0.001000,0.001000,0.001000,0.001000
1008.442308,-0.036976,0.001000,0.001000,0.001000,0.001000,0.001000
1008.461538,-0.037752,0.001000,0.001000,0.001000,0.001000,0.001000
1008.480769,-0.038508,0.001000,0.001000,0.001000,0.001000,0.001000
1008.500000,-0.039242,0.001000,0.001000,0.001000,0.001000,0.001000
1008.519231,-0.039956,0.001000,0.001000,0.001000,0.001000,0.001000
1008.538462,-0.040647,0.001000,0.001000,0.001000,0.001000,0.001000
1008.557692,-0.041316,0.001000,0.001000,0.001000,0.001000,0.001000
1008.576923,-0.041963,0.001000,0.001000,0.001000,0.001000,0.001000
1008.596154,-0.042586,0.001000,0.001000,0.001000,0.001000,0.001000
1008.615385,-0.043187,0.001000,0.001000,0.001000,0.001000,0.001000
1008.634615,-0.043764,0.001000,0.001000,0.001000,0.001000,0.001000
1008.653846,-0.044317,0.001000,0.001000,0.001000,0.001000,0.001000
1008.673077,-0.044846,0.001000,0.001000,0.001000,0.001000,0.001000
1008.692308,-0.045350,0.001000,0.001000,0.001000,0.001000,0.001000
1008.711538,-0.045829,0.001000,0.001000,0.001000,0.001000,0.001000
1008.730769,-0.046284,0.001000,0.001000,0.001000,0.001000,0.001000
1008.750000,-0.046713,0.001000,0.001000,0.001000,0.001000,0.001000
1008.769231,-0.047117,0.001000,0.001000,0.001000,0.001000,0.001000
1008.788462,-0.047495,0.001000,0.001000,0.001000,0.001000,0.001000
1008.807692,-0.047847,0.001000,0.001000,0.001000,0.001000,0.001000
1008.826923,-0.048173,0.001000,0.001000,0.001000,0.001000,0.001000
1008.846154,-0.048473,0.001000,0.001000,0.001000,0.001000,0.001000
1008.865385,-0.048746,0.001000,0.001000,0.001000,0.001000,0.001000
1008.884615,-0.048993,0.001000,0.001000,0.001000,0.001000,0.001000
1008.903846,-0.049213,0.001000,0.001000,0.001000,0.001000,0.001000
1008.923077,-0.049406,0.001000,0.001000,0.001000,0.001000,0.001000
1008.942308,-0.049572,0.001000,0.001000,0.001000,0.001000,0.001000
1008.961538,-0.049711,0.001000,0.001000,0.001000,0.001000,0.001000
1008.980769,-0.049823,0.001000,0.001000,0.001000,0.001000,0.001000
1009.000000,-0.049907,0.001000,0.001000,0.001000,0.001000,0.001000
1009.019231,-0.049965,0.001000,0.001000,0.001000,0.001000,0.001000
1009.038462,-0.049995,0.001000,0.001000,0.001000,0.001000,0.001000
1009.057692,-0.049998,0.001000,0.001000,0.001000,0.001000,0.001000
1009.076923,-0.049973,0.001000,0.001000,0.001000,0.001000,0.001000
1009.096154,-0.049922,0.001000,0.001000,0.001000,0.001000,0.001000
1009.115385,-0.049843,0.001000,0.001000,0.001000,0.001000,0.001000
1009.134615,-0.049737,0.001000,0.001000,0.001000,0.001000,0.001000
1009.153846,-0.049603,0.001000,0.001000,0.001000,0.001000,0.001000
1009.173077,-0.049443,0.001000,0.001000,0.001000,0.001000,0.001000
1009.192308,-0.049255,0.001000,0.001000,0.001000,0.001000,0.001000
1009.211538,-0.049041,0.001000,0.001000,0.001000,0.001000,0.001000
1009.230769,-0.048800,0.001000,0.001000,0.001000,0.001000,0.001000
1009.250000,-0.048532,0.001000,0.001000,0.001000,0.001000,0.001000
1009.269231,-0.048238,0.001000,0.001000,0.001000,0.001000,0.001000
1009.288462,-0.047918,0.001000,0.001000,0.001000,0.001000,0.001000
1009.307692,-0.047571,0.001000,0.001000,0.001000,0.001000,0.001000
1009.326923,-0.047198,0.001000,0.001000,0.001000,0.001000,0.001000
1009.346154,-0.046800,0.001000,0.001000,0.001000,0.001000,0.001000
1009.365385,-0.046376,0.001000,0.001000,0.001000,0.001000,0.001000
1009.384615,-0.045927,0.001000,0.001000,0.001000,0.001000,0.001000
1009.403846,-0.045452,0.001000,0.001000,0.001000,0.001000,0.001000
1009.423077,-0.044953,0.001000,0.001000,0.001000,0.001000,0.001000
1009.442308,-0.044430,0.001000,0.001000,0.001000,0.001000,0.001000
1009.461538,-0.043882,0.001000,0.001000,0.001000,0.001000,0.001000
1009.480769,-0.043310,0.001000,0.001000,0.001000,0.001000,0.001000
1009.500000,-0.042714,0.001000,0.001000,0.001000,0.001000,0.001000
1009.519231,-0.042095,0.001000,0.001000,0.001000,0.001000,0.001000
1009.538462,-0.041453,0.001000,0.001000,0.001000,0.001000,0.001000
1009.557692,-0.040789,0.001000,0.001000,0.001000,0.001000,0.001000
1009.576923,-0.040102,0.001000,0.001000,0.001000,0.001000,0.001000
1009.596154,-0.039394,0.001000,0.001000,0.001000,0.001000,0.001000
1009.615385,-0.038663,0.001000,0.001000,0.001000,0.001000,0.001000
1009.634615,-0.037912,0.001000,0.001000,0.001000,0.001000,0.001000
1009.653846,-0.037140,0.001000,0.001000,0.001000,0.001000,0.001000
1009.673077,-0.036348,0.001000,0.001000,0.001000,0.001000,0.001000
1009.692308,-0.035536,0.001000,0.001000,0.001000,0.001000,0.001000
1009.711538,-0.034705,0.001000,0.001000,0.001000,0.001000,0.001000
1009.730769,-0.033854,0.001000,0.001000,0.001000,0.001000,0.001000
1009.750000,-0.032985,0.001000,0.001000,0.001000,0.001000,0.001000
1009.769231,-0.032098,0.001000,0.001000,0.001000,0.001000,0.001000
1009.788462,-0.031194,0.001000,0.001000,0.001000,0.001000,0.001000
1009.807692,-0.030273,0.001000,0.001000,0.001000,0.001000,0.001000
1009.826923,-0.029335,0.001000,0.001000,0.001000,0.001000,0.001000
1009.846154,-0.028381,0.001000,0.001000,0.001000,0.001000,0.001000
1009.865385,-0.027411,0.001000,0.001000,0.001000,0.001000,0.001000
1009.884615,-0.026427,0.001000,0.001000,0.001000,0.001000,0.001000
1009.903846,-0.025428,0.001000,0.001000,0.001000,0.001000,0.001000
1009.923077,-0.024415,0.001000,0.001000,0.001000,0.001000,0.001000
1009.942308,-0.023389,0.001000,0.001000,0.001000,0.001000,0.001000
1009.961538,-0.022350,0.001000,0.001000,0.001000,0.001000,0.001000
1009.980769,-0.021299,0.001000,0.001000,0.001000,0.001000,0.001000
1010.000000,-0.020237,0.001000,0.001000,0.001000,0.001000,0.001000
1010.019231,-0.019163,0.001000,0.001000,0.001000,0.001000,0.001000
1010.038462,-0.018079,0.001000,0.001000,0.001000,0.001000,0.001000
1010.057692,-0.016985,0.001000,0.001000,0.001000,0.001000,0.001000
1010.076923,-0.015881,0.001000,0.001000,0.001000,0.001000,0.001000
1010.096154,-0.014769,0.001000,0.001000,0.001000,0.001000,0.001000
1010.115385,-0.013649,0.001000,0.001000,0.001000,0.001000,0.001000
1010.134615,-0.012522,0.001000,0.001000,0.001000,0.001000,0.001000
1010.153846,-0.011388,0.001000,0.001000,0.001000,0.001000,0.001000
1010.173077,-0.010247,0.001000,0.001000,0.001000,0.001000,0.001000
1010.192308,-0.009101,0.001000,0.001000,0.001000,0.001000,0.001000
1010.211538,-0.007950,0.001000,0.001000,0.001000,0.001000,0.001000
1010.230769,-0.006794,0.001000,0.001000,0.001000,0.001000,0.001000
1010.250000,-0.005635,0.001000,0.001000,0.001000,0.001000,0.001000
1010.269231,-0.004473,0.001000,0.001000,0.001000,0.001000,0.001000
1010.288462,-0.003308,0.001000,0.001000,0.001000,0.001000,0.001000
1010.307692,-0.002142,0.001000,0.001000,0.001000,0.001000,0.001000
1010.326923,-0.000974,0.001000,0.001000,0.001000,0.001000,0.001000
1010.346154,0.000194,0.001000,0.001000,0.001000,0.001000,0.001000
1010.365385,0.001362,0.001000,0.001000,0.001000,0.001000,0.001000
1010.384615,0.002529,0.001000,0.001000,0.001000,0.001000,0.001000
1010.403846,0.003695,0.001000,0.001000,0.001000,0.001000,0.001000
1010.423077,0.004859,0.001000,0.001000,0.001000,0.001000,0.001000
1010.442308,0.006021,0.001000,0.001000,0.001000,0.001000,0.001000
1010.461538,0.007179,0.001000,0.001000,0.001000,0.001000,0.001000
1010.480769,0.008333,0.001000,0.001000,0.001000,0.001000,0.001000
1010.500000,0.009482,0.001000,0.001000,0.001000,0.001000,0.001000
1010.519231,0.010626,0.001000,0.001000,0.001000,0.001000,0.001000
1010.538462,0.011765,0.001000,0.001000,0.001000,0.001000,0.001000
1010.557692,0.012897,0.001000,0.001000,0.001000,0.001000,0.001000
1010.576923,0.014022,0.001000,0.001000,0.001000,0.001000,0.001000
1010.596154,0.015140,0.001000,0.001000,0.001000,0.001000,0.001000
1010.615385,0.016249,0.001000,0.001000,0.001000,0.001000,0.001000
1010.634615,0.017349,0.001000,0.001000,0.001000,0.001000,0.001000
1010.653846,0.018440,0.001000,0.001000,0.001000,0.001000,0.001000
1010.673077,0.019521,0.001000,0.001000,0.001000,0.001000,0.001000
1010.692308,0.020591,0.001000,0.001000,0.001000,0.001000,0.001000
1010.711538,0.021650,0.001000,0.001000,0.001000,0.001000,0.001000
1010.730769,0.022697,0.001000,0.001000,0.001000,0.001000,0.001000
1010.750000,0.023731,0.001000,0.001000,0.001000,0.001000,0.001000
1010.769231,0.024753,0.001000,0.001000,0.001000,0.001000,0.001000
1010.788462,0.025761,0.001000,0.001000,0.001000,0.001000,0.001000
1010.807692,0.026755,0.001000,0.001000,0.001000,0.001000,0.001000
1010.826923,0.027735,0.001000,0.001000,0.001000,0.001000,0.001000
1010.846154,0.028699,0.001000,0.001000,0.001000,0.001000,0.001000
1010.865385,0.029648,0.001000,0.001000,0.001000,0.001000,0.001000
1010.884615,0.030580,0.001000,0.001000,0.001000,0.001000,0.001000
1010.903846,0.031496,0.001000,0.001000,0.001000,0.001000,0.001000
1010.923077,0.032395,0.001000,0.001000,0.001000,0.001000,0.001000
1010.942308,0.033276,0.001000,0.001000,0.001000,0.001000,0.001000
1010.961538,0.034139,0.001000,0.001000,0.001000,0.001000,0.001000
1010.980769,0.034983,0.001000,0.001000,0.001000,0.001000,0.001000
1011.000000,0.035808,0.001000,0.001000,0.001000,0.001000,0.001000
1011.019231,0.036613,0.001000,0.001000,0.001000,0.001000,0.001000
1011.038462,0.037399,0.001000,0.001000,0.001000,0.001000,0.001000
1011.057692,0.038164,0.001000,0.001000,0.001000,0.001000,0.001000
1011.076923,0.038908,0.001000,0.001000,0.001000,0.001000,0.001000
1011.096154,0.039631,0.001000,0.001000,0.001000,0.001000,0.001000
1011.115385,0.040333,0.001000,0.001000,0.001000,0.001000,0.001000
1011.134615,0.041012,0.001000,0.001000,0.001000,0.001000,0.001000
1011.153846,0.041669,0.001000,0.001000,0.001000,0.001000,0.001000
1011.173077,0.042303,0.001000,0.001000,0.001000,0.001000,0.001000
1011.192308,0.042915,0.001000,0.001000,0.001000,0.001000,0.001000
1011.211538,0.043502,0.001000,0.001000,0.001000,0.001000,0.001000
1011.230769,0.044066,0.001000,0.001000,0.001000,0.001000,0.001000
1011.250000,0.044606,0.001000,0.001000,0.001000,0.001000,0.001000
1011.269231,0.045122,0.001000,0.001000,0.001000,0.001000,0.001000
1011.288462,0.045613,0.001000,0.001000,0.001000,0.001000,0.001000
1011.307692,0.046079,0.001000,0.001000,0.001000,0.001000,0.001000
1011.326923,0.046520,0.001000,0.001000,0.001000,0.001000,0.001000
1011.346154,0.046935,0.001000,0.001000,0.001000,0.001000,0.001000
1011.365385,0.047325,0.001000,0.001000,0.001000,0.001000,0.001000
1011.384615,0.047689,0.001000,0.001000,0.001000,0.001000,0.001000
1011.403846,0.048027,0.001000,0.001000,0.001000,0.001000,0.001000
1011.423077,0.048339,0.001000,0.001000,0.001000,0.001000,0.001000
1011.442308,0.048624,0.001000,0.001000,0.001000,0.001000,0.001000
1011.461538,0.048883,0.001000,0.001000,0.001000,0.001000,0.001000
1011.480769,0.049115,0.001000,0.001000,0.001000,0.001000,0.001000
1011.500000,0.049321,0.001000,0.001000,0.001000,0.001000,0.001000
1011.519231,0.049499,0.001000,0.001000,0.001000,0.001000,0.001000
1011.538462,0.049651,0.001000,0.001000,0.001000,0.001000,0.001000
1011.557692,0.049775,0.001000,0.001000,0.001000,0.001000,0.001000
1011.576923,0.049872,0.001000,0.001000,0.001000,0.001000,0.001000
1011.596154,0.049942,0.001000,0.001000,0.001000,0.001000,0.001000
1011.615385,0.049985,0.001000,0.001000,0.001000,0.001000,0.001000
1011.634615,0.050000,0.001000,0.001000,0.001000,0.001000,0.001000
1011.653846,0.049988,0.001000,0.001000,0.001000,0.001000,0.001000
1011.673077,0.049949,0.001000,0.001000,0.001000,0.001000,0.001000
1011.692308,0.049882,0.001000,0.001000,0.001000,0.001000,0.001000
1011.711538,0.049789,0.001000,0.001000,0.001000,0.001000,0.001000
1011.730769,0.049668,0.001000,0.001000,0.001000,0.001000,0.001000
1011.750000,0.049520,0.001000,0.001000,0.001000,0.001000,0.001000
1011.769231,0.049345,0.001000,0.001000,0.001000,0.001000,0.001000
1011.788462,0.049143,0.001000,0.001000,0.001000,0.001000,0.001000
1011.807692,0.048914,0.001000,0.001000,0.001000,0.001000,0.001000
1011.826923,0.048658,0.001000,0.001000,0.001000,0.001000,0.001000
1011.846154,0.048376,0.001000,0.001000,0.001000,0.001000,0.001000
1011.865385,0.048068,0.001000,0.001000,0.001000,0.001000,0.001000
1011.884615,0.047733,0.001000,0.001000,0.001000,0.001000,0.001000
1011.903846,0.047372,0.001000,0.001000,0.001000,0.001000,0.001000
1011.923077,0.046986,0.001000,0.001000,0.001000,0.001000,0.001000
1011.942308,0.046574,0.001000,0.001000,0.001000,0.001000,0.001000
1011.961538,0.046136,0.001000,0.001000,0.001000,0.001000,0.001000
1011.980769,0.045673,0.001000,0.001000,0.001000,0.001000,0.001000
1012.000000,0.045185,0.001000,0.001000,0.001000,0.001000,0.001000
1012.019231,0.044673,0.001000,0.001000,0.001000,0.001000,0.001000
1012.038462,0.044136,0.001000,0.001000,0.001000,0.001000,0.001000
1012.057692,0.043575,0.001000,0.001000,0.001000,0.001000,0.001000
1012.076923,0.042990,0.001000,0.001000,0.001000,0.001000,0.001000
1012.096154,0.042382,0.001000,0.001000,0.001000,0.001000,0.001000
1012.115385,0.041751,0.001000,0.001000,0.001000,0.001000,0.001000
1012.134615,0.041096,0.001000,0.001000,0.001000,0.001000,0.001000
1012.153846,0.040420,0.001000,0.001000,0.001000,0.001000,0.001000
1012.173077,0.039721,0.001000,0.001000,0.001000,0.001000,0.001000
1012.192308,0.039001,0.001000,0.001000,0.001000,0.001000,0.001000
1012.211538,0.038259,0.001000,0.001000,0.001000,0.001000,0.001000
1012.230769,0.037497,0.001000,0.001000,0.001000,0.001000,0.001000
1012.250000,0.036714,0.001000,0.001000,0.001000,0.001000,0.001000
1012.269231,0.035911,0.001000,0.001000,0.001000,0.001000,0.001000
1012.288462,0.035088,0.001000,0.001000,0.001000,0.001000,0.001000
1012.307692,0.034246,0.001000,0.001000,0.001000,0.001000,0.001000
1012.326923,0.033386,0.001000,0.001000,0.001000,0.001000,0.001000
1012.346154,0.032507,0.001000,0.001000,0.001000,0.001000,0.001000
1012.365385,0.031611,0.001000,0.001000,0.001000,0.001000,0.001000
1012.384615,0.030697,0.001000,0.001000,0.001000,0.001000,0.001000
1012.403846,0.029767,0.001000,0.001000,0.001000,0.001000,0.001000
1012.423077,0.028820,0.001000,0.001000,0.001000,0.001000,0.001000
1012.442308,0.027858,0.001000,0.001000,0.001000,0.001000,0.001000
1012.461538,0.026880,0.001000,0.001000,0.001000,0.001000,0.001000
1012.480769,0.025888,0.001000,0.001000,0.001000,0.001000,0.001000
1012.500000,0.024881,0.001000,0.001000,0.001000,0.001000,0.001000
1012.519231,0.023861,0.001000,0.001000,0.001000,0.001000,0.001000
1012.538462,0.022828,0.001000,0.001000,0.001000,0.001000,0.001000
1012.557692,0.021783,0.001000,0.001000,0.001000,0.001000,0.001000
1012.576923,0.020725,0.001000,0.001000,0.001000,0.001000,0.001000
1012.596154,0.019657,0.001000,0.001000,0.001000,0.001000,0.001000
1012.615385,0.018577,0.001000,0.001000,0.001000,0.001000,0.001000
1012.634615,0.017488,0.001000,0.001000,0.001000,0.001000,0.001000
1012.653846,0.016388,0.001000,0.001000,0.001000,0.001000,0.001000
1012.673077,0.015280,0.001000,0.001000,0.001000,0.001000,0.001000
1012.692308,0.014164,0.001000,0.001000,0.001000,0.001000,0.001000
1012.711538,0.013040,0.001000,0.001000,0.001000,0.001000,0.001000
1012.730769,0.011908,0.001000,0.001000,0.001000,0.001000,0.001000
1012.750000,0.010771,0.001000,0.001000,0.001000,0.001000,0.001000
1012.769231,0.009627,0.001000,0.001000,0.001000,0.001000,0.001000
1012.788462,0.008478,0.001000,0.001000,0.001000,0.001000,0.001000
1012.807692,0.007325,0.001000,0.001000,0.001000,0.001000,0.001000
1012.826923,0.006167,0.001000,0.001000,0.001000,0.001000,0.001000
1012.846154,0.005006,0.001000,0.001000,0.001000,0.001000,0.001000
1012.865385,0.003843,0.001000,0.001000,0.001000,0.001000,0.001000
1012.884615,0.002677,0.001000,0.001000,0.001000,0.001000,0.001000
1012.903846,0.001510,0.001000,0.001000,0.001000,0.001000,0.001000
1012.923077,0.000342,0.001000,0.001000,0.001000,0.001000,0.001000
1012.942308,-0.000827,0.001000,0.001000,0.001000,0.001000,0.001000
1012.961538,-0.001994,0.001000,0.001000,0.001000,0.001000,0.001000
1012.980769,-0.003161,0.001000,0.001000,0.001000,0.001000,0.001000
1013.000000,-0.004326,0.001000,0.001000,0.001000,0.001000,0.001000
1013.019231,-0.005488,0.001000,0.001000,0.001000,0.001000,0.001000
1013.038462,-0.006648,0.001000,0.001000,0.001000,0.001000,0.001000
1013.057692,-0.007804,0.001000,0.001000,0.001000,0.001000,0.001000
1013.076923,-0.008956,0.001000,0.001000,0.001000,0.001000,0.001000
1013.096154,-0.010102,0.001000,0.001000,0.001000,0.001000,0.001000
1013.115385,-0.011244,0.001000,0.001000,0.001000,0.001000,0.001000
1013.134615,-0.012379,0.001000,0.001000,0.001000,0.001000,0.001000
1013.153846,-0.013507,0.001000,0.001000,0.001000,0.001000,0.001000
1013.173077,-0.014628,0.001000,0.001000,0.001000,0.001000,0.001000
1013.192308,-0.015741,0.001000,0.001000,0.001000,0.001000,0.001000
1013.211538,-0.016846,0.001000,0.001000,0.001000,0.001000,0.001000
1013.230769,-0.017941,0.001000,0.001000,0.001000,0.001000,0.001000
1013.250000,-0.019026,0.001000,0.001000,0.001000,0.001000,0.001000
1013.269231,-0.020102,0.001000,0.001000,0.001000,0.001000,0.001000
1013.288462,-0.021166,0.001000,0.001000,0.001000,0.001000,0.001000
1013.307692,-0.022218,0.001000,0.001000,0.001000,0.001000,0.001000
1013.326923,-0.023259,0.001000,0.001000,0.001000,0.001000,0.001000
1013.346154,-0.024286,0.001000,0.001000,0.001000,0.001000,0.001000
1013.365385,-0.025301,0.001000,0.001000,0.001000,0.001000,0.001000
1013.384615,-0.026301,0.001000,0.001000,0.001000,0.001000,0.001000
1013.403846,-0.027288,0.001000,0.001000,0.001000,0.001000,0.001000
1013.423077,-0.028259,0.001000,0.001000,0.001000,0.001000,0.001000
1013.442308,-0.029215,0.001000,0.001000,0.001000,0.001000,0.001000
1013.461538,-0.030155,0.001000,0.001000,0.001000,0.001000,0.001000
1013.480769,-0.031079,0.001000,0.001000,0.001000,0.001000,0.001000
1013.500000,-0.031985,0.001000,0.001000,0.001000,0.001000,0.001000
1013.519231,-0.032874,0.001000,0.001000,0.001000,0.001000,0.001000
1013.538462,-0.033745,0.001000,0.001000,0.001000,0.001000,0.001000
1013.557692,-0.034598,0.001000,0.001000,0.001000,0.001000,0.001000
1013.576923,-0.035432,0.001000,0.001000,0.001000,0.001000,0.001000
1013.596154,-0.036247,0.001000,0.001000,0.001000,0.001000,0.001000
1013.615385,-0.037041,0.001000,0.001000,0.001000,0.001000,0.001000
1013.634615,-0.037816,0.001000,0.001000,0.001000,0.001000,0.001000
1013.653846,-0.038570,0.001000,0.001000,0.001000,0.001000,0.001000
1013.673077,-0.039303,0.001000,0.001000,0.001000,0.001000,0.001000
1013.692308,-0.040014,0.001000,0.001000,0.001000,0.001000,0.001000
1013.711538,-0.040703,0.001000,0.001000,0.001000,0.001000,0.001000
1013.730769,-0.041371,0.001000,0.001000,0.001000,0.001000,0.001000
1013.750000,-0.042015,0.001000,0.001000,0.001000,0.001000,0.001000
1013.769231,-0.042637,0.001000,0.001000,0.001000,0.001000,0.001000
1013.788462,-0.043236,0.001000,0.001000,0.001000,0.001000,0.001000
1013.807692,-0.043811,0.001000,0.001000,0.001000,0.001000,0.001000
1013.826923,-0.044362,0.001000,0.001000,0.001000,0.001000,0.001000
1013.846154,-0.044888,0.001000,0.001000,0.001000,0.001000,0.001000
1013.865385,-0.045391,0.001000,0.001000,0.001000,0.001000,0.001000
1013.884615,-0.045868,0.001000,0.001000,0.001000,0.001000,0.001000
1013.903846,-0.046321,0.001000,0.001000,0.001000,0.001000,0.001000
1013.923077,-0.046748,0.001000,0.001000,0.001000,0.001000,0.001000
1013.942308,-0.047149,0.001000,0.001000,0.001000,0.001000,0.001000
1013.961538,-0.047525,0.001000,0.001000,0.001000,0.001000,0.001000
1013.980769,-0.047875,0.001000,0.001000,0.001000,0.001000,0.001000
1014.000000,-0.048199,0.001000,0.001000,0.001000,0.001000,0.001000
1014.019231,-0.048497,0.001000,0.001000,0.001000,0.001000,0.001000
1014.038462,-0.048768,0.001000,0.001000,0.001000,0.001000,0.001000
1014.057692,-0.049012,0.001000,0.001000,0.001000,0.001000,0.001000
1014.076923,-0.049230,0.001000,0.001000,0.001000,0.001000,0.001000
1014.096154,-0.049421,0.001000,0.001000,0.001000,0.001000,0.001000
1014.115385,-0.049584,0.001000,0.001000,0.001000,0.001000,0.001000
1014.134615,-0.049721,0.001000,0.001000,0.001000,0.001000,0.001000
1014.153846,-0.049831,0.001000,0.001000,0.001000,0.001000,0.001000
1014.173077,-0.049913,0.001000,0.001000,0.001000,0.001000,0.001000
1014.192308,-0.049968,0.001000,0.001000,0.001000,0.001000,0.001000
1014.211538,-0.049996,0.001000,0.001000,0.001000,0.001000,0.001000
1014.230769,-0.049997,0.001000,0.001000,0.001000,0.001000,0.001000
1014.250000,-0.049970,0.001000,0.001000,0.001000,0.001000,0.001000
1014.269231,-0.049916,0.001000,0.001000,0.001000,0.001000,0.001000
1014.288462,-0.049835,0.001000,0.001000,0.001000,0.001000,0.001000
1014.307692,-0.049727,0.001000,0.001000,0.001000,0.001000,0.001000
1014.326923,-0.049591,0.001000,0.001000,0.001000,0.001000,0.001000
1014.346154,-0.049428,0.001000,0.001000,0.001000,0.001000,0.001000
1014.365385,-0.049239,0.001000,0.001000,0.001000,0.001000,0.001000
1014.384615,-0.049022,0.001000,0.001000,0.001000,0.001000,0.001000
1014.403846,-0.048779,0.001000,0.001000,0.001000,0.001000,0.001000
1014.423077,-0.048509,0.001000,0.001000,0.001000,0.001000,0.001000
1014.442308,-0.048213,0.001000,0.001000,0.001000,0.001000,0.001000
1014.461538,-0.047890,0.001000,0.001000,0.001000,0.001000,0.001000
1014.480769,-0.047541,0.001000,0.001000,0.001000,0.001000,0.001000
1014.500000,-0.047166,0.001000,0.001000,0.001000,0.001000,0.001000
1014.519231,-0.046766,0.001000,0.001000,0.001000,0.001000,0.001000
1014.538462,-0.046340,0.001000,0.001000,0.001000,0.001000,0.001000
1014.557692,-0.045888,0.001000,0.001000,0.001000,0.001000,0.001000
1014.576923,-0.045412,0.001000,0.001000,0.001000,0.001000,0.001000
1014.596154,-0.044911,0.001000,0.001000,0.001000,0.001000,0.001000
1014.615385,-0.044385,0.001000,0.001000,0.001000,0.001000,0.001000
1014.634615,-0.043835,0.001000,0.001000,0.001000,0.001000,0.001000
1014.653846,-0.043261,0.001000,0.001000,0.001000,0.001000,0.001000
1014.673077,-0.042664,0.001000,0.001000,0.001000,0.001000,0.001000
1014.692308,-0.042043,0.001000,0.001000,0.001000,0.001000,0.001000
1014.711538,-0.041399,0.001000,0.001000,0.001000,0.001000,0.001000
1014.730769,-0.040733,0.001000,0.001000,0.001000,0.001000,0.001000
1014.750000,-0.040044,0.001000,0.001000,0.001000,0.001000,0.001000
1014.769231,-0.039334,0.001000,0.001000,0.001000,0.001000,0.001000
1014.788462,-0.038602,0.001000,0.001000,0.001000,0.001000,0.001000
1014.807692,-0.037849,0.001000,0.001000,0.001000,0.001000,0.001000
1014.826923,-0.037075,0.001000,0.001000,0.001000,0.001000,0.001000
1014.846154,-0.036281,0.001000,0.001000,0.001000,0.001000,0.001000
1014.865385,-0.035468,0.001000,0.001000,0.001000,0.001000,0.001000
1014.884615,-0.034635,0.001000,0.001000,0.001000,0.001000,0.001000
1014.903846,-0.033783,0.001000,0.001000,0.001000,0.001000,0.001000
1014.923077,-0.032912,0.001000,0.001000,0.001000,0.001000,0.001000
1014.942308,-0.032024,0.001000,0.001000,0.001000,0.001000,0.001000
1014.961538,-0.031118,0.001000,0.001000,0.001000,0.001000,0.001000
1014.980769,-0.030195,0.001000,0.001000,0.001000,0.001000,0.001000
1015.000000,-0.029256,0.001000,0.001000,0.001000,0.001000,0.001000
1015.019231,-0.028301,0.001000,0.001000,0.001000,0.001000,0.001000
1015.038462,-0.027330,0.001000,0.001000,0.001000,0.001000,0.001000
1015.057692,-0.026344,0.001000,0.001000,0.001000,0.001000,0.001000
1015.076923,-0.025344,0.001000,0.001000,0.001000,0.001000,0.001000
1015.096154,-0.024331,0.001000,0.001000,0.001000,0.001000,0.001000
1015.115385,-0.023303,0.001000,0.001000,0.001000,0.001000,0.001000
1015.134615,-0.022264,0.001000,0.001000,0.001000,0.001000,0.001000
1015.153846,-0.021212,0.001000,0.001000,0.001000,0.001000,0.001000
1015.173077,-0.020148,0.001000,0.001000,0.001000,0.001000,0.001000
1015.192308,-0.019073,0.001000,0.001000,0.001000,0.001000,0.001000
1015.211538,-0.017988,0.001000,0.001000,0.001000,0.001000,0.001000
1015.230769,-0.016893,0.001000,0.001000,0.001000,0.001000,0.001000
1015.250000,-0.015789,0.001000,0.001000,0.001000,0.001000,0.001000
1015.269231,-0.014677,0.001000,0.001000,0.001000,0.001000,0.001000
1015.288462,-0.013556,0.001000,0.001000,0.001000,0.001000,0.001000
1015.307692,-0.012428,0.001000,0.001000,0.001000,0.001000,0.001000
1015.326923,-0.011293,0.001000,0.001000,0.001000,0.001000,0.001000
1015.346154,-0.010152,0.001000,0.001000,0.001000,0.001000,0.001000
1015.365385,-0.009006,0.001000,0.001000,0.001000,0.001000,0.001000
1015.384615,-0.007854,0.001000,0.001000,0.001000,0.001000,0.001000
1015.403846,-0.006698,0.001000,0.001000,0.001000,0.001000,0.001000
1015.423077,-0.005539,0.001000,0.001000,0.001000,0.001000,0.001000
1015.442308,-0.004376,0.001000,0.001000,0.001000,0.001000,0.001000
1015.461538,-0.003212,0.001000,0.001000,0.001000,0.001000,0.001000
1015.480769,-0.002045,0.001000,0.001000,0.001000,0.001000,0.001000
1015.500000,-0.000877,0.001000,0.001000,0.001000,0.001000,0.001000
1015.519231,0.000291,0.001000,0.001000,0.001000,0.001000,0.001000
1015.538462,0.001459,0.001000,0.001000,0.001000,0.001000,0.001000
1015.557692,0.002626,0.001000,0.001000,0.001000,0.001000,0.001000
1015.576923,0.003792,0.001000,0.001000,0.001000,0.001000,0.001000
1015.596154,0.004956,0.001000,0.001000,0.001000,0.001000,0.001000
1015.615385,0.006117,0.001000,0.001000,0.001000,0.001000,0.001000
1015.634615,0.007274,0.001000,0.001000,0.001000,0.001000,0.001000
1015.653846,0.008428,0.001000,0.001000,0.001000,0.001000,0.001000
1015.673077,0.009577,0.001000,0.001000,0.001000,0.001000,0.001000
1015.692308,0.010721,0.001000,0.001000,0.001000,0.001000,0.001000
1015.711538,0.011859,0.001000,0.001000,0.001000,0.001000,0.001000
1015.730769,0.012991,0.001000,0.001000,0.001000,0.001000,0.001000
1015.750000,0.014115,0.001000,0.001000,0.001000,0.001000,0.001000
1015.769231,0.015232,0.001000,0.001000,0.001000,0.001000,0.001000
1015.788462,0.016340,0.001000,0.001000,0.001000,0.001000,0.001000
1015.807692,0.017440,0.001000,0.001000,0.001000,0.001000,0.001000
1015.826923,0.018530,0.001000,0.001000,0.001000,0.001000,0.001000
1015.846154,0.019610,0.001000,0.001000,0.001000,0.001000,0.001000
1015.865385,0.020679,0.001000,0.001000,0.001000,0.001000,0.001000
1015.884615,0.021737,0.001000,0.001000,0.001000,0.001000,0.001000
1015.903846,0.022783,0.001000,0.001000,0.001000,0.001000,0.001000
1015.923077,0.023817,0.001000,0.001000,0.001000,0.001000,0.001000
1015.942308,0.024837,0.001000,0.001000,0.001000,0.001000,0.001000
1015.961538,0.025844,0.001000,0.001000,0.001000,0.001000,0.001000
1015.980769,0.026837,0.001000,0.001000,0.001000,0.001000,0.001000
1016.000000,0.027816,0.001000,0.001000,0.001000,0.001000,0.001000
1016.019231,0.028779,0.001000,0.001000,0.001000,0.001000,0.001000
1016.038462,0.029726,0.001000,0.001000,0.001000,0.001000,0.001000
1016.057692,0.030657,0.001000,0.001000,0.001000,0.001000,0.001000
1016.076923,0.031572,0.001000,0.001000,0.001000,0.001000,0.001000
1016.096154,0.032469,0.001000,0.001000,0.001000,0.001000,0.001000
1016.115385,0.033348,0.001000,0.001000,0.001000,0.001000,0.001000
1016.134615,0.034209,0.001000,0.001000,0.001000,0.001000,0.001000
1016.153846,0.035052,0.001000,0.001000,0.001000,0.001000,0.001000
1016.173077,0.035876,0.001000,0.001000,0.001000,0.001000,0.001000
1016.192308,0.036679,0.001000,0.001000,0.001000,0.001000,0.001000
1016.211538,0.037463,0.001000,0.001000,0.001000,0.001000,0.001000
1016.230769,0.038227,0.001000,0.001000,0.001000,0.001000,0.001000
1016.250000,0.038969,0.001000,0.001000,0.001000,0.001000,0.001000
1016.269231,0.039690,0.001000,0.001000,0.001000,0.001000,0.001000
1016.288462,0.040390,0.001000,0.001000,0.001000,0.001000,0.001000
1016.307692,0.041068,0.001000,0.001000,0.001000,0.001000,0.001000
1016.326923,0.041723,0.001000,0.001000,0.001000,0.001000,0.001000
1016.346154,0.042355,0.001000,0.001000,0.001000,0.001000,0.001000
1016.365385,0.042964,0.001000,0.001000,0.001000,0.001000,0.001000
1016.384615,0.043550,0.001000,0.001000,0.001000,0.001000,0.001000
1016.403846,0.044112,0.001000,0.001000,0.001000,0.001000,0.001000
1016.423077,0.044650,0.001000,0.001000,0.001000,0.001000,0.001000
1016.442308,0.045163,0.001000,0.001000,0.001000,0.001000,0.001000
1016.461538,0.045652,0.001000,0.001000,0.001000,0.001000,0.001000
1016.480769,0.046116,0.001000,0.001000,0.001000,0.001000,0.001000
1016.500000,0.046555,0.001000,0.001000,0.001000,0.001000,0.001000
1016.519231,0.046968,0.001000,0.001000,0.001000,0.001000,0.001000
1016.538462,0.047356,0.001000,0.001000,0.001000,0.001000,0.001000
1016.557692,0.047718,0.001000,0.001000,0.001000,0.001000,0.001000
1016.576923,0.048054,0.001000,0.001000,0.001000,0.001000,0.001000
1016.596154,0.048364,0.001000,0.001000,0.001000,0.001000,0.001000
1016.615385,0.048647,0.001000,0.001000,0.001000,0.001000,0.001000
1016.634615,0.048903,0.001000,0.001000,0.001000,0.001000,0.001000
1016.653846,0.049133,0.001000,0.001000,0.001000,0.001000,0.001000
1016.673077,0.049337,0.001000,0.001000,0.001000,0.001000,0.001000
1016.692308,0.049513,0.001000,0.001000,0.001000,0.001000,0.001000
1016.711538,0.049662,0.001000,0.001000,0.001000,0.001000,0.001000
1016.730769,0.049784,0.001000,0.001000,0.001000,0.001000,0.001000
1016.750000,0.049879,0.001000,0.001000,0.001000,0.001000,0.001000
1016.769231,0.049946,0.001000,0.001000,0.001000,0.001000,0.001000
1016.788462,0.049987,0.001000,0.001000,0.001000,0.001000,0.001000
1016.807692,0.050000,0.001000,0.001000,0.001000,0.001000,0.001000
1016.826923,0.049986,0.001000,0.001000,0.001000,0.001000,0.001000
1016.846154,0.049944,0.001000,0.001000,0.001000,0.001000,0.001000
1016.865385,0.049876,0.001000,0.001000,0.001000,0.001000,0.001000
1016.884615,0.049780,0.001000,0.001000,0.001000,0.001000,0.001000
1016.903846,0.049656,0.001000,0.001000,0.001000,0.001000,0.001000
1016.923077,0.049506,0.001000,0.001000,0.001000,0.001000,0.001000
1016.942308,0.049329,0.001000,0.001000,0.001000,0.001000,0.001000
1016.961538,0.049125,0.001000,0.001000,0.001000,0.001000,0.001000
1016.980769,0.048894,0.001000,0.001000,0.001000,0.001000,0.001000
1017.000000,0.048636,0.001000,0.001000,0.001000,0.001000,0.001000
1017.019231,0.048352,0.001000,0.001000,0.001000,0.001000,0.001000
1017.038462,0.048041,0.001000,0.001000,0.001000,0.001000,0.001000
1017.057692,0.047704,0.001000,0.001000,0.001000,0.001000,0.001000
1017.076923,0.047341,0.001000,0.001000,0.001000,0.001000,0.001000
1017.096154,0.046953,0.001000,0.001000,0.001000,0.001000,0.001000
1017.115385,0.046538,0.001000,0.001000,0.001000,0.001000,0.001000
1017.134615,0.046098,0.001000,0.001000,0.001000,0.001000,0.001000
1017.153846,0.045633,0.001000,0.001000,0.001000,0.001000,0.001000
1017.173077,0.045144,0.001000,0.001000,0.001000,0.001000,0.001000
1017.192308,0.044629,0.001000,0.001000,0.001000,0.001000,0.001000
1017.211538,0.044090,0.001000,0.001000,0.001000,0.001000,0.001000
1017.230769,0.043527,0.001000,0.001000,0.001000,0.001000,0.001000
1017.250000,0.042941,0.001000,0.001000,0.001000,0.001000,0.001000
1017.269231,0.042330,0.001000,0.001000,0.001000,0.001000,0.001000
1017.288462,0.041697,0.001000,0.001000,0.001000,0.001000,0.001000
1017.307692,0.041041,0.001000,0.001000,0.001000,0.001000,0.001000
1017.326923,0.040363,0.001000,0.001000,0.001000,0.001000,0.001000
1017.346154,0.039662,0.001000,0.001000,0.001000,0.001000,0.001000
1017.365385,0.038940,0.001000,0.001000,0.001000,0.001000,0.001000
1017.384615,0.038197,0.001000,0.001000,0.001000,0.001000,0.001000
1017.403846,0.037433,0.001000,0.001000,0.001000,0.001000,0.001000
1017.423077,0.036648,0.001000,0.001000,0.001000,0.001000,0.001000
1017.442308,0.035843,0.001000,0.001000,0.001000,0.001000,0.001000
1017.461538,0.035019,0.001000,0.001000,0.001000,0.001000,0.001000
1017.480769,0.034176,0.001000,0.001000,0.001000,0.001000,0.001000
1017.500000,0.033314,0.001000,0.001000,0.001000,0.001000,0.001000
1017.519231,0.032434,0.001000,0.001000,0.001000,0.001000,0.001000
1017.538462,0.031536,0.001000,0.001000,0.001000,0.001000,0.001000
1017.557692,0.030621,0.001000,0.001000,0.001000,0.001000,0.001000
1017.576923,0.029689,0.001000,0.001000,0.001000,0.001000,0.001000
1017.596154,0.028741,0.001000,0.001000,0.001000,0.001000,0.001000
1017.615385,0.027777,0.001000,0.001000,0.001000,0.001000,0.001000
1017.634615,0.026798,0.001000,0.001000,0.001000,0.001000,0.001000
1017.653846,0.025805,0.001000,0.001000,0.001000,0.001000,0.001000
1017.673077,0.024797,0.001000,0.001000,0.001000,0.001000,0.001000
1017.692308,0.023776,0.001000,0.001000,0.001000,0.001000,0.001000
1017.711538,0.022742,0.001000,0.001000,0.001000,0.001000,0.001000
1017.730769,0.021695,0.001000,0.001000,0.001000,0.001000,0.001000
1017.750000,0.020637,0.001000,0.001000,0.001000,0.001000,0.001000
1017.769231,0.019567,0.001000,0.001000,0.001000,0.001000,0.001000
1017.788462,0.018487,0.001000,0.001000,0.001000,0.001000,0.001000
1017.807692,0.017397,0.001000,0.001000,0.001000,0.001000,0.001000
1017.826923,0.016297,0.001000,0.001000,0.001000,0.001000,0.001000
1017.846154,0.015188,0.001000,0.001000,0.001000,0.001000,0.001000
1017.865385,0.014071,0.001000,0.001000,0.001000,0.001000,0.001000
1017.884615,0.012946,0.001000,0.001000,0.001000,0.001000,0.001000
1017.903846,0.011814,0.001000,0.001000,0.001000,0.001000,0.001000
1017.923077,0.010676,0.001000,0.001000,0.001000,0.001000,0.001000
1017.942308,0.009532,0.001000,0.001000,0.001000,0.001000,0.001000
1017.961538,0.008383,0.001000,0.001000,0.001000,0.001000,0.001000
1017.980769,0.007229,0.001000,0.001000,0.001000,0.001000,0.001000
1018.000000,0.006071,0.001000,0.001000,0.001000,0.001000,0.001000
1018.019231,0.004910,0.001000,0.001000,0.001000,0.001000,0.001000
1018.038462,0.003746,0.001000,0.001000,0.001000,0.001000,0.001000
1018.057692,0.002580,0.001000,0.001000,0.001000,0.001000,0.001000
1018.076923,0.001413,0.001000,0.001000,0.001000,0.001000,0.001000
1018.096154,0.000245,0.001000,0.001000,0.001000,0.001000,0.001000
1018.115385,-0.000924,0.001000,0.001000,0.001000,0.001000,0.001000
1018.134615,-0.002091,0.001000,0.001000,0.001000,0.001000,0.001000
1018.153846,-0.003258,0.001000,0.001000,0.001000,0.001000,0.001000
1018.173077,-0.004423,0.001000,0.001000,0.001000,0.001000,0.001000
1018.192308,-0.005585,0.001000,0.001000,0.001000,0.001000,0.001000
1018.211538,-0.006744,0.001000,0.001000,0.001000,0.001000,0.001000
1018.230769,-0.007900,0.001000,0.001000,0.001000,0.001000,0.001000
1018.250000,-0.009051,0.001000,0.001000,0.001000,0.001000,0.001000
1018.269231,-0.010197,0.001000,0.001000,0.001000,0.001000,0.001000
1018.288462,-0.011338,0.001000,0.001000,0.001000,0.001000,0.001000
1018.307692,-0.012473,0.001000,0.001000,0.001000,0.001000,0.001000
1018.326923,-0.013601,0.001000,0.001000,0.001000,0.001000,0.001000
1018.346154,-0.014721,0.001000,0.001000,0.001000,0.001000,0.001000
1018.365385,-0.015833,0.001000,0.001000,0.001000,0.001000,0.001000
1018.384615,-0.016937,0.001000,0.001000,0.001000,0.001000,0.001000
1018.403846,-0.018031,0.001000,0.001000,0.001000,0.001000,0.001000
1018.423077,-0.019116,0.001000,0.001000,0.001000,0.001000,0.001000
1018.442308,-0.020190,0.001000,0.001000,0.001000,0.001000,0.001000
1018.461538,-0.021253,0.001000,0.001000,0.001000,0.001000,0.001000
1018.480769,-0.022305,0.001000,0.001000,0.001000,0.001000,0.001000
1018.500000,-0.023344,0.001000,0.001000,0.001000,0.001000,0.001000
1018.519231,-0.024371,0.001000,0.001000,0.001000,0.001000,0.001000
1018.538462,-0.025384,0.001000,0.001000,0.001000,0.001000,0.001000
1018.557692,-0.026384,0.001000,0.001000,0.001000,0.001000,0.001000
1018.576923,-0.027369,0.001000,0.001000,0.001000,0.001000,0.001000
1018.596154,-0.028339,0.001000,0.001000,0.001000,0.001000,0.001000
1018.615385,-0.029294,0.001000,0.001000,0.001000,0.001000,0.001000
1018.634615,-0.030232,0.001000,0.001000,0.001000,0.001000,0.001000
1018.653846,-0.031154,0.001000,0.001000,0.001000,0.001000,0.001000
1018.673077,-0.032060,0.001000,0.001000,0.001000,0.001000,0.001000
1018.692308,-0.032947,0.001000,0.001000,0.001000,0.001000,0.001000
1018.711538,-0.033817,0.001000,0.001000,0.001000,0.001000,0.001000
1018.730769,-0.034668,0.001000,0.001000,0.001000,0.001000,0.001000
1018.750000,-0.035500,0.001000,0.001000,0.001000,0.001000,0.001000
1018.769231,-0.036313,0.001000,0.001000,0.001000,0.001000,0.001000
1018.788462,-0.037106,0.001000,0.001000,0.001000,0.001000,0.001000
1018.807692,-0.037879,0.001000,0.001000,0.001000,0.001000,0.001000
1018.826923,-0.038631,0.001000,0.001000,0.001000,0.001000,0.001000
1018.846154,-0.039362,0.001000,0.001000,0.001000,0.001000,0.001000
1018.865385,-0.040072,0.001000,0.001000,0.001000,0.001000,0.001000
1018.884615,-0.040760,0.001000,0.001000,0.001000,0.001000,0.001000
1018.903846,-0.041425,0.001000,0.001000,0.001000,0.001000,0.001000
1018.923077,-0.042068,0.001000,0.001000,0.001000,0.001000,0.001000
1018.942308,-0.042688,0.001000,0.001000,0.001000,0.001000,0.001000
1018.961538,-0.043284,0.001000,0.001000,0.001000,0.001000,0.001000
1018.980769,-0.043857,0.001000,0.001000,0.001000,0.001000,0.001000
1019.000000,-0.044406,0.001000,0.001000,0.001000,0.001000,0.001000
1019.019231,-0.044931,0.001000,0.001000,0.001000,0.001000,0.001000
1019.038462,-0.045431,0.001000,0.001000,0.001000,0.001000,0.001000
1019.057692,-0.045907,0.001000,0.001000,0.001000,0.001000,0.001000
1019.076923,-0.046357,0.001000,0.001000,0.001000,0.001000,0.001000
1019.096154,-0.046782,0.001000,0.001000,0.001000,0.001000,0.001000
1019.115385,-0.047182,0.001000,0.001000,0.001000,0.001000,0.001000
1019.134615,-0.047555,0.001000,0.001000,0.001000,0.001000,0.001000
1019.153846,-0.047903,0.001000,0.001000,0.001000,0.001000,0.001000
1019.173077,-0.048225,0.001000,0.001000,0.001000,0.001000,0.001000
1019.192308,-0.048520,0.001000,0.001000,0.001000,0.001000,0.001000
1019.211538,-0.048789,0.001000,0.001000,0.001000,0.001000,0.001000
1019.230769,-0.049031,0.001000,0.001000,0.001000,0.001000,0.001000
1019.250000,-0.049247,0.001000,0.001000,0.001000,0.001000,0.001000
1019.269231,-0.049435,0.001000,0.001000,0.001000,0.001000,0.001000
1019.288462,-0.049597,0.001000,0.001000,0.001000,0.001000,0.001000
1019.307692,-0.049731,0.001000,0.001000,0.001000,0.001000,0.001000
1019.326923,-0.049839,0.001000,0.001000,0.001000,0.001000,0.001000
1019.346154,-0.049919,0.001000,0.001000,0.001000,0.001000,0.001000
1019.365385,-0.049972,0.001000,0.001000,0.001000,0.001000,0.001000
1019.384615,-0.049997,0.001000,0.001000,0.001000,0.001000,0.001000
1019.403846,-0.049996,0.001000,0.001000,0.001000,0.001000,0.001000
1019.423077,-0.049967,0.001000,0.001000,0.001000,0.001000,0.001000
1019.442308,-0.049910,0.001000,0.001000,0.001000,0.001000,0.001000
1019.461538,-0.049827,0.001000,0.001000,0.001000,0.001000,0.001000
1019.480769,-0.049716,0.001000,0.001000,0.001000,0.001000,0.001000
1019.500000,-0.049578,0.001000,0.001000,0.001000,0.001000,0.001000
1019.519231,-0.049414,0.001000,0.001000,0.001000,0.001000,0.001000
1019.538462,-0.049222,0.001000,0.001000,0.001000,0.001000,0.001000
1019.557692,-0.049003,0.001000,0.001000,0.001000,0.001000,0.001000
1019.576923,-0.048758,0.001000,0.001000,0.001000,0.001000,0.001000
1019.596154,-0.048485,0.001000,0.001000,0.001000,0.001000,0.001000
1019.615385,-0.048187,0.001000,0.001000,0.001000,0.001000,0.001000
1019.634615,-0.047862,0.001000,0.001000,0.001000,0.001000,0.001000
1019.653846,-0.047511,0.001000,0.001000,0.001000,0.001000,0.001000
1019.673077,-0.047134,0.001000,0.001000,0.001000,0.001000,0.001000
1019.692308,-0.046731,0.001000,0.001000,0.001000,0.001000,0.001000
1019.711538,-0.046303,0.001000,0.001000,0.001000,0.001000,0.001000
1019.730769,-0.045850,0.001000,0.001000,0.001000,0.001000,0.001000
1019.750000,-0.045371,0.001000,0.001000,0.001000,0.001000,0.001000
1019.769231,-0.044868,0.001000,0.001000,0.001000,0.001000,0.001000
1019.788462,-0.044340,0.001000,0.001000,0.001000,0.001000,0.001000
1019.807692,-0.043788,0.001000,0.001000,0.001000,0.001000,0.001000
1019.826923,-0.043212,0.001000,0.001000,0.001000,0.001000,0.001000
1019.846154,-0.042613,0.001000,0.001000,0.001000,0.001000,0.001000
1019.865385,-0.041990,0.001000,0.001000,0.001000,0.001000,0.001000
1019.884615,-0.041345,0.001000,0.001000,0.001000,0.001000,0.001000
1019.903846,-0.040677,0.001000,0.001000,0.001000,0.001000,0.001000
1019.923077,-0.039986,0.001000,0.001000,0.001000,0.001000,0.001000
1019.942308,-0.039274,0.001000,0.001000,0.001000,0.001000,0.001000
1019.961538,-0.038540,0.001000,0.001000,0.001000,0.001000,0.001000
1019.980769,-0.037786,0.001000,0.001000,0.001000,0.001000,0.001000
1020.000000,-0.037010,0.001000,0.001000,0.001000,0.001000,0.001000
1020.019231,-0.036215,0.001000,0.001000,0.001000,0.001000,0.001000
1020.038462,-0.035399,0.001000,0.001000,0.001000,0.001000,0.001000
1020.057692,-0.034565,0.001000,0.001000,0.001000,0.001000,0.001000
1020.076923,-0.033711,0.001000,0.001000,0.001000,0.001000,0.001000
1020.096154,-0.032839,0.001000,0.001000,0.001000,0.001000,0.001000
1020.115385,-0.031949,0.001000,0.001000,0.001000,0.001000,0.001000
1020.134615,-0.031042,0.001000,0.001000,0.001000,0.001000,0.001000
1020.153846,-0.030118,0.001000,0.001000,0.001000,0.001000,0.001000
1020.173077,-0.029177,0.001000,0.001000,0.001000,0.001000,0.001000
1020.192308,-0.028221,0.001000,0.001000,0.001000,0.001000,0.001000
1020.211538,-0.027249,0.001000,0.001000,0.001000,0.001000,0.001000
1020.230769,-0.026262,0.001000,0.001000,0.001000,0.001000,0.001000
1020.250000,-0.025261,0.001000,0.001000,0.001000,0.001000,0.001000
1020.269231,-0.024246,0.001000,0.001000,0.001000,0.001000,0.001000
1020.288462,-0.023218,0.001000,0.001000,0.001000,0.001000,0.001000
1020.307692,-0.022177,0.001000,0.001000,0.001000,0.001000,0.001000
1020.326923,-0.021124,0.001000,0.001000,0.001000,0.001000,0.001000
1020.346154,-0.020059,0.001000,0.001000,0.001000,0.001000,0.001000
1020.365385,-0.018984,0.001000,0.001000,0.001000,0.001000,0.001000
1020.384615,-0.017898,0.001000,0.001000,0.001000,0.001000,0.001000
1020.403846,-0.016802,0.001000,0.001000,0.001000,0.001000,0.001000
1020.423077,-0.015697,0.001000,0.001000,0.001000,0.001000,0.001000
1020.442308,-0.014584,0.001000,0.001000,0.001000,0.001000,0.001000
1020.461538,-0.013463,0.001000,0.001000,0.001000,0.001000,0.001000
1020.480769,-0.012334,0.001000,0.001000,0.001000,0.001000,0.001000
1020.500000,-0.011199,0.001000,0.001000,0.001000,0.001000,0.001000
1020.519231,-0.010057,0.001000,0.001000,0.001000,0.001000,0.001000
1020.538462,-0.008910,0.001000,0.001000,0.001000,0.001000,0.001000
1020.557692,-0.007758,0.001000,0.001000,0.001000,0.001000,0.001000
1020.576923,-0.006602,0.001000,0.001000,0.001000,0.001000,0.001000
1020.596154,-0.005442,0.001000,0.001000,0.001000,0.001000,0.001000
1020.615385,-0.004280,0.001000,0.001000,0.001000,0.001000,0.001000
1020.634615,-0.003115,0.001000,0.001000,0.001000,0.001000,0.001000
1020.653846,-0.001948,0.001000,0.001000,0.001000,0.001000,0.001000
1020.673077,-0.000780,0.001000,0.001000,0.001000,0.001000,0.001000
1020.692308,0.000388,0.001000,0.001000,0.001000,0.001000,0.001000
1020.711538,0.001556,0.001000,0.001000,0.001000,0.001000,0.001000
1020.730769,0.002723,0.001000,0.001000,0.001000,0.001000,0.001000
1020.750000,0.003889,0.001000,0.001000,0.001000,0.001000,0.001000
1020.769231,0.005052,0.001000,0.001000,0.001000,0.001000,0.001000
1020.788462,0.006213,0.001000,0.001000,0.001000,0.001000,0.001000
1020.807692,0.007370,0.001000,0.001000,0.001000,0.001000,0.001000
1020.826923,0.008524,0.001000,0.001000,0.001000,0.001000,0.001000
1020.846154,0.009672,0.001000,0.001000,0.001000,0.001000,0.001000
1020.865385,0.010816,0.001000,0.001000,0.001000,0.001000,0.001000
1020.884615,0.011953,0.001000,0.001000,0.001000,0.001000,0.001000
1020.903846,0.013084,0.001000,0.001000,0.001000,0.001000,0.001000
1020.923077,0.014208,0.001000,0.001000,0.001000,0.001000,0.001000
1020.942308,0.015324,0.001000,0.001000,0.001000,0.001000,0.001000
1020.961538,0.016432,0.001000,0.001000,0.001000,0.001000,0.001000
1020.980769,0.017531,0.001000,0.001000,0.001000,0.001000,0.001000
1021.000000,0.018620,0.001000,0.001000,0.001000,0.001000,0.001000
1021.019231,0.019699,0.001000,0.001000,0.001000,0.001000,0.001000
1021.038462,0.020767,0.001000,0.001000,0.001000,0.001000,0.001000
1021.057692,0.021824,0.001000,0.001000,0.001000,0.001000,0.001000
1021.076923,0.022869,0.001000,0.001000,0.001000,0.001000,0.001000
1021.096154,0.023902,0.001000,0.001000,0.001000,0.001000,0.001000
1021.115385,0.024921,0.001000,0.001000,0.001000,0.001000,0.001000
1021.134615,0.025927,0.001000,0.001000,0.001000,0.001000,0.001000
1021.153846,0.026919,0.001000,0.001000,0.001000,0.001000,0.001000
1021.173077,0.027896,0.001000,0.001000,0.001000,0.001000,0.001000
1021.192308,0.028858,0.001000,0.001000,0.001000,0.001000,0.001000
1021.211538,0.029804,0.001000,0.001000,0.001000,0.001000,0.001000
1021.230769,0.030734,0.001000,0.001000,0.001000,0.001000,0.001000
1021.250000,0.031647,0.001000,0.001000,0.001000,0.001000,0.001000
1021.269231,0.032542,0.001000,0.001000,0.001000,0.001000,0.001000
1021.288462,0.033420,0.001000,0.001000,0.001000,0.001000,0.001000
1021.307692,0.034280,0.001000,0.001000,0.001000,0.001000,0.001000
1021.326923,0.035121,0.001000,0.001000,0.001000,0.001000,0.001000
1021.346154,0.035943,0.001000,0.001000,0.001000,0.001000,0.001000
1021.365385,0.036745,0.001000,0.001000,0.001000,0.001000,0.001000
1021.384615,0.037527,0.001000,0.001000,0.001000,0.001000,0.001000
1021.403846,0.038289,0.001000,0.001000,0.001000,0.001000,0.001000
1021.423077,0.039030,0.001000,0.001000,0.001000,0.001000,0.001000
1021.442308,0.039749,0.001000,0.001000,0.001000,0.001000,0.001000
1021.461538,0.040447,0.001000,0.001000,0.001000,0.001000,0.001000
1021.480769,0.041123,0.001000,0.001000,0.001000,0.001000,0.001000
1021.500000,0.041776,0.001000,0.001000,0.001000,0.001000,0.001000
1021.519231,0.042406,0.001000,0.001000,0.001000,0.001000,0.001000
1021.538462,0.043014,0.001000,0.001000,0.001000,0.001000,0.001000
1021.557692,0.043598,0.001000,0.001000,0.001000,0.001000,0.001000
1021.576923,0.044158,0.001000,0.001000,0.001000,0.001000,0.001000
1021.596154,0.044693,0.001000,0.001000,0.001000,0.001000,0.001000
1021.615385,0.045205,0.001000,0.001000,0.001000,0.001000,0.001000
1021.634615,0.045692,0.001000,0.001000,0.001000,0.001000,0.001000
1021.653846,0.046154,0.001000,0.001000,0.001000,0.001000,0.001000
1021.673077,0.046590,0.001000,0.001000,0.001000,0.001000,0.001000
1021.692308,0.047002,0.001000,0.001000,0.001000,0.001000,0.001000
1021.711538,0.047387,0.001000,0.001000,0.001000,0.001000,0.001000
1021.730769,0.047747,0.001000,0.001000,0.001000,0.001000,0.001000
1021.750000,0.048081,0.001000,0.001000,0.001000,0.001000,0.001000
1021.769231,0.048388,0.001000,0.001000,0.001000,0.001000,0.001000
1021.788462,0.048669,0.001000,0.001000,0.001000,0.001000,0.001000
1021.807692,0.048924,0.001000,0.001000,0.001000,0.001000,0.001000
1021.826923,0.049151,0.001000,0.001000,0.001000,0.001000,0.001000
1021.846154,0.049352,0.001000,0.001000,0.001000,0.001000,0.001000
1021.865385,0.049526,0.001000,0.001000,0.001000,0.001000,0.001000
1021.884615,0.049673,0.001000,0.001000,0.001000,0.001000,0.001000
1021.903846,0.049793,0.001000,0.001000,0.001000,0.001000,0.001000
1021.923077,0.049885,0.001000,0.001000,0.001000,0.001000,0.001000
1021.942308,0.049951,0.001000,0.001000,0.001000,0.001000,0.001000
1021.961538,0.049989,0.001000,0.001000,0.001000,0.001000,0.001000
1021.980769,0.050000,0.001000,0.001000,0.001000,0.001000,0.001000
1022.000000,0.049983,0.001000,0.001000,0.001000,0.001000,0.001000
1022.019231,0.049940,0.001000,0.001000,0.001000,0.001000,0.001000
1022.038462,0.049869,0.001000,0.001000,0.001000,0.001000,0.001000
1022.057692,0.049770,0.001000,0.001000,0.001000,0.001000,0.001000
1022.076923,0.049645,0.001000,0.001000,0.001000,0.001000,0.001000
1022.096154,0.049493,0.001000,0.001000,0.001000,0.001000,0.001000
1022.115385,0.049313,0.001000,0.001000,0.001000,0.001000,0.001000
1022.134615,0.049107,0.001000,0.001000,0.001000,0.001000,0.001000
1022.153846,0.048873,0.001000,0.001000,0.001000,0.001000,0.001000
1022.173077,0.048613,0.001000,0.001000,0.001000,0.001000,0.001000
1022.192308,0.048327,0.001000,0.001000,0.001000,0.001000,0.001000
1022.211538,0.048014,0.001000,0.001000,0.001000,0.001000,0.001000
1022.230769,0.047675,0.001000,0.001000,0.001000,0.001000,0.001000
1022.250000,0.047310,0.001000,0.001000,0.001000,0.001000,0.001000
1022.269231,0.046919,0.001000,0.001000,0.001000,0.001000,0.001000
1022.288462,0.046503,0.001000,0.001000,0.001000,0.001000,0.001000
1022.307692,0.046061,0.001000,0.001000,0.001000,0.001000,0.001000
1022.326923,0.045594,0.001000,0.001000,0.001000,0.001000,0.001000
1022.346154,0.045102,0.001000,0.001000,0.001000,0.001000,0.001000
1022.365385,0.044585,0.001000,0.001000,0.001000,0.001000,0.001000
1022.384615,0.044044,0.001000,0.001000,0.001000,0.001000,0.001000
1022.403846,0.043479,0.001000,0.001000,0.001000,0.001000,0.001000
1022.423077,0.042891,0.001000,0.001000,0.001000,0.001000,0.001000
1022.442308,0.042279,0.001000,0.001000,0.001000,0.001000,0.001000
1022.461538,0.041644,0.001000,0.001000,0.001000,0.001000,0.001000
1022.480769,0.040986,0.001000,0.001000,0.001000,0.001000,0.001000
1022.500000,0.040305,0.001000,0.001000,0.001000,0.001000,0.001000
1022.519231,0.039603,0.001000,0.001000,0.001000,0.001000,0.001000
1022.538462,0.038879,0.001000,0.001000,0.001000,0.001000,0.001000
1022.557692,0.038134,0.001000,0.001000,0.001000,0.001000,0.001000
1022.576923,0.037368,0.001000,0.001000,0.001000,0.001000,0.001000
1022.596154,0.036582,0.001000,0.001000,0.001000,0.001000,0.001000
1022.615385,0.035776,0.001000,0.001000,0.001000,0.001000,0.001000
1022.634615,0.034950,0.001000,0.001000,0.001000,0.001000,0.001000
1022.653846,0.034105,0.001000,0.001000,0.001000,0.001000,0.001000
1022.673077,0.033241,0.001000,0.001000,0.001000,0.001000,0.001000
1022.692308,0.032360,0.001000,0.001000,0.001000,0.001000,0.001000
1022.711538,0.031460,0.001000,0.001000,0.001000,0.001000,0.001000
1022.730769,0.030544,0.001000,0.001000,0.001000,0.001000,0.001000
1022.750000,0.029611,0.001000,0.001000,0.001000,0.001000,0.001000
1022.769231,0.028661,0.001000,0.001000,0.001000,0.001000,0.001000
1022.788462,0.027696,0.001000,0.001000,0.001000,0.001000,0.001000
1022.807692,0.026716,0.001000,0.001000,0.001000,0.001000,0.001000
1022.826923,0.025722,0.001000,0.001000,0.001000,0.001000,0.001000
1022.846154,0.024713,0.001000,0.001000,0.001000,0.001000,0.001000
1022.865385,0.023691,0.001000,0.001000,0.001000,0.001000,0.001000
1022.884615,0.022655,0.001000,0.001000,0.001000,0.001000,0.001000
1022.903846,0.021608,0.001000,0.001000,0.001000,0.001000,0.001000
1022.923077,0.020549,0.001000,0.001000,0.001000,0.001000,0.001000
1022.942308,0.019478,0.001000,0.001000,0.001000,0.001000,0.001000
1022.961538,0.018397,0.001000,0.001000,0.001000,0.001000,0.001000
1022.980769,0.017306,0.001000,0.001000,0.001000,0.001000,0.001000
1023.000000,0.016205,0.001000,0.001000,0.001000,0.001000,0.001000
1023.019231,0.015096,0.001000,0.001000,0.001000,0.001000,0.001000
1023.038462,0.013978,0.001000,0.001000,0.001000,0.001000,0.001000
1023.057692,0.012852,0.001000,0.001000,0.001000,0.001000,0.001000
1023.076923,0.011720,0.001000,0.001000,0.001000,0.001000,0.001000
1023.096154,0.010581,0.001000,0.001000,0.001000,0.001000,0.001000
1023.115385,0.009437,0.001000,0.001000,0.001000,0.001000,0.001000
1023.134615,0.008287,0.001000,0.001000,0.001000,0.001000,0.001000
1023.153846,0.007133,0.001000,0.001000,0.001000,0.001000,0.001000
1023.173077,0.005975,0.001000,0.001000,0.001000,0.001000,0.001000
1023.192308,0.004813,0.001000,0.001000,0.001000,0.001000,0.001000
1023.211538,0.003649,0.001000,0.001000,0.001000,0.001000,0.001000
1023.230769,0.002483,0.001000,0.001000,0.001000,0.001000,0.001000
1023.250000,0.001316,0.001000,0.001000,0.001000,0.001000,0.001000
1023.269231,0.000148,0.001000,0.001000,0.001000,0.001000,0.001000
1023.288462,-0.001020,0.001000,0.001000,0.001000,0.001000,0.001000
1023.307692,-0.002188,0.001000,0.001000,0.001000,0.001000,0.001000
1023.326923,-0.003355,0.001000,0.001000,0.001000,0.001000,0.001000
1023.346154,-0.004519,0.001000,0.001000,0.001000,0.001000,0.001000
1023.365385,-0.005681,0.001000,0.001000,0.001000,0.001000,0.001000
1023.384615,-0.006840,0.001000,0.001000,0.001000,0.001000,0.001000
1023.403846,-0.007996,0.001000,0.001000,0.001000,0.001000,0.001000
1023.423077,-0.009146,0.001000,0.001000,0.001000,0.001000,0.001000
1023.442308,-0.010292,0.001000,0.001000,0.001000,0.001000,0.001000
1023.461538,-0.011433,0.001000,0.001000,0.001000,0.001000,0.001000
1023.480769,-0.012567,0.001000,0.001000,0.001000,0.001000,0.001000
1023.500000,-0.013694,0.001000,0.001000,0.001000,0.001000,0.001000
1023.519231,-0.014814,0.001000,0.001000,0.001000,0.001000,0.001000
1023.538462,-0.015925,0.001000,0.001000,0.001000,0.001000,0.001000
1023.557692,-0.017028,0.001000,0.001000,0.001000,0.001000,0.001000
1023.576923,-0.018122,0.001000,0.001000,0.001000,0.001000,0.001000
1023.596154,-0.019206,0.001000,0.001000,0.001000,0.001000,0.001000
1023.615385,-0.020279,0.001000,0.001000,0.001000,0.001000,0.001000
1023.634615,-0.021341,0.001000,0.001000,0.001000,0.001000,0.001000
1023.653846,-0.022392,0.001000,0.001000,0.001000,0.001000,0.001000
1023.673077,-0.023430,0.001000,0.001000,0.001000,0.001000,0.001000
1023.692308,-0.024456,0.001000,0.001000,0.001000,0.001000,0.001000
1023.711538,-0.025468,0.001000,0.001000,0.001000,0.001000,0.001000
1023.730769,-0.026466,0.001000,0.001000,0.001000,0.001000,0.001000
1023.750000,-0.027450,0.001000,0.001000,0.001000,0.001000,0.001000
1023.769231,-0.028419,0.001000,0.001000,0.001000,0.001000,0.001000
1023.788462,-0.029372,0.001000,0.001000,0.001000,0.001000,0.001000
1023.807692,-0.030309,0.001000,0.001000,0.001000,0.001000,0.001000
1023.826923,-0.031230,0.001000,0.001000,0.001000,0.001000,0.001000
1023.846154,-0.032134,0.001000,0.001000,0.001000,0.001000,0.001000
1023.865385,-0.033020,0.001000,0.001000,0.001000,0.001000,0.001000
1023.884615,-0.033888,0.001000,0.001000,0.001000,0.001000,0.001000
1023.903846,-0.034738,0.001000,0.001000,0.001000,0.001000,0.001000
1023.923077,-0.035569,0.001000,0.001000,0.001000,0.001000,0.001000
1023.942308,-0.036380,0.001000,0.001000,0.001000,0.001000,0.001000
1023.961538,-0.037171,0.001000,0.001000,0.001000,0.001000,0.001000
1023.980769,-0.037942,0.001000,0.001000,0.001000,0.001000,0.001000
1024.000000,-0.038693,0.001000,0.001000,0.001000,0.001000,0.001000
1024.019231,-0.039422,0.001000,0.001000,0.001000,0.001000,0.001000
1024.038462,-0.040130,0.001000,0.001000,0.001000,0.001000,0.001000
1024.057692,-0.040816,0.001000,0.001000,0.001000,0.001000,0.001000
1024.076923,-0.041479,0.001000,0.001000,0.001000,0.001000,0.001000
1024.096154,-0.042120,0.001000,0.001000,0.001000,0.001000,0.001000
1024.115385,-0.042738,0.001000,0.001000,0.001000,0.001000,0.001000
1024.134615,-0.043333,0.001000,0.001000,0.001000,0.001000,0.001000
1024.153846,-0.043904,0.001000,0.001000,0.001000,0.001000,0.001000
1024.173077,-0.044451,0.001000,0.001000,0.001000,0.001000,0.001000
1024.192308,-0.044974,0.001000,0.001000,0.001000,0.001000,0.001000
1024.211538,-0.045472,0.001000,0.001000,0.001000,0.001000,0.001000
1024.230769,-0.045945,0.001000,0.001000,0.001000,0.001000,0.001000
1024.250000,-0.046393,0.001000,0.001000,0.001000,0.001000,0.001000
1024.269231,-0.046816,0.001000,0.001000,0.001000,0.001000,0.001000
1024.288462,-0.047214,0.001000,0.001000,0.001000,0.001000,0.001000
1024.307692,-0.047585,0.001000,0.001000,0.001000,0.001000,0.001000
1024.326923,-0.047931,0.001000,0.001000,0.001000,0.001000,0.001000
1024.346154,-0.048250,0.001000,0.001000,0.001000,0.001000,0.001000
1024.365385,-0.048544,0.001000,0.001000,0.001000,0.001000,0.001000
1024.384615,-0.048810,0.001000,0.001000,0.001000,0.001000,0.001000
1024.403846,-0.049050,0.001000,0.001000,0.001000,0.001000,0.001000
1024.423077,-0.049263,0.001000,0.001000,0.001000,0.001000,0.001000
1024.442308,-0.049450,0.001000,0.001000,0.001000,0.001000,0.001000
1024.461538,-0.049609,0.001000,0.001000,0.001000,0.001000,0.001000
1024.480769,-0.049741,0.001000,0.001000,0.001000,0.001000,0.001000
1024.500000,-0.049846,0.001000,0.001000,0.001000,0.001000,0.001000
1024.519231,-0.049924,0.001000,0.001000,0.001000,0.001000,0.001000
1024.538462,-0.049975,0.001000,0.001000,0.001000,0.001000,0.001000
1024.557692,-0.049998,0.001000,0.001000,0.001000,0.001000,0.001000
1024.576923,-0.049994,0.001000,0.001000,0.001000,0.001000,0.001000
1024.596154,-0.049963,0.001000,0.001000,0.001000,0.001000,0.001000
1024.615385,-0.049905,0.001000,0.001000,0.001000,0.001000,0.001000
1024.634615,-0.049819,0.001000,0.001000,0.001000,0.001000,0.001000
1024.653846,-0.049706,0.001000,0.001000,0.001000,0.001000,0.001000
1024.673077,-0.049566,0.001000,0.001000,0.001000,0.001000,0.001000
1024.692308,-0.049399,0.001000,0.001000,0.001000,0.001000,0.001000
1024.711538,-0.049205,0.001000,0.001000,0.001000,0.001000,0.001000
1024.730769,-0.048984,0.001000,0.001000,0.001000,0.001000,0.001000
1024.750000,-0.048736,0.001000,0.001000,0.001000,0.001000,0.001000
1024.769231,-0.048462,0.001000,0.001000,0.001000,0.001000,0.001000
1024.788462,-0.048161,0.001000,0.001000,0.001000,0.001000,0.001000
1024.807692,-0.047834,0.001000,0.001000,0.001000,0.001000,0.001000
1024.826923,-0.047481,0.001000,0.001000,0.001000,0.001000,0.001000
1024.846154,-0.047102,0.001000,0.001000,0.001000,0.001000,0.001000
1024.865385,-0.046697,0.001000,0.001000,0.001000,0.001000,0.001000
1024.884615,-0.046266,0.001000,0.001000,0.001000,0.001000,0.001000
1024.903846,-0.045811,0.001000,0.001000,0.001000,0.001000,0.001000
1024.923077,-0.045330,0.001000,0.001000,0.001000,0.001000,0.001000
1024.942308,-0.044825,0.001000,0.001000,0.001000,0.001000,0.001000
1024.961538,-0.044295,0.001000,0.001000,0.001000,0.001000,0.001000
1024.980769,-0.043741,0.001000,0.001000,0.001000,0.001000,0.001000
1025.000000,-0.043164,0.001000,0.001000,0.001000,0.001000,0.001000
1025.019231,-0.042562,0.001000,0.001000,0.001000,0.001000,0.001000
1025.038462,-0.041938,0.001000,0.001000,0.001000,0.001000,0.001000
1025.057692,-0.041290,0.001000,0.001000,0.001000,0.001000,0.001000
1025.076923,-0.040620,0.001000,0.001000,0.001000,0.001000,0.001000
1025.096154,-0.039928,0.001000,0.001000,0.001000,0.001000,0.001000
1025.115385,-0.039214,0.001000,0.001000,0.001000,0.001000,0.001000
1025.134615,-0.038478,0.001000,0.001000,0.001000,0.001000,0.001000
1025.153846,-0.037722,0.001000,0.001000,0.001000,0.001000,0.001000
1025.173077,-0.036945,0.001000,0.001000,0.001000,0.001000,0.001000
1025.192308,-0.036148,0.001000,0.001000,0.001000,0.001000,0.001000
1025.211538,-0.035331,0.001000,0.001000,0.001000,0.001000,0.001000
1025.230769,-0.034495,0.001000,0.001000,0.001000,0.001000,0.001000
1025.250000,-0.033640,0.001000,0.001000,0.001000,0.001000,0.001000
1025.269231,-0.032766,0.001000,0.001000,0.001000,0.001000,0.001000
1025.288462,-0.031875,0.001000,0.001000,0.001000,0.001000,0.001000
1025.307692,-0.030966,0.001000,0.001000,0.001000,0.001000,0.001000
1025.326923,-0.030041,0.001000,0.001000,0.001000,0.001000,0.001000
1025.346154,-0.029099,0.001000,0.001000,0.001000,0.001000,0.001000
1025.365385,-0.028141,0.001000,0.001000,0.001000,0.001000,0.001000
1025.384615,-0.027167,0.001000,0.001000,0.001000,0.001000,0.001000
1025.403846,-0.026179,0.001000,0.001000,0.001000,0.001000,0.001000
1025.423077,-0.025177,0.001000,0.001000,0.001000,0.001000,0.001000
1025.442308,-0.024161,0.001000,0.001000,0.001000,0.001000,0.001000
1025.461538,-0.023132,0.001000,0.001000,0.001000,0.001000,0.001000
1025.480769,-0.022090,0.001000,0.001000,0.001000,0.001000,0.001000
1025.500000,-0.021036,0.001000,0.001000,0.001000,0.001000,0.001000
1025.519231,-0.019970,0.001000,0.001000,0.001000,0.001000,0.001000
1025.538462,-0.018894,0.001000,0.001000,0.001000,0.001000,0.001000
1025.557692,-0.017807,0.001000,0.001000,0.001000,0.001000,0.001000
1025.576923,-0.016711,0.001000,0.001000,0.001000,0.001000,0.001000
1025.596154,-0.015605,0.001000,0.001000,0.001000,0.001000,0.001000
1025.615385,-0.014491,0.001000,0.001000,0.001000,0.001000,0.001000
1025.634615,-0.013369,0.001000,0.001000,0.001000,0.001000,0.001000
1025.653846,-0.012240,0.001000,0.001000,0.001000,0.001000,0.001000
1025.673077,-0.011104,0.001000,0.001000,0.001000,0.001000,0.001000
1025.692308,-0.009962,0.001000,0.001000,0.001000,0.001000,0.001000
1025.711538,-0.008815,0.001000,0.001000,0.001000,0.001000,0.001000
1025.730769,-0.007662,0.001000,0.001000,0.001000,0.001000,0.001000
1025.750000,-0.006506,0.001000,0.001000,0.001000,0.001000,0.001000
1025.769231,-0.005346,0.001000,0.001000,0.001000,0.001000,0.001000
1025.788462,-0.004183,0.001000,0.001000,0.001000,0.001000,0.001000
1025.807692,-0.003018,0.001000,0.001000,0.001000,0.001000,0.001000
1025.826923,-0.001851,0.001000,0.001000,0.001000,0.001000,0.001000
1025.846154,-0.000683,0.001000,0.001000,0.001000,0.001000,0.001000
1025.865385,0.000485,0.001000,0.001000,0.001000,0.001000,0.001000
1025.884615,0.001653,0.001000,0.001000,0.001000,0.001000,0.001000
1025.903846,0.002820,0.001000,0.001000,0.001000,0.001000,0.001000
1025.923077,0.003985,0.001000,0.001000,0.001000,0.001000,0.001000
1025.942308,0.005149,0.001000,0.001000,0.001000,0.001000,0.001000
1025.961538,0.006309,0.001000,0.001000,0.001000,0.001000,0.001000
1025.980769,0.007466,0.001000,0.001000,0.001000,0.001000,0.001000
1026.000000,0.008619,0.001000,0.001000,0.001000,0.001000,0.001000
1026.019231,0.009768,0.001000,0.001000,0.001000,0.001000,0.001000
1026.038462,0.010911,0.001000,0.001000,0.001000,0.001000,0.001000
1026.057692,0.012048,0.001000,0.001000,0.001000,0.001000,0.001000
1026.076923,0.013178,0.001000,0.001000,0.001000,0.001000,0.001000
1026.096154,0.014301,0.001000,0.001000,0.001000,0.001000,0.001000
1026.115385,0.015417,0.001000,0.001000,0.001000,0.001000,0.001000
1026.134615,0.016524,0.001000,0.001000,0.001000,0.001000,0.001000
1026.153846,0.017622,0.001000,0.001000,0.001000,0.001000,0.001000
1026.173077,0.018710,0.001000,0.001000,0.001000,0.001000,0.001000
1026.192308,0.019788,0.001000,0.001000,0.001000,0.001000,0.001000
1026.211538,0.020856,0.001000,0.001000,0.001000,0.001000,0.001000
1026.230769,0.021912,0.001000,0.001000,0.001000,0.001000,0.001000
1026.250000,0.022956,0.001000,0.001000,0.001000,0.001000,0.001000
1026.269231,0.023987,0.001000,0.001000,0.001000,0.001000,0.001000
1026.288462,0.025005,0.001000,0.001000,0.001000,0.001000,0.001000
1026.307692,0.026010,0.001000,0.001000,0.001000,0.001000,0.001000
1026.326923,0.027001,0.001000,0.001000,0.001000,0.001000,0.001000
1026.346154,0.027976,0.001000,0.001000,0.001000,0.001000,0.001000
1026.365385,0.028937,0.001000,0.001000,0.001000,0.001000,0.001000
1026.384615,0.029882,0.001000,0.001000,0.001000,0.001000,0.001000
1026.403846,0.030810,0.001000,0.001000,0.001000,0.001000,0.001000
1026.423077,0.031722,0.001000,0.001000,0.001000,0.001000,0.001000
1026.442308,0.032616,0.001000,0.001000,0.001000,0.001000,0.001000
1026.461538,0.033492,0.001000,0.001000,0.001000,0.001000,0.001000
1026.480769,0.034351,0.001000,0.001000,0.001000,0.001000,0.001000
1026.500000,0.035190,0.001000,0.001000,0.001000,0.001000,0.001000
1026.519231,0.036010,0.001000,0.001000,0.001000,0.001000,0.001000
1026.538462,0.036811,0.001000,0.001000,0.001000,0.001000,0.001000
1026.557692,0.037591,0.001000,0.001000,0.001000,0.001000,0.001000
1026.576923,0.038351,0.001000,0.001000,0.001000,0.001000,0.001000
1026.596154,0.039090,0.001000,0.001000,0.001000,0.001000,0.001000
1026.615385,0.039808,0.001000,0.001000,0.001000,0.001000,0.001000
1026.634615,0.040504,0.001000,0.001000,0.001000,0.001000,0.001000
1026.653846,0.041178,0.001000,0.001000,0.001000,0.001000,0.001000
1026.673077,0.041829,0.001000,0.001000,0.001000,0.001000,0.001000
1026.692308,0.042458,0.001000,0.001000,0.001000,0.001000,0.001000
1026.711538,0.043063,0.001000,0.001000,0.001000,0.001000,0.001000
1026.730769,0.043645,0.001000,0.001000,0.001000,0.001000,0.001000
1026.750000,0.044203,0.001000,0.001000,0.001000,0.001000,0.001000
1026.769231,0.044737,0.001000,0.001000,0.001000,0.001000,0.001000
1026.788462,0.045246,0.001000,0.001000,0.001000,0.001000,0.001000
1026.807692,0.045731,0.001000,0.001000,0.001000,0.001000,0.001000
1026.826923,0.046191,0.001000,0.001000,0.001000,0.001000,0.001000
1026.846154,0.046626,0.001000,0.001000,0.001000,0.001000,0.001000
1026.865385,0.047035,0.001000,0.001000,0.001000,0.001000,0.001000
1026.884615,0.047418,0.001000,0.001000,0.001000,0.001000,0.001000
1026.903846,0.047776,0.001000,0.001000,0.001000,0.001000,0.001000
1026.923077,0.048107,0.001000,0.001000,0.001000,0.001000,0.001000
1026.942308,0.048412,0.001000,0.001000,0.001000,0.001000,0.001000
1026.961538,0.048691,0.001000,0.001000,0.001000,0.001000,0.001000
1026.980769,0.048943,0.001000,0.001000,0.001000,0.001000,0.001000
1027.000000,0.049169,0.001000,0.001000,0.001000,0.001000,0.001000
1027.019231,0.049368,0.001000,0.001000,0.001000,0.001000,0.001000
1027.038462,0.049539,0.001000,0.001000,0.001000,0.001000,0.001000
1027.057692,0.049684,0.001000,0.001000,0.001000,0.001000,0.001000
1027.076923,0.049802,0.001000,0.001000,0.001000,0.001000,0.001000
1027.096154,0.049892,0.001000,0.001000,0.001000,0.001000,0.001000
1027.115385,0.049955,0.001000,0.001000,0.001000,0.001000,0.001000
1027.134615,0.049991,0.001000,0.001000,0.001000,0.001000,0.001000
1027.153846,0.050000,0.001000,0.001000,0.001000,0.001000,0.001000
1027.173077,0.049981,0.001000,0.001000,0.001000,0.001000,0.001000
1027.192308,0.049935,0.001000,0.001000,0.001000,0.001000,0.001000
1027.211538,0.049862,0.001000,0.001000,0.001000,0.001000,0.001000
1027.230769,0.049761,0.001000,0.001000,0.001000,0.001000,0.001000
1027.250000,0.049633,0.001000,0.001000,0.001000,0.001000,0.001000
1027.269231,0.049479,0.001000,0.001000,0.001000,0.001000,0.001000
1027.288462,0.049297,0.001000,0.001000,0.001000,0.001000,0.001000
1027.307692,0.049088,0.001000,0.001000,0.001000,0.001000,0.001000
1027.326923,0.048853,0.001000,0.001000,0.001000,0.001000,0.001000
1027.346154,0.048591,0.001000,0.001000,0.001000,0.001000,0.001000
1027.365385,0.048302,0.001000,0.001000,0.001000,0.001000,0.001000
1027.384615,0.047987,0.001000,0.001000,0.001000,0.001000,0.001000
1027.403846,0.047646,0.001000,0.001000,0.001000,0.001000,0.001000
1027.423077,0.047279,0.001000,0.001000,0.001000,0.001000,0.001000
1027.442308,0.046886,0.001000,0.001000,0.001000,0.001000,0.001000
1027.461538,0.046467,0.001000,0.001000,0.001000,0.001000,0.001000
1027.480769,0.046023,0.001000,0.001000,0.001000,0.001000,0.001000
1027.500000,0.045554,0.001000,0.001000,0.001000,0.001000,0.001000
1027.519231,0.045060,0.001000,0.001000,0.001000,0.001000,0.001000
1027.538462,0.044541,0.001000,0.001000,0.001000,0.001000,0.001000
1027.557692,0.043998,0.001000,0.001000,0.001000,0.001000,0.001000
1027.576923,0.043431,0.001000,0.001000,0.001000,0.001000,0.001000
1027.596154,0.042841,0.001000,0.001000,0.001000,0.001000,0.001000
1027.615385,0.042227,0.001000,0.001000,0.001000,0.001000,0.001000
1027.634615,0.041590,0.001000,0.001000,0.001000,0.001000,0.001000
1027.653846,0.040930,0.001000,0.001000,0.001000,0.001000,0.001000
1027.673077,0.040248,0.001000,0.001000,0.001000,0.001000,0.001000
1027.692308,0.039544,0.001000,0.001000,0.001000,0.001000,0.001000
1027.711538,0.038818,0.001000,0.001000,0.001000,0.001000,0.001000
1027.730769,0.038071,0.001000,0.001000,0.001000,0.001000,0.001000
1027.750000,0.037304,0.001000,0.001000,0.001000,0.001000,0.001000
1027.769231,0.036516,0.001000,0.001000,0.001000,0.001000,0.001000
1027.788462,0.035708,0.001000,0.001000,0.001000,0.001000,0.001000
1027.807692,0.034880,0.001000,0.001000,0.001000,0.001000,0.001000
1027.826923,0.034034,0.001000,0.001000,0.001000,0.001000,0.001000
1027.846154,0.033169,0.001000,0.001000,0.001000,0.001000,0.001000
1027.865385,0.032286,0.001000,0.001000,0.001000,0.001000,0.001000
1027.884615,0.031385,0.001000,0.001000,0.001000,0.001000,0.001000
1027.903846,0.030467,0.001000,0.001000,0.001000,0.001000,0.001000
1027.923077,0.029532,0.001000,0.001000,0.001000,0.001000,0.001000
1027.942308,0.028582,0.001000,0.001000,0.001000,0.001000,0.001000
1027.961538,0.027616,0.001000,0.001000,0.001000,0.001000,0.001000
1027.980769,0.026634,0.001000,0.001000,0.001000,0.001000,0.001000
1028.000000,0.025638,0.001000,0.001000,0.001000,0.001000,0.001000
1028.019231,0.024628,0.001000,0.001000,0.001000,0.001000,0.001000
1028.038462,0.023605,0.001000,0.001000,0.001000,0.001000,0.001000
1028.057692,0.022569,0.001000,0.001000,0.001000,0.001000,0.001000
1028.076923,0.021520,0.001000,0.001000,0.001000,0.001000,0.001000
1028.096154,0.020460,0.001000,0.001000,0.001000,0.001000,0.001000
1028.115385,0.019389,0.001000,0.001000,0.001000,0.001000,0.001000
1028.134615,0.018307,0.001000,0.001000,0.001000,0.001000,0.001000
1028.153846,0.017215,0.001000,0.001000,0.001000,0.001000,0.001000
1028.173077,0.016113,0.001000,0.001000,0.001000,0.001000,0.001000
1028.192308,0.015003,0.001000,0.001000,0.001000,0.001000,0.001000
1028.211538,0.013885,0.001000,0.001000,0.001000,0.001000,0.001000
1028.230769,0.012759,0.001000,0.001000,0.001000,0.001000,0.001000
1028.250000,0.011626,0.001000,0.001000,0.001000,0.001000,0.001000
1028.269231,0.010486,0.001000,0.001000,0.001000,0.001000,0.001000
1028.288462,0.009341,0.001000,0.001000,0.001000,0.001000,0.001000
1028.307692,0.008191,0.001000,0.001000,0.001000,0.001000,0.001000
1028.326923,0.007037,0.001000,0.001000,0.001000,0.001000,0.001000
1028.346154,0.005878,0.001000,0.001000,0.001000,0.001000,0.001000
1028.365385,0.004717,0.001000,0.001000,0.001000,0.001000,0.001000
1028.384615,0.003552,0.001000,0.001000,0.001000,0.001000,0.001000
1028.403846,0.002386,0.001000,0.001000,0.001000,0.001000,0.001000
1028.423077,0.001219,0.001000,0.001000,0.001000,0.001000,0.001000
1028.442308,0.000051,0.001000,0.001000,0.001000,0.001000,0.001000
1028.461538,-0.001117,0.001000,0.001000,0.001000,0.001000,0.001000
1028.480769,-0.002285,0.001000,0.001000,0.001000,0.001000,0.001000
1028.500000,-0.003451,0.001000,0.001000,0.001000,0.001000,0.001000
1028.519231,-0.004616,0.001000,0.001000,0.001000,0.001000,0.001000
1028.538462,-0.005778,0.001000,0.001000,0.001000,0.001000,0.001000
1028.557692,-0.006936,0.001000,0.001000,0.001000,0.001000,0.001000
1028.576923,-0.008091,0.001000,0.001000,0.001000,0.001000,0.001000
1028.596154,-0.009242,0.001000,0.001000,0.001000,0.001000,0.001000
1028.615385,-0.010387,0.001000,0.001000,0.001000,0.001000,0.001000
1028.634615,-0.011527,0.001000,0.001000,0.001000,0.001000,0.001000
1028.653846,-0.012661,0.001000,0.001000,0.001000,0.001000,0.001000
1028.673077,-0.013787,0.001000,0.001000,0.001000,0.001000,0.001000
1028.692308,-0.014906,0.001000,0.001000,0.001000,0.001000,0.001000
1028.711538,-0.016017,0.001000,0.001000,0.001000,0.001000,0.001000
1028.730769,-0.017119,0.001000,0.001000,0.001000,0.001000,0.001000
1028.750000,-0.018212,0.001000,0.001000,0.001000,0.001000,0.001000
1028.769231,-0.019295,0.001000,0.001000,0.001000,0.001000,0.001000
1028.788462,-0.020368,0.001000,0.001000,0.001000,0.001000,0.001000
1028.807692,-0.021429,0.001000,0.001000,0.001000,0.001000,0.001000
1028.826923,-0.022478,0.001000,0.001000,0.001000,0.001000,0.001000
1028.846154,-0.023516,0.001000,0.001000,0.001000,0.001000,0.001000
1028.865385,-0.024540,0.001000,0.001000,0.001000,0.001000,0.001000
1028.884615,-0.025551,0.001000,0.001000,0.001000,0.001000,0.001000
1028.903846,-0.026548,0.001000,0.001000,0.001000,0.001000,0.001000
1028.923077,-0.027531,0.001000,0.001000,0.001000,0.001000,0.001000
1028.942308,-0.028499,0.001000,0.001000,0.001000,0.001000,0.001000
1028.961538,-0.029451,0.001000,0.001000,0.001000,0.001000,0.001000
1028.980769,-0.030387,0.001000,0.001000,0.001000,0.001000,0.001000
1029.000000,-0.031306,0.001000,0.001000,0.001000,0.001000,0.001000
1029.019231,-0.032208,0.001000,0.001000,0.001000,0.001000,0.001000
1029.038462,-0.033093,0.001000,0.001000,0.001000,0.001000,0.001000
1029.057692,-0.033960,0.001000,0.001000,0.001000,0.001000,0.001000
1029.076923,-0.034808,0.001000,0.001000,0.001000,0.001000,0.001000
1029.096154,-0.035637,0.001000,0.001000,0.001000,0.001000,0.001000
1029.115385,-0.036446,0.001000,0.001000,0.001000,0.001000,0.001000
1029.134615,-0.037236,0.001000,0.001000,0.001000,0.001000,0.001000
1029.153846,-0.038006,0.001000,0.001000,0.001000,0.001000,0.001000
1029.173077,-0.038754,0.001000,0.001000,0.001000,0.001000,0.001000
1029.192308,-0.039482,0.001000,0.001000,0.001000,0.001000,0.001000
1029.211538,-0.040188,0.001000,0.001000,0.001000,0.001000,0.001000
1029.230769,-0.040872,0.001000,0.001000,0.001000,0.001000,0.001000
1029.250000,-0.041533,0.001000,0.001000,0.001000,0.001000,0.001000
1029.269231,-0.042172,0.001000,0.001000,0.001000,0.001000,0.001000
1029.288462,-0.042788,0.001000,0.001000,0.001000,0.001000,0.001000
1029.307692,-0.043381,0.001000,0.001000,0.001000,0.001000,0.001000
1029.326923,-0.043950,0.001000,0.001000,0.001000,0.001000,0.001000
1029.346154,-0.044495,0.001000,0.001000,0.001000,0.001000,0.001000
1029.365385,-0.045016,0.001000,0.001000,0.001000,0.001000,0.001000
1029.384615,-0.045512,0.001000,0.001000,0.001000,0.001000,0.001000
1029.403846,-0.045983,0.001000,0.001000,0.001000,0.001000,0.001000
1029.423077,-0.046429,0.001000,0.001000,0.001000,0.001000,0.001000
1029.442308,-0.046850,0.001000,0.001000,0.001000,0.001000,0.001000
1029.461538,-0.047245,0.001000,0.001000,0.001000,0.001000,0.001000
1029.480769,-0.047615,0.001000,0.001000,0.001000,0.001000,0.001000
1029.500000,-0.047958,0.001000,0.001000,0.001000,0.001000,0.001000
1029.519231,-0.048276,0.001000,0.001000,0.001000,0.001000,0.001000
1029.538462,-0.048567,0.001000,0.001000,0.001000,0.001000,0.001000
1029.557692,-0.048831,0.001000,0.001000,0.001000,0.001000,0.001000
1029.576923,-0.049069,0.001000,0.001000,0.001000,0.001000,0.001000
1029.596154,-0.049280,0.001000,0.001000,0.001000,0.001000,0.001000
1029.615385,-0.049464,0.001000,0.001000,0.001000,0.001000,0.001000
1029.634615,-0.049621,0.001000,0.001000,0.001000,0.001000,0.001000
1029.653846,-0.049751,0.001000,0.001000,0.001000,0.001000,0.001000
1029.673077,-0.049854,0.001000,0.001000,0.001000,0.001000,0.001000
1029.692308,-0.049930,0.001000,0.001000,0.001000,0.001000,0.001000
1029.711538,-0.049978,0.001000,0.001000,0.001000,0.001000,0.001000
1029.730769,-0.049999,0.001000,0.001000,0.001000,0.001000,0.001000
1029.750000,-0.049993,0.001000,0.001000,0.001000,0.001000,0.001000
1029.769231,-0.049959,0.001000,0.001000,0.001000,0.001000,0.001000
1029.788462,-0.049899,0.001000,0.001000,0.001000,0.001000,0.001000
1029.807692,-0.049811,0.001000,0.001000,0.001000,0.001000,0.001000
1029.826923,-0.049695,0.001000,0.001000,0.001000,0.001000,0.001000
1029.846154,-0.049553,0.001000,0.001000,0.001000,0.001000,0.001000
1029.865385,-0.049384,0.001000,0.001000,0.001000,0.001000,0.001000
1029.884615,-0.049187,0.001000,0.001000,0.001000,0.001000,0.001000
1029.903846,-0.048964,0.001000,0.001000,0.001000,0.001000,0.001000
1029.923077,-0.048714,0.001000,0.001000,0.001000,0.001000,0.001000
1029.942308,-0.048438,0.001000,0.001000,0.001000,0.001000,0.001000
1029.961538,-0.048135,0.001000,0.001000,0.001000,0.001000,0.001000
1029.980769,-0.047805,0.001000,0.001000,0.001000,0.001000,0.001000
1030.000000,0.000000,0.001000,0.001000,0.001000,0.001000,0.001000
1030.019231,0.001047,0.001000,0.001000,0.001000,0.001000,0.001000
1030.038462,0.002093,0.001000,0.001000,0.001000,0.001000,0.001000
1030.057692,0.003138,0.001000,0.001000,0.001000,0.001000,0.001000
1030.076923,0.004182,0.001000,0.001000,0.001000,0.001000,0.001000
1030.096154,0.005224,0.001000,0.001000,0.001000,0.001000,0.001000
1030.115385,0.006263,0.001000,0.001000,0.001000,0.001000,0.001000
1030.134615,0.007300,0.001000,0.001000,0.001000,0.001000,0.001000
1030.153846,0.008334,0.001000,0.001000,0.001000,0.001000,0.001000
1030.173077,0.009364,0.001000,0.001000,0.001000,0.001000,0.001000
1030.192308,0.010390,0.001000,0.001000,0.001000,0.001000,0.001000
1030.211538,0.011412,0.001000,0.001000,0.001000,0.001000,0.001000
1030.230769,0.012428,0.001000,0.001000,0.001000,0.001000,0.001000
1030.250000,0.013439,0.001000,0.001000,0.001000,0.001000,0.001000
1030.269231,0.014444,0.001000,0.001000,0.001000,0.001000,0.001000
1030.288462,0.015443,0.001000,0.001000,0.001000,0.001000,0.001000
1030.307692,0.016435,0.001000,0.001000,0.001000,0.001000,0.001000
1030.326923,0.017420,0.001000,0.001000,0.001000,0.001000,0.001000
1030.346154,0.018397,0.001000,0.001000,0.001000,0.001000,0.001000
1030.365385,0.019366,0.001000,0.001000,0.001000,0.001000,0.001000
1030.384615,0.020327,0.001000,0.001000,0.001000,0.001000,0.001000
1030.403846,0.021279,0.001000,0.001000,0.001000,0.001000,0.001000
1030.423077,0.022221,0.001000,0.001000,0.001000,0.001000,0.001000
1030.442308,0.023154,0.001000,0.001000,0.001000,0.001000,0.001000
1030.461538,0.024076,0.001000,0.001000,0.001000,0.001000,0.001000
1030.480769,0.024988,0.001000,0.001000,0.001000,0.001000,0.001000
1030.500000,0.025889,0.001000,0.001000,0.001000,0.001000,0.001000
1030.519231,0.026779,0.001000,0.001000,0.001000,0.001000,0.001000
1030.538462,0.027657,0.001000,0.001000,0.001000,0.001000,0.001000
1030.557692,0.028523,0.001000,0.001000,0.001000,0.001000,0.001000
1030.576923,0.029376,0.001000,0.001000,0.001000,0.001000,0.001000
1030.596154,0.030217,0.001000,0.001000,0.001000,0.001000,0.001000
1030.615385,0.031044,0.001000,0.001000,0.001000,0.001000,0.001000
1030.634615,0.031858,0.001000,0.001000,0.001000,0.001000,0.001000
1030.653846,0.032657,0.001000,0.001000,0.001000,0.001000,0.001000
1030.673077,0.033443,0.001000,0.001000,0.001000,0.001000,0.001000
1030.692308,0.034213,0.001000,0.001000,0.001000,0.001000,0.001000
1030.711538,0.034969,0.001000,0.001000,0.001000,0.001000,0.001000
1030.730769,0.035709,0.001000,0.001000,0.001000,0.001000,0.001000
1030.750000,0.036434,0.001000,0.001000,0.001000,0.001000,0.001000
1030.769231,0.037143,0.001000,0.001000,0.001000,0.001000,0.001000
1030.788462,0.037835,0.001000,0.001000,0.001000,0.001000,0.001000
1030.807692,0.038511,0.001000,0.001000,0.001000,0.001000,0.001000
1030.826923,0.039170,0.001000,0.001000,0.001000,0.001000,0.001000
1030.846154,0.039812,0.001000,0.001000,0.001000,0.001000,0.001000
1030.865385,0.040437,0.001000,0.001000,0.001000,0.001000,0.001000
1030.884615,0.041043,0.001000,0.001000,0.001000,0.001000,0.001000
1030.903846,0.041632,0.001000,0.001000,0.001000,0.001000,0.001000
1030.923077,0.042203,0.001000,0.001000,0.001000,0.001000,0.001000
1030.942308,0.042755,0.001000,0.001000,0.001000,0.001000,0.001000
1030.961538,0.043288,0.001000,0.001000,0.001000,0.001000,0.001000
1030.980769,0.043802,0.001000,0.001000,0.001000,0.001000,0.001000
1031.000000,0.044297,0.001000,0.001000,0.001000,0.001000,0.001000
1031.019231,0.044773,0.001000,0.001000,0.001000,0.001000,0.001000
1031.038462,0.045229,0.001000,0.001000,0.001000,0.001000,0.001000
1031.057692,0.045665,0.001000,0.001000,0.001000,0.001000,0.001000
1031.076923,0.046082,0.001000,0.001000,0.001000,0.001000,0.001000
1031.096154,0.046478,0.001000,0.001000,0.001000,0.001000,0.001000
1031.115385,0.046853,0.001000,0.001000,0.001000,0.001000,0.001000
1031.134615,0.047208,0.001000,0.001000,0.001000,0.001000,0.001000
1031.153846,0.047543,0.001000,0.001000,0.001000,0.001000,0.001000
1031.173077,0.047857,0.001000,0.001000,0.001000,0.001000,0.001000
1031.192308,0.048149,0.001000,0.001000,0.001000,0.001000,0.001000
1031.211538,0.048421,0.001000,0.001000,0.001000,0.001000,0.001000
1031.230769,0.048671,0.001000,0.001000,0.001000,0.001000,0.001000
1031.250000,0.048900,0.001000,0.001000,0.001000,0.001000,0.001000
1031.269231,0.049108,0.001000,0.001000,0.001000,0.001000,0.001000
1031.288462,0.049294,0.001000,0.001000,0.001000,0.001000,0.001000
1031.307692,0.049458,0.001000,0.001000,0.001000,0.001000,0.001000
1031.326923,0.049601,0.001000,0.001000,0.001000,0.001000,0.001000
1031.346154,0.049722,0.001000,0.001000,0.001000,0.001000,0.001000
1031.365385,0.049821,0.001000,0.001000,0.001000,0.001000,0.001000
1031.384615,0.049899,0.001000,0.001000,0.001000,0.001000,0.001000
1031.403846,0.049954,0.001000,0.001000,0.001000,0.001000,0.001000
1031.423077,0.049988,0.001000,0.001000,0.001000,0.001000,0.001000
1031.442308,0.050000,0.001000,0.001000,0.001000,0.001000,0.001000
1031.461538,0.049990,0.001000,0.001000,0.001000,0.001000,0.001000
1031.480769,0.049958,0.001000,0.001000,0.001000,0.001000,0.001000
1031.500000,0.049904,0.001000,0.001000,0.001000,0.001000,0.001000
1031.519231,0.049828,0.001000,0.001000,0.001000,0.001000,0.001000
1031.538462,0.049731,0.001000,0.001000,0.001000,0.001000,0.001000
1031.557692,0.049611,0.001000,0.001000,0.001000,0.001000,0.001000
1031.576923,0.049470,0.001000,0.001000,0.001000,0.001000,0.001000
1031.596154,0.049307,0.001000,0.001000,0.001000,0.001000,0.001000
1031.615385,0.049123,0.001000,0.001000,0.001000,0.001000,0.001000
1031.634615,0.048917,0.001000,0.001000,0.001000,0.001000,0.001000
1031.653846,0.048689,0.001000,0.001000,0.001000,0.001000,0.001000
1031.673077,0.048441,0.001000,0.001000,0.001000,0.001000,0.001000
1031.692308,0.048171,0.001000,0.001000,0.001000,0.001000,0.001000
1031.711538,0.047880,0.001000,0.001000,0.001000,0.001000,0.001000
1031.730769,0.047568,0.001000,0.001000,0.001000,0.001000,0.001000
1031.750000,0.047235,0.001000,0.001000,0.001000,0.001000,0.001000
1031.769231,0.046881,0.001000,0.001000,0.001000,0.001000,0.001000
1031.788462,0.046507,0.001000,0.001000,0.001000,0.001000,0.001000
1031.807692,0.046113,0.001000,0.001000,0.001000,0.001000,0.001000
1031.826923,0.045698,0.001000,0.001000,0.001000,0.001000,0.001000
1031.846154,0.045263,0.001000,0.001000,0.001000,0.001000,0.001000
1031.865385,0.044809,0.001000,0.001000,0.001000,0.001000,0.001000
1031.884615,0.044335,0.001000,0.001000,0.001000,0.001000,0.001000
1031.903846,0.043841,0.001000,0.001000,0.001000,0.001000,0.001000
1031.923077,0.043328,0.001000,0.001000,0.001000,0.001000,0.001000
1031.942308,0.042796,0.001000,0.001000,0.001000,0.001000,0.001000
1031.961538,0.042246,0.001000,0.001000,0.001000,0.001000,0.001000
1031.980769,0.041677,0.001000,0.001000,0.001000,0.001000,0.001000
1032.000000,0.041089,0.001000,0.001000,0.001000,0.001000,0.001000
1032.019231,0.040484,0.001000,0.001000,0.001000,0.001000,0.001000
1032.038462,0.039861,0.001000,0.001000,0.001000,0.001000,0.001000
1032.057692,0.039220,0.001000,0.001000,0.001000,0.001000,0.001000
1032.076923,0.038563,0.001000,0.001000,0.001000,0.001000,0.001000
1032.096154,0.037888,0.001000,0.001000,0.001000,0.001000,0.001000
1032.115385,0.037197,0.001000,0.001000,0.001000,0.001000,0.001000
1032.134615,0.036489,0.001000,0.001000,0.001000,0.001000,0.001000
1032.153846,0.035766,0.001000,0.001000,0.001000,0.001000,0.001000
1032.173077,0.035026,0.001000,0.001000,0.001000,0.001000,0.001000
1032.192308,0.034272,0.001000,0.001000,0.001000,0.001000,0.001000
1032.211538,0.033502,0.001000,0.001000,0.001000,0.001000,0.001000
1032.230769,0.032718,0.001000,0.001000,0.001000,0.001000,0.001000
1032.250000,0.031920,0.001000,0.001000,0.001000,0.001000,0.001000
1032.269231,0.031107,0.001000,0.001000,0.001000,0.001000,0.001000
1032.288462,0.030281,0.001000,0.001000,0.001000,0.001000,0.001000
1032.307692,0.029441,0.001000,0.001000,0.001000,0.001000,0.001000
1032.326923,0.028589,0.001000,0.001000,0.001000,0.001000,0.001000
1032.346154,0.027724,0.001000,0.001000,0.001000,0.001000,0.001000
1032.365385,0.026847,0.001000,0.001000,0.001000,0.001000,0.001000
1032.384615,0.025958,0.001000,0.001000,0.001000,0.001000,0.001000
1032.403846,0.025058,0.001000,0.001000,0.001000,0.001000,0.001000
1032.423077,0.024147,0.001000,0.001000,0.001000,0.001000,0.001000
1032.442308,0.023225,0.001000,0.001000,0.001000,0.001000,0.001000
1032.461538,0.022293,0.001000,0.001000,0.001000,0.001000,0.001000
1032.480769,0.021352,0.001000,0.001000,0.001000,0.001000,0.001000
1032.500000,0.020401,0.001000,0.001000,0.001000,0.001000,0.001000
1032.519231,0.019441,0.001000,0.001000,0.001000,0.001000,0.001000
1032.538462,0.018472,0.001000,0.001000,0.001000,0.001000,0.001000
1032.557692,0.017495,0.001000,0.001000,0.001000,0.001000,0.001000
1032.576923,0.016511,0.001000,0.001000,0.001000,0.001000,0.001000
1032.596154,0.015520,0.001000,0.001000,0.001000,0.001000,0.001000
1032.615385,0.014521,0.001000,0.001000,0.001000,0.001000,0.001000
1032.634615,0.013517,0.001000,0.001000,0.001000,0.001000,0.001000
1032.653846,0.012506,0.001000,0.001000,0.001000,0.001000,0.001000
1032.673077,0.011490,0.001000,0.001000,0.001000,0.001000,0.001000
1032.692308,0.010469,0.001000,0.001000,0.001000,0.001000,0.001000
1032.711538,0.009443,0.001000,0.001000,0.001000,0.001000,0.001000
1032.730769,0.008414,0.001000,0.001000,0.001000,0.001000,0.001000
1032.750000,0.007380,0.001000,0.001000,0.001000,0.001000,0.001000
1032.769231,0.006343,0.001000,0.001000,0.001000,0.001000,0.001000
1032.788462,0.005304,0.001000,0.001000,0.001000,0.001000,0.001000
1032.807692,0.004262,0.001000,0.001000,0.001000,0.001000,0.001000
1032.826923,0.003218,0.001000,0.001000,0.001000,0.001000,0.001000
1032.846154,0.002173,0.001000,0.001000,0.001000,0.001000,0.001000
1032.865385,0.001127,0.001000,0.001000,0.001000,0.001000,0.001000
1032.884615,0.000080,0.001000,0.001000,0.001000,0.001000,0.001000
1032.903846,-0.000966,0.001000,0.001000,0.001000,0.001000,0.001000
1032.923077,-0.002012,0.001000,0.001000,0.001000,0.001000,0.001000
1032.942308,-0.003058,0.001000,0.001000,0.001000,0.001000,0.001000
1032.961538,-0.004102,0.001000,0.001000,0.001000,0.001000,0.001000
1032.980769,-0.005144,0.001000,0.001000,0.001000,0.001000,0.001000
1033.000000,-0.006184,0.001000,0.001000,0.001000,0.001000,0.001000
1033.019231,-0.007221,0.001000,0.001000,0.001000,0.001000,0.001000
1033.038462,-0.008255,0.001000,0.001000,0.001000,0.001000,0.001000
1033.057692,-0.009285,0.001000,0.001000,0.001000,0.001000,0.001000
1033.076923,-0.010312,0.001000,0.001000,0.001000,0.001000,0.001000
1033.096154,-0.011333,0.001000,0.001000,0.001000,0.001000,0.001000
1033.115385,-0.012350,0.001000,0.001000,0.001000,0.001000,0.001000
1033.134615,-0.013362,0.001000,0.001000,0.001000,0.001000,0.001000
1033.153846,-0.014367,0.001000,0.001000,0.001000,0.001000,0.001000
1033.173077,-0.015367,0.001000,0.001000,0.001000,0.001000,0.001000
1033.192308,-0.016359,0.001000,0.001000,0.001000,0.001000,0.001000
1033.211538,-0.017345,0.001000,0.001000,0.001000,0.001000,0.001000
1033.230769,-0.018322,0.001000,0.001000,0.001000,0.001000,0.001000
1033.250000,-0.019292,0.001000,0.001000,0.001000,0.001000,0.001000
1033.269231,-0.020253,0.001000,0.001000,0.001000,0.001000,0.001000
1033.288462,-0.021206,0.001000,0.001000,0.001000,0.001000,0.001000
1033.307692,-0.022149,0.001000,0.001000,0.001000,0.001000,0.001000
1033.326923,-0.023083,0.001000,0.001000,0.001000,0.001000,0.001000
1033.346154,-0.024006,0.001000,0.001000,0.001000,0.001000,0.001000
1033.365385,-0.024919,0.001000,0.001000,0.001000,0.001000,0.001000
1033.384615,-0.025821,0.001000,0.001000,0.001000,0.001000,0.001000
1033.403846,-0.026711,0.001000,0.001000,0.001000,0.001000,0.001000
1033.423077,-0.027590,0.001000,0.001000,0.001000,0.001000,0.001000
1033.442308,-0.028457,0.001000,0.001000,0.001000,0.001000,0.001000
1033.461538,-0.029311,0.001000,0.001000,0.001000,0.001000,0.001000
1033.480769,-0.030153,0.001000,0.001000,0.001000,0.001000,0.001000
1033.500000,-0.030981,0.001000,0.001000,0.001000,0.001000,0.001000
1033.519231,-0.031795,0.001000,0.001000,0.001000,0.001000,0.001000
1033.538462,-0.032596,0.001000,0.001000,0.001000,0.001000,0.001000
1033.557692,-0.033383,0.001000,0.001000,0.001000,0.001000,0.001000
1033.576923,-0.034155,0.001000,0.001000,0.001000,0.001000,0.001000
1033.596154,-0.034911,0.001000,0.001000,0.001000,0.001000,0.001000
1033.615385,-0.035653,0.001000,0.001000,0.001000,0.001000,0.001000
1033.634615,-0.036379,0.001000,0.001000,0.001000,0.001000,0.001000
1033.653846,-0.037089,0.001000,0.001000,0.001000,0.001000,0.001000
1033.673077,-0.037783,0.001000,0.001000,0.001000,0.001000,0.001000
1033.692308,-0.038460,0.001000,0.001000,0.001000,0.001000,0.001000
1033.711538,-0.039120,0.001000,0.001000,0.001000,0.001000,0.001000
1033.730769,-0.039763,0.001000,0.001000,0.001000,0.001000,0.001000
1033.750000,-0.040389,0.001000,0.001000,0.001000,0.001000,0.001000
1033.769231,-0.040997,0.001000,0.001000,0.001000,0.001000,0.001000
1033.788462,-0.041587,0.001000,0.001000,0.001000,0.001000,0.001000
1033.807692,-0.042159,0.001000,0.001000,0.001000,0.001000,0.001000
1033.826923,-0.042713,0.001000,0.001000,0.001000,0.001000,0.001000
1033.846154,-0.043248,0.001000,0.001000,0.001000,0.001000,0.001000
1033.865385,-0.043763,0.001000,0.001000,0.001000,0.001000,0.001000
1033.884615,-0.044260,0.001000,0.001000,0.001000,0.001000,0.001000
1033.903846,-0.044737,0.001000,0.001000,0.001000,0.001000,0.001000
1033.923077,-0.045195,0.001000,0.001000,0.001000,0.001000,0.001000
1033.942308,-0.045632,0.001000,0.001000,0.001000,0.001000,0.001000
1033.961538,-0.046050,0.001000,0.001000,0.001000,0.001000,0.001000
1033.980769,-0.046448,0.001000,0.001000,0.001000,0.001000,0.001000
1034.000000,-0.046825,0.001000,0.001000,0.001000,0.001000,0.001000
1034.019231,-0.047182,0.001000,0.001000,0.001000,0.001000,0.001000
1034.038462,-0.047518,0.001000,0.001000,0.001000,0.001000,0.001000
1034.057692,-0.047833,0.001000,0.001000,0.001000,0.001000,0.001000
1034.076923,-0.048127,0.001000,0.001000,0.001000,0.001000,0.001000
1034.096154,-0.048401,0.001000,0.001000,0.001000,0.001000,0.001000
1034.115385,-0.048653,0.001000,0.001000,0.001000,0.001000,0.001000
1034.134615,-0.048883,0.001000,0.001000,0.001000,0.001000,0.001000
1034.153846,-0.049093,0.001000,0.001000,0.001000,0.001000,0.001000
1034.173077,-0.049280,0.001000,0.001000,0.001000,0.001000,0.001000
1034.192308,-0.049446,0.001000,0.001000,0.001000,0.001000,0.001000
1034.211538,-0.049591,0.001000,0.001000,0.001000,0.001000,0.001000
1034.230769,-0.049714,0.001000,0.001000,0.001000,0.001000,0.001000
1034.250000,-0.049815,0.001000,0.001000,0.001000,0.001000,0.001000
1034.269231,-0.049894,0.001000,0.001000,0.001000,0.001000,0.001000
1034.288462,-0.049951,0.001000,0.001000,0.001000,0.001000,0.001000
1034.307692,-0.049986,0.001000,0.001000,0.001000,0.001000,0.001000
1034.326923,-0.050000,0.001000,0.001000,0.001000,0.001000,0.001000
1034.346154,-0.049991,0.001000,0.001000,0.001000,0.001000,0.001000
1034.365385,-0.049961,0.001000,0.001000,0.001000,0.001000,0.001000
1034.384615,-0.049909,0.001000,0.001000,0.001000,0.001000,0.001000
1034.403846,-0.049835,0.001000,0.001000,0.001000,0.001000,0.001000
1034.423077,-0.049739,0.001000,0.001000,0.001000,0.001000,0.001000
1034.442308,-0.049621,0.001000,0.001000,0.001000,0.001000,0.001000
1034.461538,-0.049482,0.001000,0.001000,0.001000,0.001000,0.001000
1034.480769,-0.049320,0.001000,0.001000,0.001000,0.001000,0.001000
1034.500000,-0.049138,0.001000,0.001000,0.001000,0.001000,0.001000
1034.519231,-0.048933,0.001000,0.001000,0.001000,0.001000,0.001000
1034.538462,-0.048708,0.001000,0.001000,0.001000,0.001000,0.001000
1034.557692,-0.048461,0.001000,0.001000,0.001000,0.001000,0.001000
1034.576923,-0.048192,0.001000,0.001000,0.001000,0.001000,0.001000
1034.596154,-0.047903,0.001000,0.001000,0.001000,0.001000,0.001000
1034.615385,-0.047592,0.001000,0.001000,0.001000,0.001000,0.001000
1034.634615,-0.047261,0.001000,0.001000,0.001000,0.001000,0.001000
1034.653846,-0.046909,0.001000,0.001000,0.001000,0.001000,0.001000
1034.673077,-0.046537,0.001000,0.001000,0.001000,0.001000,0.001000
