timestamp,ax,ay,az,gx,gy,gz
1000.000000,0.000000,0.001000,0.001000,0.001000,0.001000,0.001000
1000.019231,0.001032,0.001000,0.001000,0.001000,0.001000,0.001000
1000.038462,0.002064,0.001000,0.001000,0.001000,0.001000,0.001000
1000.057692,0.003095,0.001000,0.001000,0.001000,0.001000,0.001000
1000.076923,0.004125,0.001000,0.001000,0.001000,0.001000,0.001000
1000.096154,0.005153,0.001000,0.001000,0.001000,0.001000,0.001000
1000.115385,0.006179,0.001000,0.001000,0.001000,0.001000,0.001000
1000.134615,0.007202,0.001000,0.001000,0.001000,0.001000,0.001000
1000.153846,0.008222,0.001000,0.001000,0.001000,0.001000,0.001000
1000.173077,0.009238,0.001000,0.001000,0.001000,0.001000,0.001000
1000.192308,0.010251,0.001000,0.001000,0.001000,0.001000,0.001000
1000.211538,0.011259,0.001000,0.001000,0.001000,0.001000,0.001000
1000.230769,0.012263,0.001000,0.001000,0.001000,0.001000,0.001000
1000.250000,0.013261,0.001000,0.001000,0.001000,0.001000,0.001000
1000.269231,0.014253,0.001000,0.001000,0.001000,0.001000,0.001000
1000.288462,0.015240,0.001000,0.001000,0.001000,0.001000,0.001000
1000.307692,0.016220,0.001000,0.001000,0.001000,0.001000,0.001000
1000.326923,0.017193,0.001000,0.001000,0.001000,0.001000,0.001000
1000.346154,0.018158,0.001000,0.001000,0.001000,0.001000,0.001000
1000.365385,0.019116,0.001000,0.001000,0.001000,0.001000,0.001000
1000.384615,0.020066,0.001000,0.001000,0.001000,0.001000,0.001000
1000.403846,0.021008,0.001000,0.001000,0.001000,0.001000,0.001000
1000.423077,0.021940,0.001000,0.001000,0.001000,0.001000,0.001000
1000.442308,0.022863,0.001000,0.001000,0.001000,0.001000,0.001000
1000.461538,0.023776,0.001000,0.001000,0.001000,0.001000,0.001000
1000.480769,0.024679,0.001000,0.001000,0.001000,0.001000,0.001000
1000.500000,0.025572,0.001000,0.001000,0.001000,0.001000,0.001000
1000.519231,0.026453,0.001000,0.001000,0.001000,0.001000,0.001000
1000.538462,0.027324,0.001000,0.001000,0.001000,0.001000,0.001000
1000.557692,0.028182,0.001000,0.001000,0.001000,0.001000,0.001000
1000.576923,0.029029,0.001000,0.001000,0.001000,0.001000,0.001000
1000.596154,0.029864,0.001000,0.001000,0.001000,0.001000,0.001000
1000.615385,0.030685,0.001000,0.001000,0.001000,0.001000,0.001000
1000.634615,0.031494,0.001000,0.001000,0.001000,0.001000,0.001000
1000.653846,0.032289,0.001000,0.001000,0.001000,0.001000,0.001000
1000.673077,0.033070,0.001000,0.001000,0.001000,0.001000,0.001000
1000.692308,0.033837,0.001000,0.001000,0.001000,0.001000,0.001000
1000.711538,0.034590,0.001000,0.001000,0.001000,0.001000,0.001000
1000.730769,0.035328,0.001000,0.001000,0.001000,0.001000,0.001000
1000.750000,0.036051,0.001000,0.001000,0.001000,0.001000,0.001000
1000.769231,0.036759,0.001000,0.001000,0.001000,0.001000,0.001000
1000.788462,0.037451,0.001000,0.001000,0.001000,0.001000,0.001000
1000.807692,0.038127,0.001000,0.001000,0.001000,0.001000,0.001000
1000.826923,0.038787,0.001000,0.001000,0.001000,0.001000,0.001000
1000.846154,0.039430,0.001000,0.001000,0.001000,0.001000,0.001000
1000.865385,0.040056,0.001000,0.001000,0.001000,0.001000,0.001000
1000.884615,0.040665,0.001000,0.001000,0.001000,0.001000,0.001000
1000.903846,0.041257,0.001000,0.001000,0.001000,0.001000,0.001000
1000.923077,0.041832,0.001000,0.001000,0.001000,0.001000,0.001000
1000.942308,0.042388,0.001000,0.001000,0.001000,0.001000,0.001000
1000.961538,0.042927,0.001000,0.001000,0.001000,0.001000,0.001000
1000.980769,0.043447,0.001000,0.001000,0.001000,0.001000,0.001000
1001.000000,0.043949,0.001000,0.001000,0.001000,0.001000,0.001000
1001.019231,0.044432,0.001000,0.001000,0.001000,0.001000,0.001000
1001.038462,0.044896,0.001000,0.001000,0.001000,0.001000,0.001000
1001.057692,0.045340,0.001000,0.001000,0.001000,0.001000,0.001000
1001.076923,0.045766,0.001000,0.001000,0.001000,0.001000,0.001000
1001.096154,0.046172,0.001000,0.001000,0.001000,0.001000,0.001000
1001.115385,0.046558,0.001000,0.001000,0.001000,0.001000,0.001000
1001.134615,0.046925,0.001000,0.001000,0.001000,0.001000,0.001000
1001.153846,0.047271,0.001000,0.001000,0.001000,0.001000,0.001000
1001.173077,0.047597,0.001000,0.001000,0.001000,0.001000,0.001000
1001.192308,0.047903,0.001000,0.001000,0.001000,0.001000,0.001000
1001.211538,0.048189,0.001000,0.001000,0.001000,0.001000,0.001000
1001.230769,0.048454,0.001000,0.001000,0.001000,0.001000,0.001000
1001.250000,0.048699,0.001000,0.001000,0.001000,0.001000,0.001000
1001.269231,0.048922,0.001000,0.001000,0.001000,0.001000,0.001000
1001.288462,0.049125,0.001000,0.001000,0.001000,0.001000,0.001000
1001.307692,0.049307,0.001000,0.001000,0.001000,0.001000,0.001000
1001.326923,0.049468,0.001000,0.001000,0.001000,0.001000,0.001000
1001.346154,0.049607,0.001000,0.001000,0.001000,0.001000,0.001000
1001.365385,0.049726,0.001000,0.001000,0.001000,0.001000,0.001000
1001.384615,0.049823,0.001000,0.001000,0.001000,0.001000,0.001000
1001.403846,0.049899,0.001000,0.001000,0.001000,0.001000,0.001000
1001.423077,0.049954,0.001000,0.001000,0.001000,0.001000,0.001000
1001.442308,0.049988,0.001000,0.001000,0.001000,0.001000,0.001000
1001.461538,0.050000,0.001000,0.001000,0.001000,0.001000,0.001000
1001.480769,0.049991,0.001000,0.001000,0.001000,0.001000,0.001000
1001.500000,0.049960,0.001000,0.001000,0.001000,0.001000,0.001000
1001.519231,0.049909,0.001000,0.001000,0.001000,0.001000,0.001000
1001.538462,0.049836,0.001000,0.001000,0.001000,0.001000,0.001000
1001.557692,0.049742,0.001000,0.001000,0.001000,0.001000,0.001000
1001.576923,0.049626,0.001000,0.001000,0.001000,0.001000,0.001000
1001.596154,0.049490,0.001000,0.001000,0.001000,0.001000,0.001000
1001.615385,0.049332,0.001000,0.001000,0.001000,0.001000,0.001000
1001.634615,0.049153,0.001000,0.001000,0.001000,0.001000,0.001000
1001.653846,0.048954,0.001000,0.001000,0.001000,0.001000,0.001000
1001.673077,0.048733,0.001000,0.001000,0.001000,0.001000,0.001000
1001.692308,0.048492,0.001000,0.001000,0.001000,0.001000,0.001000
1001.711538,0.048230,0.001000,0.001000,0.001000,0.001000,0.001000
1001.730769,0.047947,0.001000,0.001000,0.001000,0.001000,0.001000
1001.750000,0.047644,0.001000,0.001000,0.001000,0.001000,0.001000
1001.769231,0.047321,0.001000,0.001000,0.001000,0.001000,0.001000
1001.788462,0.046977,0.001000,0.001000,0.001000,0.001000,0.001000
1001.807692,0.046614,0.001000,0.001000,0.001000,0.001000,0.001000
1001.826923,0.046231,0.001000,0.001000,0.001000,0.001000,0.001000
1001.846154,0.045827,0.001000,0.001000,0.001000,0.001000,0.001000
1001.865385,0.045405,0.001000,0.001000,0.001000,0.001000,0.001000
1001.884615,0.044963,0.001000,0.001000,0.001000,0.001000,0.001000
1001.903846,0.044502,0.001000,0.001000,0.001000,0.001000,0.001000
1001.923077,0.044022,0.001000,0.001000,0.001000,0.001000,0.001000
1001.942308,0.043523,0.001000,0.001000,0.001000,0.001000,0.001000
1001.961538,0.043005,0.001000,0.001000,0.001000,0.001000,0.001000
1001.980769,0.042470,0.001000,0.001000,0.001000,0.001000,0.001000
1002.000000,0.041916,0.001000,0.001000,0.001000,0.001000,0.001000
1002.019231,0.041344,0.001000,0.001000,0.001000,0.001000,0.001000
1002.038462,0.040755,0.001000,0.001000,0.001000,0.001000,0.001000
1002.057692,0.040148,0.001000,0.001000,0.001000,0.001000,0.001000
1002.076923,0.039524,0.001000,0.001000,0.001000,0.001000,0.001000
1002.096154,0.038883,0.001000,0.001000,0.001000,0.001000,0.001000
1002.115385,0.038226,0.001000,0.001000,0.001000,0.001000,0.001000
1002.134615,0.037552,0.001000,0.001000,0.001000,0.001000,0.001000
1002.153846,0.036863,0.001000,0.001000,0.001000,0.001000,0.001000
1002.173077,0.036157,0.001000,0.001000,0.001000,0.001000,0.001000
1002.192308,0.035437,0.001000,0.001000,0.001000,0.001000,0.001000
1002.211538,0.034701,0.001000,0.001000,0.001000,0.001000,0.001000
1002.230769,0.033950,0.001000,0.001000,0.001000,0.001000,0.001000
1002.250000,0.033185,0.001000,0.001000,0.001000,0.001000,0.001000
1002.269231,0.032406,0.001000,0.001000,0.001000,0.001000,0.001000
1002.288462,0.031613,0.001000,0.001000,0.001000,0.001000,0.001000
1002.307692,0.030806,0.001000,0.001000,0.001000,0.001000,0.001000
1002.326923,0.029986,0.001000,0.001000,0.001000,0.001000,0.001000
1002.346154,0.029154,0.001000,0.001000,0.001000,0.001000,0.001000
1002.365385,0.028309,0.001000,0.001000,0.001000,0.001000,0.001000
1002.384615,0.027452,0.001000,0.001000,0.001000,0.001000,0.001000
1002.403846,0.026583,0.001000,0.001000,0.001000,0.001000,0.001000
1002.423077,0.025703,0.001000,0.001000,0.001000,0.001000,0.001000
1002.442308,0.024812,0.001000,0.001000,0.001000,0.001000,0.001000
1002.461538,0.023911,0.001000,0.001000,0.001000,0.001000,0.001000
1002.480769,0.022999,0.001000,0.001000,0.001000,0.001000,0.001000
1002.500000,0.022078,0.001000,0.001000,0.001000,0.001000,0.001000
1002.519231,0.021147,0.001000,0.001000,0.001000,0.001000,0.001000
1002.538462,0.020207,0.001000,0.001000,0.001000,0.001000,0.001000
1002.557692,0.019258,0.001000,0.001000,0.001000,0.001000,0.001000
1002.576923,0.018301,0.001000,0.001000,0.001000,0.001000,0.001000
1002.596154,0.017337,0.001000,0.001000,0.001000,0.001000,0.001000
1002.615385,0.016365,0.001000,0.001000,0.001000,0.001000,0.001000
1002.634615,0.015386,0.001000,0.001000,0.001000,0.001000,0.001000
1002.653846,0.014400,0.001000,0.001000,0.001000,0.001000,0.001000
1002.673077,0.013409,0.001000,0.001000,0.001000,0.001000,0.001000
1002.692308,0.012411,0.001000,0.001000,0.001000,0.001000,0.001000
1002.711538,0.011409,0.001000,0.001000,0.001000,0.001000,0.001000
1002.730769,0.010401,0.001000,0.001000,0.001000,0.001000,0.001000
1002.750000,0.009389,0.001000,0.001000,0.001000,0.001000,0.001000
1002.769231,0.008373,0.001000,0.001000,0.001000,0.001000,0.001000
1002.788462,0.007354,0.001000,0.001000,0.001000,0.001000,0.001000
1002.807692,0.006331,0.001000,0.001000,0.001000,0.001000,0.001000
1002.826923,0.005305,0.001000,0.001000,0.001000,0.001000,0.001000
1002.846154,0.004278,0.001000,0.001000,0.001000,0.001000,0.001000
1002.865385,0.003248,0.001000,0.001000,0.001000,0.001000,0.001000
1002.884615,0.002217,0.001000,0.001000,0.001000,0.001000,0.001000
1002.903846,0.001186,0.001000,0.001000,0.001000,0.001000,0.001000
1002.923077,0.000153,0.001000,0.001000,0.001000,0.001000,0.001000
1002.942308,-0.000879,0.001000,0.001000,0.001000,0.001000,0.001000
1002.961538,-0.001911,0.001000,0.001000,0.001000,0.001000,0.001000
1002.980769,-0.002942,0.001000,0.001000,0.001000,0.001000,0.001000
1003.000000,-0.003972,0.001000,0.001000,0.001000,0.001000,0.001000
1003.019231,-0.005000,0.001000,0.001000,0.001000,0.001000,0.001000
1003.038462,-0.006026,0.001000,0.001000,0.001000,0.001000,0.001000
1003.057692,-0.007050,0.001000,0.001000,0.001000,0.001000,0.001000
1003.076923,-0.008070,0.001000,0.001000,0.001000,0.001000,0.001000
1003.096154,-0.009087,0.001000,0.001000,0.001000,0.001000,0.001000
1003.115385,-0.010101,0.001000,0.001000,0.001000,0.001000,0.001000
1003.134615,-0.011110,0.001000,0.001000,0.001000,0.001000,0.001000
1003.153846,-0.012114,0.001000,0.001000,0.001000,0.001000,0.001000
1003.173077,-0.013113,0.001000,0.001000,0.001000,0.001000,0.001000
1003.192308,-0.014106,0.001000,0.001000,0.001000,0.001000,0.001000
1003.211538,-0.015094,0.001000,0.001000,0.001000,0.001000,0.001000
1003.230769,-0.016075,0.001000,0.001000,0.001000,0.001000,0.001000
1003.250000,-0.017049,0.001000,0.001000,0.001000,0.001000,0.001000
1003.269231,-0.018015,0.001000,0.001000,0.001000,0.001000,0.001000
1003.288462,-0.018975,0.001000,0.001000,0.001000,0.001000,0.001000
1003.307692,-0.019926,0.001000,0.001000,0.001000,0.001000,0.001000
1003.326923,-0.020868,0.001000,0.001000,0.001000,0.001000,0.001000
1003.346154,-0.021802,0.001000,0.001000,0.001000,0.001000,0.001000
1003.365385,-0.022726,0.001000,0.001000,0.001000,0.001000,0.001000
1003.384615,-0.023641,0.001000,0.001000,0.001000,0.001000,0.001000
1003.403846,-0.024546,0.001000,0.001000,0.001000,0.001000,0.001000
1003.423077,-0.025440,0.001000,0.001000,0.001000,0.001000,0.001000
1003.442308,-0.026323,0.001000,0.001000,0.001000,0.001000,0.001000
1003.461538,-0.027195,0.001000,0.001000,0.001000,0.001000,0.001000
1003.480769,-0.028056,0.001000,0.001000,0.001000,0.001000,0.001000
1003.500000,-0.028904,0.001000,0.001000,0.001000,0.001000,0.001000
1003.519231,-0.029740,0.001000,0.001000,0.001000,0.001000,0.001000
1003.538462,-0.030564,0.001000,0.001000,0.001000,0.001000,0.001000
1003.557692,-0.031374,0.001000,0.001000,0.001000,0.001000,0.001000
1003.576923,-0.032171,0.001000,0.001000,0.001000,0.001000,0.001000
1003.596154,-0.032955,0.001000,0.001000,0.001000,0.001000,0.001000
1003.615385,-0.033724,0.001000,0.001000,0.001000,0.001000,0.001000
1003.634615,-0.034479,0.001000,0.001000,0.001000,0.001000,0.001000
1003.653846,-0.035219,0.001000,0.001000,0.001000,0.001000,0.001000
1003.673077,-0.035945,0.001000,0.001000,0.001000,0.001000,0.001000
1003.692308,-0.036655,0.001000,0.001000,0.001000,0.001000,0.001000
1003.711538,-0.037349,0.001000,0.001000,0.001000,0.001000,0.001000
1003.730769,-0.038027,0.001000,0.001000,0.001000,0.001000,0.001000
1003.750000,-0.038690,0.001000,0.001000,0.001000,0.001000,0.001000
1003.769231,-0.039335,0.001000,0.001000,0.001000,0.001000,0.001000
1003.788462,-0.039964,0.001000,0.001000,0.001000,0.001000,0.001000
1003.807692,-0.040576,0.001000,0.001000,0.001000,0.001000,0.001000
1003.826923,-0.041171,0.001000,0.001000,0.001000,0.001000,0.001000
1003.846154,-0.041748,0.001000,0.001000,0.001000,0.001000,0.001000
1003.865385,-0.042307,0.001000,0.001000,0.001000,0.001000,0.001000
1003.884615,-0.042848,0.001000,0.001000,0.001000,0.001000,0.001000
1003.903846,-0.043371,0.001000,0.001000,0.001000,0.001000,0.001000
1003.923077,-0.043875,0.001000,0.001000,0.001000,0.001000,0.001000
1003.942308,-0.044361,0.001000,0.001000,0.001000,0.001000,0.001000
1003.961538,-0.044828,0.001000,0.001000,0.001000,0.001000,0.001000
1003.980769,-0.045276,0.001000,0.001000,0.001000,0.001000,0.001000
1004.000000,-0.045704,0.001000,0.001000,0.001000,0.001000,0.001000
1004.019231,-0.046113,0.001000,0.001000,0.001000,0.001000,0.001000
1004.038462,-0.046502,0.001000,0.001000,0.001000,0.001000,0.001000
1004.057692,-0.046872,0.001000,0.001000,0.001000,0.001000,0.001000
1004.076923,-0.047221,0.001000,0.001000,0.001000,0.001000,0.001000
1004.096154,-0.047550,0.001000,0.001000,0.001000,0.001000,0.001000
1004.115385,-0.047859,0.001000,0.001000,0.001000,0.001000,0.001000
1004.134615,-0.048148,0.001000,0.001000,0.001000,0.001000,0.001000
1004.153846,-0.048416,0.001000,0.001000,0.001000,0.001000,0.001000
1004.173077,-0.048664,0.001000,0.001000,0.001000,0.001000,0.001000
1004.192308,-0.048890,0.001000,0.001000,0.001000,0.001000,0.001000
1004.211538,-0.049096,0.001000,0.001000,0.001000,0.001000,0.001000
1004.230769,-0.049281,0.001000,0.001000,0.001000,0.001000,0.001000
1004.250000,-0.049445,0.001000,0.001000,0.001000,0.001000,0.001000
1004.269231,-0.049588,0.001000,0.001000,0.001000,0.001000,0.001000
1004.288462,-0.049710,0.001000,0.001000,0.001000,0.001000,0.001000
1004.307692,-0.049810,0.001000,0.001000,0.001000,0.001000,0.001000
1004.326923,-0.049889,0.001000,0.001000,0.001000,0.001000,0.001000
1004.346154,-0.049947,0.001000,0.001000,0.001000,0.001000,0.001000
1004.365385,-0.049984,0.001000,0.001000,0.001000,0.001000,0.001000
1004.384615,-0.049999,0.001000,0.001000,0.001000,0.001000,0.001000
1004.403846,-0.049994,0.001000,0.001000,0.001000,0.001000,0.001000
1004.423077,-0.049966,0.001000,0.001000,0.001000,0.001000,0.001000
1004.442308,-0.049918,0.001000,0.001000,0.001000,0.001000,0.001000
1004.461538,-0.049848,0.001000,0.001000,0.001000,0.001000,0.001000
1004.480769,-0.049757,0.001000,0.001000,0.001000,0.001000,0.001000
1004.500000,-0.049645,0.001000,0.001000,0.001000,0.001000,0.001000
1004.519231,-0.049511,0.001000,0.001000,0.001000,0.001000,0.001000
1004.538462,-0.049357,0.001000,0.001000,0.001000,0.001000,0.001000
1004.557692,-0.049181,0.001000,0.001000,0.001000,0.001000,0.001000
1004.576923,-0.048985,0.001000,0.001000,0.001000,0.001000,0.001000
1004.596154,-0.048767,0.001000,0.001000,0.001000,0.001000,0.001000
1004.615385,-0.048529,0.001000,0.001000,0.001000,0.001000,0.001000
1004.634615,-0.048270,0.001000,0.001000,0.001000,0.001000,0.001000
1004.653846,-0.047990,0.001000,0.001000,0.001000,0.001000,0.001000
1004.673077,-0.047691,0.001000,0.001000,0.001000,0.001000,0.001000
1004.692308,-0.047370,0.001000,0.001000,0.001000,0.001000,0.001000
1004.711538,-0.047030,0.001000,0.001000,0.001000,0.001000,0.001000
1004.730769,-0.046669,0.001000,0.001000,0.001000,0.001000,0.001000
1004.750000,-0.046289,0.001000,0.001000,0.001000,0.001000,0.001000
1004.769231,-0.045889,0.001000,0.001000,0.001000,0.001000,0.001000
1004.788462,-0.045469,0.001000,0.001000,0.001000,0.001000,0.001000
1004.807692,-0.045030,0.001000,0.001000,0.001000,0.001000,0.001000
1004.826923,-0.044571,0.001000,0.001000,0.001000,0.001000,0.001000
1004.846154,-0.044094,0.001000,0.001000,0.001000,0.001000,0.001000
1004.865385,-0.043598,0.001000,0.001000,0.001000,0.001000,0.001000
1004.884615,-0.043083,0.001000,0.001000,0.001000,0.001000,0.001000
1004.903846,-0.042550,0.001000,0.001000,0.001000,0.001000,0.001000
1004.923077,-0.041999,0.001000,0.001000,0.001000,0.001000,0.001000
1004.942308,-0.041430,0.001000,0.001000,0.001000,0.001000,0.001000
1004.961538,-0.040843,0.001000,0.001000,0.001000,0.001000,0.001000
1004.980769,-0.040239,0.001000,0.001000,0.001000,0.001000,0.001000
1005.000000,-0.039618,0.001000,0.001000,0.001000,0.001000,0.001000
1005.019231,-0.038979,0.001000,0.001000,0.001000,0.001000,0.001000
1005.038462,-0.038325,0.001000,0.001000,0.001000,0.001000,0.001000
1005.057692,-0.037653,0.001000,0.001000,0.001000,0.001000,0.001000
1005.076923,-0.036966,0.001000,0.001000,0.001000,0.001000,0.001000
1005.096154,-0.036263,0.001000,0.001000,0.001000,0.001000,0.001000
1005.115385,-0.035545,0.001000,0.001000,0.001000,0.001000,0.001000
1005.134615,-0.034811,0.001000,0.001000,0.001000,0.001000,0.001000
1005.153846,-0.034063,0.001000,0.001000,0.001000,0.001000,0.001000
1005.173077,-0.033300,0.001000,0.001000,0.001000,0.001000,0.001000
1005.192308,-0.032522,0.001000,0.001000,0.001000,0.001000,0.001000
1005.211538,-0.031731,0.001000,0.001000,0.001000,0.001000,0.001000
1005.230769,-0.030927,0.001000,0.001000,0.001000,0.001000,0.001000
1005.250000,-0.030109,0.001000,0.001000,0.001000,0.001000,0.001000
1005.269231,-0.029278,0.001000,0.001000,0.001000,0.001000,0.001000
1005.288462,-0.028435,0.001000,0.001000,0.001000,0.001000,0.001000
1005.307692,-0.027580,0.001000,0.001000,0.001000,0.001000,0.001000
1005.326923,-0.026713,0.001000,0.001000,0.001000,0.001000,0.001000
1005.346154,-0.025835,0.001000,0.001000,0.001000,0.001000,0.001000
1005.365385,-0.024946,0.001000,0.001000,0.001000,0.001000,0.001000
1005.384615,-0.024046,0.001000,0.001000,0.001000,0.001000,0.001000
1005.403846,-0.023135,0.001000,0.001000,0.001000,0.001000,0.001000
1005.423077,-0.022215,0.001000,0.001000,0.001000,0.001000,0.001000
1005.442308,-0.021286,0.001000,0.001000,0.001000,0.001000,0.001000
1005.461538,-0.020347,0.001000,0.001000,0.001000,0.001000,0.001000
1005.480769,-0.019400,0.001000,0.001000,0.001000,0.001000,0.001000
1005.500000,-0.018444,0.001000,0.001000,0.001000,0.001000,0.001000
1005.519231,-0.017481,0.001000,0.001000,0.001000,0.001000,0.001000
1005.538462,-0.016510,0.001000,0.001000,0.001000,0.001000,0.001000
1005.557692,-0.015532,0.001000,0.001000,0.001000,0.001000,0.001000
1005.576923,-0.014547,0.001000,0.001000,0.001000,0.001000,0.001000
1005.596154,-0.013556,0.001000,0.001000,0.001000,0.001000,0.001000
1005.615385,-0.012560,0.001000,0.001000,0.001000,0.001000,0.001000
1005.634615,-0.011558,0.001000,0.001000,0.001000,0.001000,0.001000
1005.653846,-0.010551,0.001000,0.001000,0.001000,0.001000,0.001000
1005.673077,-0.009540,0.001000,0.001000,0.001000,0.001000,0.001000
1005.692308,-0.008524,0.001000,0.001000,0.001000,0.001000,0.001000
1005.711538,-0.007505,0.001000,0.001000,0.001000,0.001000,0.001000
1005.730769,-0.006483,0.001000,0.001000,0.001000,0.001000,0.001000
1005.750000,-0.005458,0.001000,0.001000,0.001000,0.001000,0.001000
1005.769231,-0.004431,0.001000,0.001000,0.001000,0.001000,0.001000
1005.788462,-0.003401,0.001000,0.001000,0.001000,0.001000,0.001000
1005.807692,-0.002371,0.001000,0.001000,0.001000,0.001000,0.001000
1005.826923,-0.001339,0.001000,0.001000,0.001000,0.001000,0.001000
1005.846154,-0.000307,0.001000,0.001000,0.001000,0.001000,0.001000
1005.865385,0.000726,0.001000,0.001000,0.001000,0.001000,0.001000
1005.884615,0.001758,0.001000,0.001000,0.001000,0.001000,0.001000
1005.903846,0.002789,0.001000,0.001000,0.001000,0.001000,0.001000
1005.923077,0.003819,0.001000,0.001000,0.001000,0.001000,0.001000
1005.942308,0.004848,0.001000,0.001000,0.001000,0.001000,0.001000
1005.961538,0.005874,0.001000,0.001000,0.001000,0.001000,0.001000
1005.980769,0.006898,0.001000,0.001000,0.001000,0.001000,0.001000
1006.000000,0.007919,0.001000,0.001000,0.001000,0.001000,0.001000
1006.019231,0.008937,0.001000,0.001000,0.001000,0.001000,0.001000
1006.038462,0.009950,0.001000,0.001000,0.001000,0.001000,0.001000
1006.057692,0.010960,0.001000,0.001000,0.001000,0.001000,0.001000
1006.076923,0.011965,0.001000,0.001000,0.001000,0.001000,0.001000
1006.096154,0.012965,0.001000,0.001000,0.001000,0.001000,0.001000
1006.115385,0.013959,0.001000,0.001000,0.001000,0.001000,0.001000
1006.134615,0.014947,0.001000,0.001000,0.001000,0.001000,0.001000
1006.153846,0.015929,0.001000,0.001000,0.001000,0.001000,0.001000
1006.173077,0.016904,0.001000,0.001000,0.001000,0.001000,0.001000
1006.192308,0.017872,0.001000,0.001000,0.001000,0.001000,0.001000
1006.211538,0.018833,0.001000,0.001000,0.001000,0.001000,0.001000
1006.230769,0.019785,0.001000,0.001000,0.001000,0.001000,0.001000
1006.250000,0.020729,0.001000,0.001000,0.001000,0.001000,0.001000
1006.269231,0.021664,0.001000,0.001000,0.001000,0.001000,0.001000
1006.288462,0.022590,0.001000,0.001000,0.001000,0.001000,0.001000
1006.307692,0.023506,0.001000,0.001000,0.001000,0.001000,0.001000
1006.326923,0.024412,0.001000,0.001000,0.001000,0.001000,0.001000
1006.346154,0.025308,0.001000,0.001000,0.001000,0.001000,0.001000
1006.365385,0.026193,0.001000,0.001000,0.001000,0.001000,0.001000
1006.384615,0.027066,0.001000,0.001000,0.001000,0.001000,0.001000
1006.403846,0.027929,0.001000,0.001000,0.001000,0.001000,0.001000
1006.423077,0.028779,0.001000,0.001000,0.001000,0.001000,0.001000
1006.442308,0.029617,0.001000,0.001000,0.001000,0.001000,0.001000
1006.461538,0.030442,0.001000,0.001000,0.001000,0.001000,0.001000
1006.480769,0.031255,0.001000,0.001000,0.001000,0.001000,0.001000
1006.500000,0.032054,0.001000,0.001000,0.001000,0.001000,0.001000
1006.519231,0.032839,0.001000,0.001000,0.001000,0.001000,0.001000
1006.538462,0.033611,0.001000,0.001000,0.001000,0.001000,0.001000
1006.557692,0.034368,0.001000,0.001000,0.001000,0.001000,0.001000
1006.576923,0.035110,0.001000,0.001000,0.001000,0.001000,0.001000
1006.596154,0.035838,0.001000,0.001000,0.001000,0.001000,0.001000
1006.615385,0.036550,0.001000,0.001000,0.001000,0.001000,0.001000
1006.634615,0.037247,0.001000,0.001000,0.001000,0.001000,0.001000
1006.653846,0.037928,0.001000,0.001000,0.001000,0.001000,0.001000
1006.673077,0.038592,0.001000,0.001000,0.001000,0.001000,0.001000
1006.692308,0.039240,0.001000,0.001000,0.001000,0.001000,0.001000
1006.711538,0.039872,0.001000,0.001000,0.001000,0.001000,0.001000
1006.730769,0.040486,0.001000,0.001000,0.001000,0.001000,0.001000
1006.750000,0.041083,0.001000,0.001000,0.001000,0.001000,0.001000
1006.769231,0.041663,0.001000,0.001000,0.001000,0.001000,0.001000
1006.788462,0.042225,0.001000,0.001000,0.001000,0.001000,0.001000
1006.807692,0.042769,0.001000,0.001000,0.001000,0.001000,0.001000
1006.826923,0.043294,0.001000,0.001000,0.001000,0.001000,0.001000
1006.846154,0.043802,0.001000,0.001000,0.001000,0.001000,0.001000
1006.865385,0.044290,0.001000,0.001000,0.001000,0.001000,0.001000
1006.884615,0.044760,0.001000,0.001000,0.001000,0.001000,0.001000
1006.903846,0.045210,0.001000,0.001000,0.001000,0.001000,0.001000
1006.923077,0.045642,0.001000,0.001000,0.001000,0.001000,0.001000
1006.942308,0.046053,0.001000,0.001000,0.001000,0.001000,0.001000
1006.961538,0.046446,0.001000,0.001000,0.001000,0.001000,0.001000
1006.980769,0.046818,0.001000,0.001000,0.001000,0.001000,0.001000
1007.000000,0.047170,0.001000,0.001000,0.001000,0.001000,0.001000
1007.019231,0.047503,0.001000,0.001000,0.001000,0.001000,0.001000
1007.038462,0.047815,0.001000,0.001000,0.001000,0.001000,0.001000
1007.057692,0.048106,0.001000,0.001000,0.001000,0.001000,0.001000
1007.076923,0.048378,0.001000,0.001000,0.001000,0.001000,0.001000
1007.096154,0.048628,0.001000,0.001000,0.001000,0.001000,0.001000
1007.115385,0.048858,0.001000,0.001000,0.001000,0.001000,0.001000
1007.134615,0.049067,0.001000,0.001000,0.001000,0.001000,0.001000
1007.153846,0.049255,0.001000,0.001000,0.001000,0.001000,0.001000
1007.173077,0.049422,0.001000,0.001000,0.001000,0.001000,0.001000
1007.192308,0.049568,0.001000,0.001000,0.001000,0.001000,0.001000
1007.211538,0.049693,0.001000,0.001000,0.001000,0.001000,0.001000
1007.230769,0.049796,0.001000,0.001000,0.001000,0.001000,0.001000
1007.250000,0.049879,0.001000,0.001000,0.001000,0.001000,0.001000
1007.269231,0.049940,0.001000,0.001000,0.001000,0.001000,0.001000
1007.288462,0.049980,0.001000,0.001000,0.001000,0.001000,0.001000
1007.307692,0.049999,0.001000,0.001000,0.001000,0.001000,0.001000
1007.326923,0.049996,0.001000,0.001000,0.001000,0.001000,0.001000
1007.346154,0.049972,0.001000,0.001000,0.001000,0.001000,0.001000
1007.365385,0.049926,0.001000,0.001000,0.001000,0.001000,0.001000
1007.384615,0.049860,0.001000,0.001000,0.001000,0.001000,0.001000
1007.403846,0.049772,0.001000,0.001000,0.001000,0.001000,0.001000
1007.423077,0.049663,0.001000,0.001000,0.001000,0.001000,0.001000
1007.442308,0.049532,0.001000,0.001000,0.001000,0.001000,0.001000
1007.461538,0.049381,0.001000,0.001000,0.001000,0.001000,0.001000
1007.480769,0.049209,0.001000,0.001000,0.001000,0.001000,0.001000
1007.500000,0.049015,0.001000,0.001000,0.001000,0.001000,0.001000
1007.519231,0.048801,0.001000,0.001000,0.001000,0.001000,0.001000
1007.538462,0.048566,0.001000,0.001000,0.001000,0.001000,0.001000
1007.557692,0.048310,0.001000,0.001000,0.001000,0.001000,0.001000
1007.576923,0.048033,0.001000,0.001000,0.001000,0.001000,0.001000
1007.596154,0.047736,0.001000,0.001000,0.001000,0.001000,0.001000
1007.615385,0.047419,0.001000,0.001000,0.001000,0.001000,0.001000
1007.634615,0.047082,0.001000,0.001000,0.001000,0.001000,0.001000
1007.653846,0.046724,0.001000,0.001000,0.001000,0.001000,0.001000
1007.673077,0.046347,0.001000,0.001000,0.001000,0.001000,0.001000
1007.692308,0.045949,0.001000,0.001000,0.001000,0.001000,0.001000
1007.711538,0.045533,0.001000,0.001000,0.001000,0.001000,0.001000
1007.730769,0.045096,0.001000,0.001000,0.001000,0.001000,0.001000
1007.750000,0.044641,0.001000,0.001000,0.001000,0.001000,0.001000
1007.769231,0.044166,0.001000,0.001000,0.001000,0.001000,0.001000
1007.788462,0.043673,0.001000,0.001000,0.001000,0.001000,0.001000
1007.807692,0.043161,0.001000,0.001000,0.001000,0.001000,0.001000
1007.826923,0.042631,0.001000,0.001000,0.001000,0.001000,0.001000
1007.846154,0.042082,0.001000,0.001000,0.001000,0.001000,0.001000
1007.865385,0.041516,0.001000,0.001000,0.001000,0.001000,0.001000
1007.884615,0.040931,0.001000,0.001000,0.001000,0.001000,0.001000
1007.903846,0.040330,0.001000,0.001000,0.001000,0.001000,0.001000
1007.923077,0.039711,0.001000,0.001000,0.001000,0.001000,0.001000
1007.942308,0.039075,0.001000,0.001000,0.001000,0.001000,0.001000
1007.961538,0.038423,0.001000,0.001000,0.001000,0.001000,0.001000
1007.980769,0.037754,0.001000,0.001000,0.001000,0.001000,0.001000
1008.000000,0.037069,0.001000,0.001000,0.001000,0.001000,0.001000
1008.019231,0.036369,0.001000,0.001000,0.001000,0.001000,0.001000
1008.038462,0.035652,0.001000,0.001000,0.001000,0.001000,0.001000
1008.057692,0.034921,0.001000,0.001000,0.001000,0.001000,0.001000
1008.076923,0.034175,0.001000,0.001000,0.001000,0.001000,0.001000
1008.096154,0.033414,0.001000,0.001000,0.001000,0.001000,0.001000
1008.115385,0.032639,0.001000,0.001000,0.001000,0.001000,0.001000
1008.134615,0.031850,0.001000,0.001000,0.001000,0.001000,0.001000
1008.153846,0.031047,0.001000,0.001000,0.001000,0.001000,0.001000
1008.173077,0.030231,0.001000,0.001000,0.001000,0.001000,0.001000
1008.192308,0.029403,0.001000,0.001000,0.001000,0.001000,0.001000
1008.211538,0.028561,0.001000,0.001000,0.001000,0.001000,0.001000
1008.230769,0.027708,0.001000,0.001000,0.001000,0.001000,0.001000
1008.250000,0.026843,0.001000,0.001000,0.001000,0.001000,0.001000
1008.269231,0.025966,0.001000,0.001000,0.001000,0.001000,0.001000
1008.288462,0.025078,0.001000,0.001000,0.001000,0.001000,0.001000
1008.307692,0.024180,0.001000,0.001000,0.001000,0.001000,0.001000
1008.326923,0.023271,0.001000,0.001000,0.001000,0.001000,0.001000
1008.346154,0.022352,0.001000,0.001000,0.001000,0.001000,0.001000
1008.365385,0.021424,0.001000,0.001000,0.001000,0.001000,0.001000
1008.384615,0.020487,0.001000,0.001000,0.001000,0.001000,0.001000
1008.403846,0.019541,0.001000,0.001000,0.001000,0.001000,0.001000
1008.423077,0.018586,0.001000,0.001000,0.001000,0.001000,0.001000
1008.442308,0.017624,0.001000,0.001000,0.001000,0.001000,0.001000
1008.461538,0.016654,0.001000,0.001000,0.001000,0.001000,0.001000
1008.480769,0.015677,0.001000,0.001000,0.001000,0.001000,0.001000
1008.500000,0.014694,0.001000,0.001000,0.001000,0.001000,0.001000
1008.519231,0.013704,0.001000,0.001000,0.001000,0.001000,0.001000
1008.538462,0.012708,0.001000,0.001000,0.001000,0.001000,0.001000
1008.557692,0.011707,0.001000,0.001000,0.001000,0.001000,0.001000
1008.576923,0.010701,0.001000,0.001000,0.001000,0.001000,0.001000
1008.596154,0.009690,0.001000,0.001000,0.001000,0.001000,0.001000
1008.615385,0.008675,0.001000,0.001000,0.001000,0.001000,0.001000
1008.634615,0.007657,0.001000,0.001000,0.001000,0.001000,0.001000
1008.653846,0.006635,0.001000,0.001000,0.001000,0.001000,0.001000
1008.673077,0.005610,0.001000,0.001000,0.001000,0.001000,0.001000
1008.692308,0.004583,0.001000,0.001000,0.001000,0.001000,0.001000
1008.711538,0.003554,0.001000,0.001000,0.001000,0.001000,0.001000
1008.730769,0.002524,0.001000,0.001000,0.001000,0.001000,0.001000
1008.750000,0.001492,0.001000,0.001000,0.001000,0.001000,0.001000
1008.769231,0.000460,0.001000,0.001000,0.001000,0.001000,0.001000
1008.788462,-0.000572,0.001000,0.001000,0.001000,0.001000,0.001000
1008.807692,-0.001604,0.001000,0.001000,0.001000,0.001000,0.001000
1008.826923,-0.002636,0.001000,0.001000,0.001000,0.001000,0.001000
1008.846154,-0.003666,0.001000,0.001000,0.001000,0.001000,0.001000
1008.865385,-0.004695,0.001000,0.001000,0.001000,0.001000,0.001000
1008.884615,-0.005722,0.001000,0.001000,0.001000,0.001000,0.001000
1008.903846,-0.006746,0.001000,0.001000,0.001000,0.001000,0.001000
1008.923077,-0.007767,0.001000,0.001000,0.001000,0.001000,0.001000
1008.942308,-0.008786,0.001000,0.001000,0.001000,0.001000,0.001000
1008.961538,-0.009800,0.001000,0.001000,0.001000,0.001000,0.001000
1008.980769,-0.010810,0.001000,0.001000,0.001000,0.001000,0.001000
1009.000000,-0.011816,0.001000,0.001000,0.001000,0.001000,0.001000
1009.019231,-0.012816,0.001000,0.001000,0.001000,0.001000,0.001000
1009.038462,-0.013812,0.001000,0.001000,0.001000,0.001000,0.001000
1009.057692,-0.014801,0.001000,0.001000,0.001000,0.001000,0.001000
1009.076923,-0.015784,0.001000,0.001000,0.001000,0.001000,0.001000
1009.096154,-0.016760,0.001000,0.001000,0.001000,0.001000,0.001000
1009.115385,-0.017729,0.001000,0.001000,0.001000,0.001000,0.001000
1009.134615,-0.018690,0.001000,0.001000,0.001000,0.001000,0.001000
1009.153846,-0.019644,0.001000,0.001000,0.001000,0.001000,0.001000
1009.173077,-0.020589,0.001000,0.001000,0.001000,0.001000,0.001000
1009.192308,-0.021525,0.001000,0.001000,0.001000,0.001000,0.001000
1009.211538,-0.022453,0.001000,0.001000,0.001000,0.001000,0.001000
1009.230769,-0.023370,0.001000,0.001000,0.001000,0.001000,0.001000
1009.250000,-0.024278,0.001000,0.001000,0.001000,0.001000,0.001000
1009.269231,-0.025175,0.001000,0.001000,0.001000,0.001000,0.001000
1009.288462,-0.026062,0.001000,0.001000,0.001000,0.001000,0.001000
1009.307692,-0.026937,0.001000,0.001000,0.001000,0.001000,0.001000
1009.326923,-0.027801,0.001000,0.001000,0.001000,0.001000,0.001000
1009.346154,-0.028653,0.001000,0.001000,0.001000,0.001000,0.001000
1009.365385,-0.029493,0.001000,0.001000,0.001000,0.001000,0.001000
1009.384615,-0.030320,0.001000,0.001000,0.001000,0.001000,0.001000
1009.403846,-0.031135,0.001000,0.001000,0.001000,0.001000,0.001000
1009.423077,-0.031936,0.001000,0.001000,0.001000,0.001000,0.001000
1009.442308,-0.032724,0.001000,0.001000,0.001000,0.001000,0.001000
1009.461538,-0.033497,0.001000,0.001000,0.001000,0.001000,0.001000
1009.480769,-0.034256,0.001000,0.001000,0.001000,0.001000,0.001000
1009.500000,-0.035001,0.001000,0.001000,0.001000,0.001000,0.001000
1009.519231,-0.035731,0.001000,0.001000,0.001000,0.001000,0.001000
1009.538462,-0.036445,0.001000,0.001000,0.001000,0.001000,0.001000
1009.557692,-0.037144,0.001000,0.001000,0.001000,0.001000,0.001000
1009.576923,-0.037827,0.001000,0.001000,0.001000,0.001000,0.001000
1009.596154,-0.038494,0.001000,0.001000,0.001000,0.001000,0.001000
1009.615385,-0.039145,0.001000,0.001000,0.001000,0.001000,0.001000
1009.634615,-0.039779,0.001000,0.001000,0.001000,0.001000,0.001000
1009.653846,-0.040396,0.001000,0.001000,0.001000,0.001000,0.001000
1009.673077,-0.040996,0.001000,0.001000,0.001000,0.001000,0.001000
1009.692308,-0.041578,0.001000,0.001000,0.001000,0.001000,0.001000
1009.711538,-0.042142,0.001000,0.001000,0.001000,0.001000,0.001000
1009.730769,-0.042689,0.001000,0.001000,0.001000,0.001000,0.001000
1009.750000,-0.043217,0.001000,0.001000,0.001000,0.001000,0.001000
1009.769231,-0.043727,0.001000,0.001000,0.001000,0.001000,0.001000
1009.788462,-0.044219,0.001000,0.001000,0.001000,0.001000,0.001000
1009.807692,-0.044691,0.001000,0.001000,0.001000,0.001000,0.001000
1009.826923,-0.045145,0.001000,0.001000,0.001000,0.001000,0.001000
1009.846154,-0.045579,0.001000,0.001000,0.001000,0.001000,0.001000
1009.865385,-0.045993,0.001000,0.001000,0.001000,0.001000,0.001000
1009.884615,-0.046388,0.001000,0.001000,0.001000,0.001000,0.001000
1009.903846,-0.046764,0.001000,0.001000,0.001000,0.001000,0.001000
1009.923077,-0.047119,0.001000,0.001000,0.001000,0.001000,0.001000
1009.942308,-0.047455,0.001000,0.001000,0.001000,0.001000,0.001000
1009.961538,-0.047770,0.001000,0.001000,0.001000,0.001000,0.001000
1009.980769,-0.048064,0.001000,0.001000,0.001000,0.001000,0.001000
1010.000000,-0.048339,0.001000,0.001000,0.001000,0.001000,0.001000
1010.019231,-0.048592,0.001000,0.001000,0.001000,0.001000,0.001000
1010.038462,-0.048825,0.001000,0.001000,0.001000,0.001000,0.001000
1010.057692,-0.049037,0.001000,0.001000,0.001000,0.001000,0.001000
1010.076923,-0.049228,0.001000,0.001000,0.001000,0.001000,0.001000
1010.096154,-0.049398,0.001000,0.001000,0.001000,0.001000,0.001000
1010.115385,-0.049548,0.001000,0.001000,0.001000,0.001000,0.001000
1010.134615,-0.049676,0.001000,0.001000,0.001000,0.001000,0.001000
1010.153846,-0.049782,0.001000,0.001000,0.001000,0.001000,0.001000
1010.173077,-0.049868,0.001000,0.001000,0.001000,0.001000,0.001000
1010.192308,-0.049932,0.001000,0.001000,0.001000,0.001000,0.001000
1010.211538,-0.049975,0.001000,0.001000,0.001000,0.001000,0.001000
1010.230769,-0.049997,0.001000,0.001000,0.001000,0.001000,0.001000
1010.250000,-0.049998,0.001000,0.001000,0.001000,0.001000,0.001000
1010.269231,-0.049977,0.001000,0.001000,0.001000,0.001000,0.001000
1010.288462,-0.049934,0.001000,0.001000,0.001000,0.001000,0.001000
1010.307692,-0.049871,0.001000,0.001000,0.001000,0.001000,0.001000
1010.326923,-0.049786,0.001000,0.001000,0.001000,0.001000,0.001000
1010.346154,-0.049680,0.001000,0.001000,0.001000,0.001000,0.001000
1010.365385,-0.049553,0.001000,0.001000,0.001000,0.001000,0.001000
1010.384615,-0.049405,0.001000,0.001000,0.001000,0.001000,0.001000
1010.403846,-0.049235,0.001000,0.001000,0.001000,0.001000,0.001000
1010.423077,-0.049045,0.001000,0.001000,0.001000,0.001000,0.001000
1010.442308,-0.048834,0.001000,0.001000,0.001000,0.001000,0.001000
1010.461538,-0.048602,0.001000,0.001000,0.001000,0.001000,0.001000
1010.480769,-0.048349,0.001000,0.001000,0.001000,0.001000,0.001000
1010.500000,-0.048076,0.001000,0.001000,0.001000,0.001000,0.001000
1010.519231,-0.047782,0.001000,0.001000,0.001000,0.001000,0.001000
1010.538462,-0.047468,0.001000,0.001000,0.001000,0.001000,0.001000
1010.557692,-0.047133,0.001000,0.001000,0.001000,0.001000,0.001000
1010.576923,-0.046778,0.001000,0.001000,0.001000,0.001000,0.001000
1010.596154,-0.046404,0.001000,0.001000,0.001000,0.001000,0.001000
1010.615385,-0.046010,0.001000,0.001000,0.001000,0.001000,0.001000
1010.634615,-0.045596,0.001000,0.001000,0.001000,0.001000,0.001000
1010.653846,-0.045162,0.001000,0.001000,0.001000,0.001000,0.001000
1010.673077,-0.044710,0.001000,0.001000,0.001000,0.001000,0.001000
1010.692308,-0.044238,0.001000,0.001000,0.001000,0.001000,0.001000
1010.711538,-0.043747,0.001000,0.001000,0.001000,0.001000,0.001000
1010.730769,-0.043238,0.001000,0.001000,0.001000,0.001000,0.001000
1010.750000,-0.042711,0.001000,0.001000,0.001000,0.001000,0.001000
1010.769231,-0.042165,0.001000,0.001000,0.001000,0.001000,0.001000
1010.788462,-0.041601,0.001000,0.001000,0.001000,0.001000,0.001000
1010.807692,-0.041019,0.001000,0.001000,0.001000,0.001000,0.001000
1010.826923,-0.040420,0.001000,0.001000,0.001000,0.001000,0.001000
1010.846154,-0.039804,0.001000,0.001000,0.001000,0.001000,0.001000
1010.865385,-0.039171,0.001000,0.001000,0.001000,0.001000,0.001000
1010.884615,-0.038521,0.001000,0.001000,0.001000,0.001000,0.001000
1010.903846,-0.037855,0.001000,0.001000,0.001000,0.001000,0.001000
1010.923077,-0.037172,0.001000,0.001000,0.001000,0.001000,0.001000
1010.942308,-0.036474,0.001000,0.001000,0.001000,0.001000,0.001000
1010.961538,-0.035760,0.001000,0.001000,0.001000,0.001000,0.001000
1010.980769,-0.035031,0.001000,0.001000,0.001000,0.001000,0.001000
1011.000000,-0.034287,0.001000,0.001000,0.001000,0.001000,0.001000
1011.019231,-0.033528,0.001000,0.001000,0.001000,0.001000,0.001000
1011.038462,-0.032755,0.001000,0.001000,0.001000,0.001000,0.001000
1011.057692,-0.031968,0.001000,0.001000,0.001000,0.001000,0.001000
1011.076923,-0.031167,0.001000,0.001000,0.001000,0.001000,0.001000
1011.096154,-0.030353,0.001000,0.001000,0.001000,0.001000,0.001000
1011.115385,-0.029527,0.001000,0.001000,0.001000,0.001000,0.001000
1011.134615,-0.028687,0.001000,0.001000,0.001000,0.001000,0.001000
1011.153846,-0.027836,0.001000,0.001000,0.001000,0.001000,0.001000
1011.173077,-0.026972,0.001000,0.001000,0.001000,0.001000,0.001000
1011.192308,-0.026097,0.001000,0.001000,0.001000,0.001000,0.001000
1011.211538,-0.025211,0.001000,0.001000,0.001000,0.001000,0.001000
1011.230769,-0.024314,0.001000,0.001000,0.001000,0.001000,0.001000
1011.250000,-0.023407,0.001000,0.001000,0.001000,0.001000,0.001000
1011.269231,-0.022490,0.001000,0.001000,0.001000,0.001000,0.001000
1011.288462,-0.021563,0.001000,0.001000,0.001000,0.001000,0.001000
1011.307692,-0.020627,0.001000,0.001000,0.001000,0.001000,0.001000
1011.326923,-0.019682,0.001000,0.001000,0.001000,0.001000,0.001000
1011.346154,-0.018729,0.001000,0.001000,0.001000,0.001000,0.001000
1011.365385,-0.017768,0.001000,0.001000,0.001000,0.001000,0.001000
1011.384615,-0.016799,0.001000,0.001000,0.001000,0.001000,0.001000
1011.403846,-0.015823,0.001000,0.001000,0.001000,0.001000,0.001000
1011.423077,-0.014840,0.001000,0.001000,0.001000,0.001000,0.001000
1011.442308,-0.013851,0.001000,0.001000,0.001000,0.001000,0.001000
1011.461538,-0.012856,0.001000,0.001000,0.001000,0.001000,0.001000
1011.480769,-0.011856,0.001000,0.001000,0.001000,0.001000,0.001000
1011.500000,-0.010851,0.001000,0.001000,0.001000,0.001000,0.001000
1011.519231,-0.009841,0.001000,0.001000,0.001000,0.001000,0.001000
1011.538462,-0.008826,0.001000,0.001000,0.001000,0.001000,0.001000
1011.557692,-0.007808,0.001000,0.001000,0.001000,0.001000,0.001000
1011.576923,-0.006787,0.001000,0.001000,0.001000,0.001000,0.001000
1011.596154,-0.005763,0.001000,0.001000,0.001000,0.001000,0.001000
1011.615385,-0.004736,0.001000,0.001000,0.001000,0.001000,0.001000
1011.634615,-0.003707,0.001000,0.001000,0.001000,0.001000,0.001000
1011.653846,-0.002677,0.001000,0.001000,0.001000,0.001000,0.001000
1011.673077,-0.001646,0.001000,0.001000,0.001000,0.001000,0.001000
1011.692308,-0.000614,0.001000,0.001000,0.001000,0.001000,0.001000
1011.711538,0.000419,0.001000,0.001000,0.001000,0.001000,0.001000
1011.730769,0.001451,0.001000,0.001000,0.001000,0.001000,0.001000
1011.750000,0.002483,0.001000,0.001000,0.001000,0.001000,0.001000
1011.769231,0.003513,0.001000,0.001000,0.001000,0.001000,0.001000
1011.788462,0.004542,0.001000,0.001000,0.001000,0.001000,0.001000
1011.807692,0.005569,0.001000,0.001000,0.001000,0.001000,0.001000
1011.826923,0.006594,0.001000,0.001000,0.001000,0.001000,0.001000
1011.846154,0.007616,0.001000,0.001000,0.001000,0.001000,0.001000
1011.865385,0.008635,0.001000,0.001000,0.001000,0.001000,0.001000
1011.884615,0.009650,0.001000,0.001000,0.001000,0.001000,0.001000
1011.903846,0.010660,0.001000,0.001000,0.001000,0.001000,0.001000
1011.923077,0.011667,0.001000,0.001000,0.001000,0.001000,0.001000
1011.942308,0.012668,0.001000,0.001000,0.001000,0.001000,0.001000
1011.961538,0.013664,0.001000,0.001000,0.001000,0.001000,0.001000
1011.980769,0.014654,0.001000,0.001000,0.001000,0.001000,0.001000
1012.000000,0.015638,0.001000,0.001000,0.001000,0.001000,0.001000
1012.019231,0.016615,0.001000,0.001000,0.001000,0.001000,0.001000
1012.038462,0.017585,0.001000,0.001000,0.001000,0.001000,0.001000
1012.057692,0.018548,0.001000,0.001000,0.001000,0.001000,0.001000
1012.076923,0.019503,0.001000,0.001000,0.001000,0.001000,0.001000
1012.096154,0.020449,0.001000,0.001000,0.001000,0.001000,0.001000
1012.115385,0.021387,0.001000,0.001000,0.001000,0.001000,0.001000
1012.134615,0.022315,0.001000,0.001000,0.001000,0.001000,0.001000
1012.153846,0.023234,0.001000,0.001000,0.001000,0.001000,0.001000
1012.173077,0.024144,0.001000,0.001000,0.001000,0.001000,0.001000
1012.192308,0.025042,0.001000,0.001000,0.001000,0.001000,0.001000
1012.211538,0.025931,0.001000,0.001000,0.001000,0.001000,0.001000
1012.230769,0.026808,0.001000,0.001000,0.001000,0.001000,0.001000
1012.250000,0.027674,0.001000,0.001000,0.001000,0.001000,0.001000
1012.269231,0.028527,0.001000,0.001000,0.001000,0.001000,0.001000
1012.288462,0.029369,0.001000,0.001000,0.001000,0.001000,0.001000
1012.307692,0.030198,0.001000,0.001000,0.001000,0.001000,0.001000
1012.326923,0.031015,0.001000,0.001000,0.001000,0.001000,0.001000
1012.346154,0.031818,0.001000,0.001000,0.001000,0.001000,0.001000
1012.365385,0.032607,0.001000,0.001000,0.001000,0.001000,0.001000
1012.384615,0.033383,0.001000,0.001000,0.001000,0.001000,0.001000
1012.403846,0.034144,0.001000,0.001000,0.001000,0.001000,0.001000
1012.423077,0.034891,0.001000,0.001000,0.001000,0.001000,0.001000
1012.442308,0.035623,0.001000,0.001000,0.001000,0.001000,0.001000
1012.461538,0.036340,0.001000,0.001000,0.001000,0.001000,0.001000
1012.480769,0.037041,0.001000,0.001000,0.001000,0.001000,0.001000
1012.500000,0.037727,0.001000,0.001000,0.001000,0.001000,0.001000
1012.519231,0.038396,0.001000,0.001000,0.001000,0.001000,0.001000
1012.538462,0.039049,0.001000,0.001000,0.001000,0.001000,0.001000
1012.557692,0.039686,0.001000,0.001000,0.001000,0.001000,0.001000
1012.576923,0.040305,0.001000,0.001000,0.001000,0.001000,0.001000
1012.596154,0.040908,0.001000,0.001000,0.001000,0.001000,0.001000
1012.615385,0.041493,0.001000,0.001000,0.001000,0.001000,0.001000
1012.634615,0.042060,0.001000,0.001000,0.001000,0.001000,0.001000
1012.653846,0.042609,0.001000,0.001000,0.001000,0.001000,0.001000
1012.673077,0.043140,0.001000,0.001000,0.001000,0.001000,0.001000
1012.692308,0.043653,0.001000,0.001000,0.001000,0.001000,0.001000
1012.711538,0.044147,0.001000,0.001000,0.001000,0.001000,0.001000
1012.730769,0.044622,0.001000,0.001000,0.001000,0.001000,0.001000
1012.750000,0.045078,0.001000,0.001000,0.001000,0.001000,0.001000
1012.769231,0.045515,0.001000,0.001000,0.001000,0.001000,0.001000
1012.788462,0.045933,0.001000,0.001000,0.001000,0.001000,0.001000
1012.807692,0.046331,0.001000,0.001000,0.001000,0.001000,0.001000
1012.826923,0.046709,0.001000,0.001000,0.001000,0.001000,0.001000
1012.846154,0.047068,0.001000,0.001000,0.001000,0.001000,0.001000
1012.865385,0.047406,0.001000,0.001000,0.001000,0.001000,0.001000
1012.884615,0.047724,0.001000,0.001000,0.001000,0.001000,0.001000
1012.903846,0.048022,0.001000,0.001000,0.001000,0.001000,0.001000
1012.923077,0.048299,0.001000,0.001000,0.001000,0.001000,0.001000
1012.942308,0.048556,0.001000,0.001000,0.001000,0.001000,0.001000
1012.961538,0.048792,0.001000,0.001000,0.001000,0.001000,0.001000
1012.980769,0.049007,0.001000,0.001000,0.001000,0.001000,0.001000
1013.000000,0.049201,0.001000,0.001000,0.001000,0.001000,0.001000
1013.019231,0.049374,0.001000,0.001000,0.001000,0.001000,0.001000
1013.038462,0.049527,0.001000,0.001000,0.001000,0.001000,0.001000
1013.057692,0.049658,0.001000,0.001000,0.001000,0.001000,0.001000
1013.076923,0.049768,0.001000,0.001000,0.001000,0.001000,0.001000
1013.096154,0.049857,0.001000,0.001000,0.001000,0.001000,0.001000
1013.115385,0.049924,0.001000,0.001000,0.001000,0.001000,0.001000
1013.134615,0.049970,0.001000,0.001000,0.001000,0.001000,0.001000
1013.153846,0.049995,0.001000,0.001000,0.001000,0.001000,0.001000
1013.173077,0.049999,0.001000,0.001000,0.001000,0.001000,0.001000
1013.192308,0.049981,0.001000,0.001000,0.001000,0.001000,0.001000
1013.211538,0.049942,0.001000,0.001000,0.001000,0.001000,0.001000
1013.230769,0.049882,0.001000,0.001000,0.001000,0.001000,0.001000
1013.250000,0.049800,0.001000,0.001000,0.001000,0.001000,0.001000
1013.269231,0.049697,0.001000,0.001000,0.001000,0.001000,0.001000
1013.288462,0.049573,0.001000,0.001000,0.001000,0.001000,0.001000
1013.307692,0.049428,0.001000,0.001000,0.001000,0.001000,0.001000
1013.326923,0.049262,0.001000,0.001000,0.001000,0.001000,0.001000
1013.346154,0.049075,0.001000,0.001000,0.001000,0.001000,0.001000
1013.365385,0.048867,0.001000,0.001000,0.001000,0.001000,0.001000
1013.384615,0.048638,0.001000,0.001000,0.001000,0.001000,0.001000
1013.403846,0.048388,0.001000,0.001000,0.001000,0.001000,0.001000
1013.423077,0.048118,0.001000,0.001000,0.001000,0.001000,0.001000
1013.442308,0.047827,0.001000,0.001000,0.001000,0.001000,0.001000
1013.461538,0.047516,0.001000,0.001000,0.001000,0.001000,0.001000
1013.480769,0.047184,0.001000,0.001000,0.001000,0.001000,0.001000
1013.500000,0.046832,0.001000,0.001000,0.001000,0.001000,0.001000
1013.519231,0.046461,0.001000,0.001000,0.001000,0.001000,0.001000
1013.538462,0.046069,0.001000,0.001000,0.001000,0.001000,0.001000
1013.557692,0.045658,0.001000,0.001000,0.001000,0.001000,0.001000
1013.576923,0.045228,0.001000,0.001000,0.001000,0.001000,0.001000
1013.596154,0.044778,0.001000,0.001000,0.001000,0.001000,0.001000
1013.615385,0.044309,0.001000,0.001000,0.001000,0.001000,0.001000
1013.634615,0.043822,0.001000,0.001000,0.001000,0.001000,0.001000
1013.653846,0.043315,0.001000,0.001000,0.001000,0.001000,0.001000
1013.673077,0.042790,0.001000,0.001000,0.001000,0.001000,0.001000
1013.692308,0.042247,0.001000,0.001000,0.001000,0.001000,0.001000
1013.711538,0.041686,0.001000,0.001000,0.001000,0.001000,0.001000
1013.730769,0.041107,0.001000,0.001000,0.001000,0.001000,0.001000
1013.750000,0.040510,0.001000,0.001000,0.001000,0.001000,0.001000
1013.769231,0.039897,0.001000,0.001000,0.001000,0.001000,0.001000
1013.788462,0.039266,0.001000,0.001000,0.001000,0.001000,0.001000
1013.807692,0.038619,0.001000,0.001000,0.001000,0.001000,0.001000
1013.826923,0.037955,0.001000,0.001000,0.001000,0.001000,0.001000
1013.846154,0.037274,0.001000,0.001000,0.001000,0.001000,0.001000
1013.865385,0.036578,0.001000,0.001000,0.001000,0.001000,0.001000
1013.884615,0.035867,0.001000,0.001000,0.001000,0.001000,0.001000
1013.903846,0.035140,0.001000,0.001000,0.001000,0.001000,0.001000
1013.923077,0.034398,0.001000,0.001000,0.001000,0.001000,0.001000
1013.942308,0.033641,0.001000,0.001000,0.001000,0.001000,0.001000
1013.961538,0.032871,0.001000,0.001000,0.001000,0.001000,0.001000
1013.980769,0.032086,0.001000,0.001000,0.001000,0.001000,0.001000
1014.000000,0.031287,0.001000,0.001000,0.001000,0.001000,0.001000
1014.019231,0.030475,0.001000,0.001000,0.001000,0.001000,0.001000
1014.038462,0.029650,0.001000,0.001000,0.001000,0.001000,0.001000
1014.057692,0.028813,0.001000,0.001000,0.001000,0.001000,0.001000
1014.076923,0.027963,0.001000,0.001000,0.001000,0.001000,0.001000
1014.096154,0.027101,0.001000,0.001000,0.001000,0.001000,0.001000
1014.115385,0.026228,0.001000,0.001000,0.001000,0.001000,0.001000
1014.134615,0.025343,0.001000,0.001000,0.001000,0.001000,0.001000
1014.153846,0.024448,0.001000,0.001000,0.001000,0.001000,0.001000
1014.173077,0.023542,0.001000,0.001000,0.001000,0.001000,0.001000
1014.192308,0.022627,0.001000,0.001000,0.001000,0.001000,0.001000
1014.211538,0.021701,0.001000,0.001000,0.001000,0.001000,0.001000
1014.230769,0.020766,0.001000,0.001000,0.001000,0.001000,0.001000
1014.250000,0.019823,0.001000,0.001000,0.001000,0.001000,0.001000
1014.269231,0.018871,0.001000,0.001000,0.001000,0.001000,0.001000
1014.288462,0.017911,0.001000,0.001000,0.001000,0.001000,0.001000
1014.307692,0.016943,0.001000,0.001000,0.001000,0.001000,0.001000
1014.326923,0.015968,0.001000,0.001000,0.001000,0.001000,0.001000
1014.346154,0.014987,0.001000,0.001000,0.001000,0.001000,0.001000
1014.365385,0.013999,0.001000,0.001000,0.001000,0.001000,0.001000
1014.384615,0.013005,0.001000,0.001000,0.001000,0.001000,0.001000
1014.403846,0.012005,0.001000,0.001000,0.001000,0.001000,0.001000
1014.423077,0.011000,0.001000,0.001000,0.001000,0.001000,0.001000
1014.442308,0.009991,0.001000,0.001000,0.001000,0.001000,0.001000
1014.461538,0.008977,0.001000,0.001000,0.001000,0.001000,0.001000
1014.480769,0.007960,0.001000,0.001000,0.001000,0.001000,0.001000
1014.500000,0.006939,0.001000,0.001000,0.001000,0.001000,0.001000
1014.519231,0.005915,0.001000,0.001000,0.001000,0.001000,0.001000
1014.538462,0.004889,0.001000,0.001000,0.001000,0.001000,0.001000
1014.557692,0.003860,0.001000,0.001000,0.001000,0.001000,0.001000
1014.576923,0.002830,0.001000,0.001000,0.001000,0.001000,0.001000
1014.596154,0.001799,0.001000,0.001000,0.001000,0.001000,0.001000
1014.615385,0.000767,0.001000,0.001000,0.001000,0.001000,0.001000
1014.634615,-0.000265,0.001000,0.001000,0.001000,0.001000,0.001000
1014.653846,-0.001298,0.001000,0.001000,0.001000,0.001000,0.001000
1014.673077,-0.002329,0.001000,0.001000,0.001000,0.001000,0.001000
1014.692308,-0.003360,0.001000,0.001000,0.001000,0.001000,0.001000
1014.711538,-0.004389,0.001000,0.001000,0.001000,0.001000,0.001000
1014.730769,-0.005417,0.001000,0.001000,0.001000,0.001000,0.001000
1014.750000,-0.006442,0.001000,0.001000,0.001000,0.001000,0.001000
1014.769231,-0.007464,0.001000,0.001000,0.001000,0.001000,0.001000
1014.788462,-0.008483,0.001000,0.001000,0.001000,0.001000,0.001000
1014.807692,-0.009499,0.001000,0.001000,0.001000,0.001000,0.001000
1014.826923,-0.010510,0.001000,0.001000,0.001000,0.001000,0.001000
1014.846154,-0.011518,0.001000,0.001000,0.001000,0.001000,0.001000
1014.865385,-0.012520,0.001000,0.001000,0.001000,0.001000,0.001000
1014.884615,-0.013516,0.001000,0.001000,0.001000,0.001000,0.001000
1014.903846,-0.014507,0.001000,0.001000,0.001000,0.001000,0.001000
1014.923077,-0.015492,0.001000,0.001000,0.001000,0.001000,0.001000
1014.942308,-0.016470,0.001000,0.001000,0.001000,0.001000,0.001000
1014.961538,-0.017442,0.001000,0.001000,0.001000,0.001000,0.001000
1014.980769,-0.018405,0.001000,0.001000,0.001000,0.001000,0.001000
1015.000000,-0.019361,0.001000,0.001000,0.001000,0.001000,0.001000
1015.019231,-0.020309,0.001000,0.001000,0.001000,0.001000,0.001000
1015.038462,-0.021248,0.001000,0.001000,0.001000,0.001000,0.001000
1015.057692,-0.022178,0.001000,0.001000,0.001000,0.001000,0.001000
1015.076923,-0.023099,0.001000,0.001000,0.001000,0.001000,0.001000
1015.096154,-0.024009,0.001000,0.001000,0.001000,0.001000,0.001000
1015.115385,-0.024910,0.001000,0.001000,0.001000,0.001000,0.001000
1015.134615,-0.025799,0.001000,0.001000,0.001000,0.001000,0.001000
1015.153846,-0.026678,0.001000,0.001000,0.001000,0.001000,0.001000
1015.173077,-0.027546,0.001000,0.001000,0.001000,0.001000,0.001000
1015.192308,-0.028401,0.001000,0.001000,0.001000,0.001000,0.001000
1015.211538,-0.029245,0.001000,0.001000,0.001000,0.001000,0.001000
1015.230769,-0.030076,0.001000,0.001000,0.001000,0.001000,0.001000
1015.250000,-0.030894,0.001000,0.001000,0.001000,0.001000,0.001000
1015.269231,-0.031699,0.001000,0.001000,0.001000,0.001000,0.001000
1015.288462,-0.032491,0.001000,0.001000,0.001000,0.001000,0.001000
1015.307692,-0.033269,0.001000,0.001000,0.001000,0.001000,0.001000
1015.326923,-0.034032,0.001000,0.001000,0.001000,0.001000,0.001000
1015.346154,-0.034781,0.001000,0.001000,0.001000,0.001000,0.001000
1015.365385,-0.035516,0.001000,0.001000,0.001000,0.001000,0.001000
1015.384615,-0.036235,0.001000,0.001000,0.001000,0.001000,0.001000
1015.403846,-0.036938,0.001000,0.001000,0.001000,0.001000,0.001000
1015.423077,-0.037626,0.001000,0.001000,0.001000,0.001000,0.001000
1015.442308,-0.038298,0.001000,0.001000,0.001000,0.001000,0.001000
1015.461538,-0.038953,0.001000,0.001000,0.001000,0.001000,0.001000
1015.480769,-0.039592,0.001000,0.001000,0.001000,0.001000,0.001000
1015.500000,-0.040214,0.001000,0.001000,0.001000,0.001000,0.001000
1015.519231,-0.040819,0.001000,0.001000,0.001000,0.001000,0.001000
1015.538462,-0.041407,0.001000,0.001000,0.001000,0.001000,0.001000
1015.557692,-0.041977,0.001000,0.001000,0.001000,0.001000,0.001000
1015.576923,-0.042529,0.001000,0.001000,0.001000,0.001000,0.001000
1015.596154,-0.043062,0.001000,0.001000,0.001000,0.001000,0.001000
1015.615385,-0.043578,0.001000,0.001000,0.001000,0.001000,0.001000
1015.634615,-0.044075,0.001000,0.001000,0.001000,0.001000,0.001000
1015.653846,-0.044553,0.001000,0.001000,0.001000,0.001000,0.001000
1015.673077,-0.045012,0.001000,0.001000,0.001000,0.001000,0.001000
1015.692308,-0.045452,0.001000,0.001000,0.001000,0.001000,0.001000
1015.711538,-0.045872,0.001000,0.001000,0.001000,0.001000,0.001000
1015.730769,-0.046273,0.001000,0.001000,0.001000,0.001000,0.001000
1015.750000,-0.046654,0.001000,0.001000,0.001000,0.001000,0.001000
1015.769231,-0.047016,0.001000,0.001000,0.001000,0.001000,0.001000
1015.788462,-0.047357,0.001000,0.001000,0.001000,0.001000,0.001000
1015.807692,-0.047678,0.001000,0.001000,0.001000,0.001000,0.001000
1015.826923,-0.047979,0.001000,0.001000,0.001000,0.001000,0.001000
1015.846154,-0.048259,0.001000,0.001000,0.001000,0.001000,0.001000
1015.865385,-0.048519,0.001000,0.001000,0.001000,0.001000,0.001000
1015.884615,-0.048758,0.001000,0.001000,0.001000,0.001000,0.001000
1015.903846,-0.048976,0.001000,0.001000,0.001000,0.001000,0.001000
1015.923077,-0.049174,0.001000,0.001000,0.001000,0.001000,0.001000
1015.942308,-0.049350,0.001000,0.001000,0.001000,0.001000,0.001000
1015.961538,-0.049505,0.001000,0.001000,0.001000,0.001000,0.001000
1015.980769,-0.049640,0.001000,0.001000,0.001000,0.001000,0.001000
1016.000000,-0.049753,0.001000,0.001000,0.001000,0.001000,0.001000
1016.019231,-0.049845,0.001000,0.001000,0.001000,0.001000,0.001000
1016.038462,-0.049915,0.001000,0.001000,0.001000,0.001000,0.001000
1016.057692,-0.049965,0.001000,0.001000,0.001000,0.001000,0.001000
1016.076923,-0.049993,0.001000,0.001000,0.001000,0.001000,0.001000
1016.096154,-0.050000,0.001000,0.001000,0.001000,0.001000,0.001000
1016.115385,-0.049985,0.001000,0.001000,0.001000,0.001000,0.001000
1016.134615,-0.049949,0.001000,0.001000,0.001000,0.001000,0.001000
1016.153846,-0.049892,0.001000,0.001000,0.001000,0.001000,0.001000
1016.173077,-0.049814,0.001000,0.001000,0.001000,0.001000,0.001000
1016.192308,-0.049714,0.001000,0.001000,0.001000,0.001000,0.001000
1016.211538,-0.049593,0.001000,0.001000,0.001000,0.001000,0.001000
1016.230769,-0.049451,0.001000,0.001000,0.001000,0.001000,0.001000
1016.250000,-0.049288,0.001000,0.001000,0.001000,0.001000,0.001000
1016.269231,-0.049104,0.001000,0.001000,0.001000,0.001000,0.001000
1016.288462,-0.048899,0.001000,0.001000,0.001000,0.001000,0.001000
1016.307692,-0.048673,0.001000,0.001000,0.001000,0.001000,0.001000
1016.326923,-0.048426,0.001000,0.001000,0.001000,0.001000,0.001000
1016.346154,-0.048159,0.001000,0.001000,0.001000,0.001000,0.001000
1016.365385,-0.047871,0.001000,0.001000,0.001000,0.001000,0.001000
1016.384615,-0.047563,0.001000,0.001000,0.001000,0.001000,0.001000
1016.403846,-0.047235,0.001000,0.001000,0.001000,0.001000,0.001000
1016.423077,-0.046886,0.001000,0.001000,0.001000,0.001000,0.001000
1016.442308,-0.046517,0.001000,0.001000,0.001000,0.001000,0.001000
1016.461538,-0.046129,0.001000,0.001000,0.001000,0.001000,0.001000
1016.480769,-0.045721,0.001000,0.001000,0.001000,0.001000,0.001000
1016.500000,-0.045293,0.001000,0.001000,0.001000,0.001000,0.001000
1016.519231,-0.044846,0.001000,0.001000,0.001000,0.001000,0.001000
1016.538462,-0.044380,0.001000,0.001000,0.001000,0.001000,0.001000
1016.557692,-0.043895,0.001000,0.001000,0.001000,0.001000,0.001000
1016.576923,-0.043392,0.001000,0.001000,0.001000,0.001000,0.001000
1016.596154,-0.042869,0.001000,0.001000,0.001000,0.001000,0.001000
1016.615385,-0.042329,0.001000,0.001000,0.001000,0.001000,0.001000
1016.634615,-0.041770,0.001000,0.001000,0.001000,0.001000,0.001000
1016.653846,-0.041194,0.001000,0.001000,0.001000,0.001000,0.001000
1016.673077,-0.040600,0.001000,0.001000,0.001000,0.001000,0.001000
1016.692308,-0.039989,0.001000,0.001000,0.001000,0.001000,0.001000
1016.711538,-0.039361,0.001000,0.001000,0.001000,0.001000,0.001000
1016.730769,-0.038716,0.001000,0.001000,0.001000,0.001000,0.001000
1016.750000,-0.038054,0.001000,0.001000,0.001000,0.001000,0.001000
1016.769231,-0.037377,0.001000,0.001000,0.001000,0.001000,0.001000
1016.788462,-0.036683,0.001000,0.001000,0.001000,0.001000,0.001000
1016.807692,-0.035974,0.001000,0.001000,0.001000,0.001000,0.001000
1016.826923,-0.035249,0.001000,0.001000,0.001000,0.001000,0.001000
1016.846154,-0.034509,0.001000,0.001000,0.001000,0.001000,0.001000
1016.865385,-0.033755,0.001000,0.001000,0.001000,0.001000,0.001000
1016.884615,-0.032986,0.001000,0.001000,0.001000,0.001000,0.001000
1016.903846,-0.032203,0.001000,0.001000,0.001000,0.001000,0.001000
1016.923077,-0.031407,0.001000,0.001000,0.001000,0.001000,0.001000
1016.942308,-0.030597,0.001000,0.001000,0.001000,0.001000,0.001000
1016.961538,-0.029774,0.001000,0.001000,0.001000,0.001000,0.001000
1016.980769,-0.028938,0.001000,0.001000,0.001000,0.001000,0.001000
1017.000000,-0.028090,0.001000,0.001000,0.001000,0.001000,0.001000
1017.019231,-0.027230,0.001000,0.001000,0.001000,0.001000,0.001000
1017.038462,-0.026358,0.001000,0.001000,0.001000,0.001000,0.001000
1017.057692,-0.025475,0.001000,0.001000,0.001000,0.001000,0.001000
1017.076923,-0.024582,0.001000,0.001000,0.001000,0.001000,0.001000
1017.096154,-0.023678,0.001000,0.001000,0.001000,0.001000,0.001000
1017.115385,-0.022763,0.001000,0.001000,0.001000,0.001000,0.001000
1017.134615,-0.021839,0.001000,0.001000,0.001000,0.001000,0.001000
1017.153846,-0.020906,0.001000,0.001000,0.001000,0.001000,0.001000
1017.173077,-0.019964,0.001000,0.001000,0.001000,0.001000,0.001000
1017.192308,-0.019013,0.001000,0.001000,0.001000,0.001000,0.001000
1017.211538,-0.018054,0.001000,0.001000,0.001000,0.001000,0.001000
1017.230769,-0.017088,0.001000,0.001000,0.001000,0.001000,0.001000
1017.250000,-0.016114,0.001000,0.001000,0.001000,0.001000,0.001000
1017.269231,-0.015133,0.001000,0.001000,0.001000,0.001000,0.001000
1017.288462,-0.014146,0.001000,0.001000,0.001000,0.001000,0.001000
1017.307692,-0.013153,0.001000,0.001000,0.001000,0.001000,0.001000
1017.326923,-0.012154,0.001000,0.001000,0.001000,0.001000,0.001000
1017.346154,-0.011150,0.001000,0.001000,0.001000,0.001000,0.001000
1017.365385,-0.010141,0.001000,0.001000,0.001000,0.001000,0.001000
1017.384615,-0.009128,0.001000,0.001000,0.001000,0.001000,0.001000
1017.403846,-0.008111,0.001000,0.001000,0.001000,0.001000,0.001000
1017.423077,-0.007091,0.001000,0.001000,0.001000,0.001000,0.001000
1017.442308,-0.006067,0.001000,0.001000,0.001000,0.001000,0.001000
1017.461538,-0.005041,0.001000,0.001000,0.001000,0.001000,0.001000
1017.480769,-0.004013,0.001000,0.001000,0.001000,0.001000,0.001000
1017.500000,-0.002983,0.001000,0.001000,0.001000,0.001000,0.001000
1017.519231,-0.001952,0.001000,0.001000,0.001000,0.001000,0.001000
1017.538462,-0.000920,0.001000,0.001000,0.001000,0.001000,0.001000
1017.557692,0.000112,0.001000,0.001000,0.001000,0.001000,0.001000
1017.576923,0.001144,0.001000,0.001000,0.001000,0.001000,0.001000
1017.596154,0.002176,0.001000,0.001000,0.001000,0.001000,0.001000
1017.615385,0.003207,0.001000,0.001000,0.001000,0.001000,0.001000
1017.634615,0.004237,0.001000,0.001000,0.001000,0.001000,0.001000
1017.653846,0.005264,0.001000,0.001000,0.001000,0.001000,0.001000
1017.673077,0.006290,0.001000,0.001000,0.001000,0.001000,0.001000
1017.692308,0.007313,0.001000,0.001000,0.001000,0.001000,0.001000
1017.711538,0.008332,0.001000,0.001000,0.001000,0.001000,0.001000
1017.730769,0.009348,0.001000,0.001000,0.001000,0.001000,0.001000
1017.750000,0.010360,0.001000,0.001000,0.001000,0.001000,0.001000
1017.769231,0.011368,0.001000,0.001000,0.001000,0.001000,0.001000
1017.788462,0.012371,0.001000,0.001000,0.001000,0.001000,0.001000
1017.807692,0.013369,0.001000,0.001000,0.001000,0.001000,0.001000
1017.826923,0.014361,0.001000,0.001000,0.001000,0.001000,0.001000
1017.846154,0.015346,0.001000,0.001000,0.001000,0.001000,0.001000
1017.865385,0.016326,0.001000,0.001000,0.001000,0.001000,0.001000
1017.884615,0.017298,0.001000,0.001000,0.001000,0.001000,0.001000
1017.903846,0.018263,0.001000,0.001000,0.001000,0.001000,0.001000
1017.923077,0.019220,0.001000,0.001000,0.001000,0.001000,0.001000
1017.942308,0.020169,0.001000,0.001000,0.001000,0.001000,0.001000
1017.961538,0.021109,0.001000,0.001000,0.001000,0.001000,0.001000
1017.980769,0.022040,0.001000,0.001000,0.001000,0.001000,0.001000
1018.000000,0.022962,0.001000,0.001000,0.001000,0.001000,0.001000
1018.019231,0.023875,0.001000,0.001000,0.001000,0.001000,0.001000
1018.038462,0.024776,0.001000,0.001000,0.001000,0.001000,0.001000
1018.057692,0.025668,0.001000,0.001000,0.001000,0.001000,0.001000
1018.076923,0.026548,0.001000,0.001000,0.001000,0.001000,0.001000
1018.096154,0.027417,0.001000,0.001000,0.001000,0.001000,0.001000
1018.115385,0.028275,0.001000,0.001000,0.001000,0.001000,0.001000
1018.134615,0.029120,0.001000,0.001000,0.001000,0.001000,0.001000
1018.153846,0.029953,0.001000,0.001000,0.001000,0.001000,0.001000
1018.173077,0.030773,0.001000,0.001000,0.001000,0.001000,0.001000
1018.192308,0.031581,0.001000,0.001000,0.001000,0.001000,0.001000
1018.211538,0.032374,0.001000,0.001000,0.001000,0.001000,0.001000
1018.230769,0.033154,0.001000,0.001000,0.001000,0.001000,0.001000
1018.250000,0.033920,0.001000,0.001000,0.001000,0.001000,0.001000
1018.269231,0.034671,0.001000,0.001000,0.001000,0.001000,0.001000
1018.288462,0.035407,0.001000,0.001000,0.001000,0.001000,0.001000
1018.307692,0.036129,0.001000,0.001000,0.001000,0.001000,0.001000
1018.326923,0.036835,0.001000,0.001000,0.001000,0.001000,0.001000
1018.346154,0.037525,0.001000,0.001000,0.001000,0.001000,0.001000
1018.365385,0.038199,0.001000,0.001000,0.001000,0.001000,0.001000
1018.384615,0.038857,0.001000,0.001000,0.001000,0.001000,0.001000
1018.403846,0.039498,0.001000,0.001000,0.001000,0.001000,0.001000
1018.423077,0.040123,0.001000,0.001000,0.001000,0.001000,0.001000
1018.442308,0.040730,0.001000,0.001000,0.001000,0.001000,0.001000
1018.461538,0.041321,0.001000,0.001000,0.001000,0.001000,0.001000
1018.480769,0.041893,0.001000,0.001000,0.001000,0.001000,0.001000
1018.500000,0.042448,0.001000,0.001000,0.001000,0.001000,0.001000
1018.519231,0.042984,0.001000,0.001000,0.001000,0.001000,0.001000
1018.538462,0.043502,0.001000,0.001000,0.001000,0.001000,0.001000
1018.557692,0.044002,0.001000,0.001000,0.001000,0.001000,0.001000
1018.576923,0.044483,0.001000,0.001000,0.001000,0.001000,0.001000
1018.596154,0.044945,0.001000,0.001000,0.001000,0.001000,0.001000
1018.615385,0.045388,0.001000,0.001000,0.001000,0.001000,0.001000
1018.634615,0.045811,0.001000,0.001000,0.001000,0.001000,0.001000
1018.653846,0.046215,0.001000,0.001000,0.001000,0.001000,0.001000
1018.673077,0.046599,0.001000,0.001000,0.001000,0.001000,0.001000
1018.692308,0.046963,0.001000,0.001000,0.001000,0.001000,0.001000
1018.711538,0.047308,0.001000,0.001000,0.001000,0.001000,0.001000
1018.730769,0.047632,0.001000,0.001000,0.001000,0.001000,0.001000
1018.750000,0.047935,0.001000,0.001000,0.001000,0.001000,0.001000
1018.769231,0.048219,0.001000,0.001000,0.001000,0.001000,0.001000
1018.788462,0.048482,0.001000,0.001000,0.001000,0.001000,0.001000
1018.807692,0.048724,0.001000,0.001000,0.001000,0.001000,0.001000
1018.826923,0.048945,0.001000,0.001000,0.001000,0.001000,0.001000
1018.846154,0.049146,0.001000,0.001000,0.001000,0.001000,0.001000
1018.865385,0.049325,0.001000,0.001000,0.001000,0.001000,0.001000
1018.884615,0.049484,0.001000,0.001000,0.001000,0.001000,0.001000
1018.903846,0.049621,0.001000,0.001000,0.001000,0.001000,0.001000
1018.923077,0.049737,0.001000,0.001000,0.001000,0.001000,0.001000
1018.942308,0.049832,0.001000,0.001000,0.001000,0.001000,0.001000
1018.961538,0.049906,0.001000,0.001000,0.001000,0.001000,0.001000
1018.980769,0.049959,0.001000,0.001000,0.001000,0.001000,0.001000
1019.000000,0.049990,0.001000,0.001000,0.001000,0.001000,0.001000
1019.019231,0.050000,0.001000,0.001000,0.001000,0.001000,0.001000
1019.038462,0.049989,0.001000,0.001000,0.001000,0.001000,0.001000
1019.057692,0.049956,0.001000,0.001000,0.001000,0.001000,0.001000
1019.076923,0.049902,0.001000,0.001000,0.001000,0.001000,0.001000
1019.096154,0.049827,0.001000,0.001000,0.001000,0.001000,0.001000
1019.115385,0.049730,0.001000,0.001000,0.001000,0.001000,0.001000
1019.134615,0.049612,0.001000,0.001000,0.001000,0.001000,0.001000
1019.153846,0.049474,0.001000,0.001000,0.001000,0.001000,0.001000
1019.173077,0.049314,0.001000,0.001000,0.001000,0.001000,0.001000
1019.192308,0.049133,0.001000,0.001000,0.001000,0.001000,0.001000
1019.211538,0.048931,0.001000,0.001000,0.001000,0.001000,0.001000
1019.230769,0.048708,0.001000,0.001000,0.001000,0.001000,0.001000
1019.250000,0.048464,0.001000,0.001000,0.001000,0.001000,0.001000
1019.269231,0.048200,0.001000,0.001000,0.001000,0.001000,0.001000
1019.288462,0.047915,0.001000,0.001000,0.001000,0.001000,0.001000
1019.307692,0.047610,0.001000,0.001000,0.001000,0.001000,0.001000
1019.326923,0.047285,0.001000,0.001000,0.001000,0.001000,0.001000
1019.346154,0.046939,0.001000,0.001000,0.001000,0.001000,0.001000
1019.365385,0.046573,0.001000,0.001000,0.001000,0.001000,0.001000
1019.384615,0.046188,0.001000,0.001000,0.001000,0.001000,0.001000
1019.403846,0.045783,0.001000,0.001000,0.001000,0.001000,0.001000
1019.423077,0.045358,0.001000,0.001000,0.001000,0.001000,0.001000
1019.442308,0.044914,0.001000,0.001000,0.001000,0.001000,0.001000
1019.461538,0.044451,0.001000,0.001000,0.001000,0.001000,0.001000
1019.480769,0.043968,0.001000,0.001000,0.001000,0.001000,0.001000
1019.500000,0.043468,0.001000,0.001000,0.001000,0.001000,0.001000
1019.519231,0.042948,0.001000,0.001000,0.001000,0.001000,0.001000
1019.538462,0.042410,0.001000,0.001000,0.001000,0.001000,0.001000
1019.557692,0.041854,0.001000,0.001000,0.001000,0.001000,0.001000
1019.576923,0.041281,0.001000,0.001000,0.001000,0.001000,0.001000
1019.596154,0.040690,0.001000,0.001000,0.001000,0.001000,0.001000
1019.615385,0.040081,0.001000,0.001000,0.001000,0.001000,0.001000
1019.634615,0.039455,0.001000,0.001000,0.001000,0.001000,0.001000
1019.653846,0.038813,0.001000,0.001000,0.001000,0.001000,0.001000
1019.673077,0.038154,0.001000,0.001000,0.001000,0.001000,0.001000
1019.692308,0.037478,0.001000,0.001000,0.001000,0.001000,0.001000
1019.711538,0.036787,0.001000,0.001000,0.001000,0.001000,0.001000
1019.730769,0.036080,0.001000,0.001000,0.001000,0.001000,0.001000
1019.750000,0.035358,0.001000,0.001000,0.001000,0.001000,0.001000
1019.769231,0.034620,0.001000,0.001000,0.001000,0.001000,0.001000
1019.788462,0.033868,0.001000,0.001000,0.001000,0.001000,0.001000
1019.807692,0.033101,0.001000,0.001000,0.001000,0.001000,0.001000
1019.826923,0.032320,0.001000,0.001000,0.001000,0.001000,0.001000
1019.846154,0.031526,0.001000,0.001000,0.001000,0.001000,0.001000
1019.865385,0.030718,0.001000,0.001000,0.001000,0.001000,0.001000
1019.884615,0.029897,0.001000,0.001000,0.001000,0.001000,0.001000
1019.903846,0.029063,0.001000,0.001000,0.001000,0.001000,0.001000
1019.923077,0.028217,0.001000,0.001000,0.001000,0.001000,0.001000
1019.942308,0.027358,0.001000,0.001000,0.001000,0.001000,0.001000
1019.961538,0.026489,0.001000,0.001000,0.001000,0.001000,0.001000
1019.980769,0.025607,0.001000,0.001000,0.001000,0.001000,0.001000
1020.000000,0.024715,0.001000,0.001000,0.001000,0.001000,0.001000
1020.019231,0.023813,0.001000,0.001000,0.001000,0.001000,0.001000
1020.038462,0.022900,0.001000,0.001000,0.001000,0.001000,0.001000
1020.057692,0.021977,0.001000,0.001000,0.001000,0.001000,0.001000
1020.076923,0.021045,0.001000,0.001000,0.001000,0.001000,0.001000
1020.096154,0.020104,0.001000,0.001000,0.001000,0.001000,0.001000
1020.115385,0.019155,0.001000,0.001000,0.001000,0.001000,0.001000
1020.134615,0.018197,0.001000,0.001000,0.001000,0.001000,0.001000
1020.153846,0.017232,0.001000,0.001000,0.001000,0.001000,0.001000
1020.173077,0.016259,0.001000,0.001000,0.001000,0.001000,0.001000
1020.192308,0.015279,0.001000,0.001000,0.001000,0.001000,0.001000
1020.211538,0.014293,0.001000,0.001000,0.001000,0.001000,0.001000
1020.230769,0.013301,0.001000,0.001000,0.001000,0.001000,0.001000
1020.250000,0.012303,0.001000,0.001000,0.001000,0.001000,0.001000
1020.269231,0.011299,0.001000,0.001000,0.001000,0.001000,0.001000
1020.288462,0.010291,0.001000,0.001000,0.001000,0.001000,0.001000
1020.307692,0.009279,0.001000,0.001000,0.001000,0.001000,0.001000
1020.326923,0.008263,0.001000,0.001000,0.001000,0.001000,0.001000
1020.346154,0.007243,0.001000,0.001000,0.001000,0.001000,0.001000
1020.365385,0.006220,0.001000,0.001000,0.001000,0.001000,0.001000
1020.384615,0.005194,0.001000,0.001000,0.001000,0.001000,0.001000
1020.403846,0.004166,0.001000,0.001000,0.001000,0.001000,0.001000
1020.423077,0.003137,0.001000,0.001000,0.001000,0.001000,0.001000
1020.442308,0.002106,0.001000,0.001000,0.001000,0.001000,0.001000
1020.461538,0.001074,0.001000,0.001000,0.001000,0.001000,0.001000
1020.480769,0.000041,0.001000,0.001000,0.001000,0.001000,0.001000
1020.500000,-0.000991,0.001000,0.001000,0.001000,0.001000,0.001000
1020.519231,-0.002023,0.001000,0.001000,0.001000,0.001000,0.001000
1020.538462,-0.003054,0.001000,0.001000,0.001000,0.001000,0.001000
1020.557692,-0.004084,0.001000,0.001000,0.001000,0.001000,0.001000
1020.576923,-0.005112,0.001000,0.001000,0.001000,0.001000,0.001000
1020.596154,-0.006138,0.001000,0.001000,0.001000,0.001000,0.001000
1020.615385,-0.007161,0.001000,0.001000,0.001000,0.001000,0.001000
1020.634615,-0.008181,0.001000,0.001000,0.001000,0.001000,0.001000
1020.653846,-0.009198,0.001000,0.001000,0.001000,0.001000,0.001000
1020.673077,-0.010210,0.001000,0.001000,0.001000,0.001000,0.001000
1020.692308,-0.011219,0.001000,0.001000,0.001000,0.001000,0.001000
1020.711538,-0.012222,0.001000,0.001000,0.001000,0.001000,0.001000
1020.730769,-0.013221,0.001000,0.001000,0.001000,0.001000,0.001000
1020.750000,-0.014214,0.001000,0.001000,0.001000,0.001000,0.001000
1020.769231,-0.015200,0.001000,0.001000,0.001000,0.001000,0.001000
1020.788462,-0.016181,0.001000,0.001000,0.001000,0.001000,0.001000
1020.807692,-0.017154,0.001000,0.001000,0.001000,0.001000,0.001000
1020.826923,-0.018120,0.001000,0.001000,0.001000,0.001000,0.001000
1020.846154,-0.019078,0.001000,0.001000,0.001000,0.001000,0.001000
1020.865385,-0.020028,0.001000,0.001000,0.001000,0.001000,0.001000
1020.884615,-0.020970,0.001000,0.001000,0.001000,0.001000,0.001000
1020.903846,-0.021903,0.001000,0.001000,0.001000,0.001000,0.001000
1020.923077,-0.022826,0.001000,0.001000,0.001000,0.001000,0.001000
1020.942308,-0.023740,0.001000,0.001000,0.001000,0.001000,0.001000
1020.961538,-0.024643,0.001000,0.001000,0.001000,0.001000,0.001000
1020.980769,-0.025536,0.001000,0.001000,0.001000,0.001000,0.001000
1021.000000,-0.026418,0.001000,0.001000,0.001000,0.001000,0.001000
1021.019231,-0.027289,0.001000,0.001000,0.001000,0.001000,0.001000
1021.038462,-0.028148,0.001000,0.001000,0.001000,0.001000,0.001000
1021.057692,-0.028995,0.001000,0.001000,0.001000,0.001000,0.001000
1021.076923,-0.029830,0.001000,0.001000,0.001000,0.001000,0.001000
1021.096154,-0.030652,0.001000,0.001000,0.001000,0.001000,0.001000
1021.115385,-0.031461,0.001000,0.001000,0.001000,0.001000,0.001000
1021.134615,-0.032257,0.001000,0.001000,0.001000,0.001000,0.001000
1021.153846,-0.033039,0.001000,0.001000,0.001000,0.001000,0.001000
1021.173077,-0.033807,0.001000,0.001000,0.001000,0.001000,0.001000
1021.192308,-0.034560,0.001000,0.001000,0.001000,0.001000,0.001000
1021.211538,-0.035299,0.001000,0.001000,0.001000,0.001000,0.001000
1021.230769,-0.036022,0.001000,0.001000,0.001000,0.001000,0.001000
1021.250000,-0.036731,0.001000,0.001000,0.001000,0.001000,0.001000
1021.269231,-0.037423,0.001000,0.001000,0.001000,0.001000,0.001000
1021.288462,-0.038100,0.001000,0.001000,0.001000,0.001000,0.001000
1021.307692,-0.038760,0.001000,0.001000,0.001000,0.001000,0.001000
1021.326923,-0.039404,0.001000,0.001000,0.001000,0.001000,0.001000
1021.346154,-0.040031,0.001000,0.001000,0.001000,0.001000,0.001000
1021.365385,-0.040641,0.001000,0.001000,0.001000,0.001000,0.001000
1021.384615,-0.041234,0.001000,0.001000,0.001000,0.001000,0.001000
1021.403846,-0.041809,0.001000,0.001000,0.001000,0.001000,0.001000
1021.423077,-0.042366,0.001000,0.001000,0.001000,0.001000,0.001000
1021.442308,-0.042906,0.001000,0.001000,0.001000,0.001000,0.001000
1021.461538,-0.043427,0.001000,0.001000,0.001000,0.001000,0.001000
1021.480769,-0.043929,0.001000,0.001000,0.001000,0.001000,0.001000
1021.500000,-0.044413,0.001000,0.001000,0.001000,0.001000,0.001000
1021.519231,-0.044877,0.001000,0.001000,0.001000,0.001000,0.001000
1021.538462,-0.045323,0.001000,0.001000,0.001000,0.001000,0.001000
1021.557692,-0.045749,0.001000,0.001000,0.001000,0.001000,0.001000
1021.576923,-0.046156,0.001000,0.001000,0.001000,0.001000,0.001000
1021.596154,-0.046543,0.001000,0.001000,0.001000,0.001000,0.001000
1021.615385,-0.046910,0.001000,0.001000,0.001000,0.001000,0.001000
1021.634615,-0.047258,0.001000,0.001000,0.001000,0.001000,0.001000
1021.653846,-0.047585,0.001000,0.001000,0.001000,0.001000,0.001000
1021.673077,-0.047892,0.001000,0.001000,0.001000,0.001000,0.001000
1021.692308,-0.048178,0.001000,0.001000,0.001000,0.001000,0.001000
1021.711538,-0.048444,0.001000,0.001000,0.001000,0.001000,0.001000
1021.730769,-0.048689,0.001000,0.001000,0.001000,0.001000,0.001000
1021.750000,-0.048914,0.001000,0.001000,0.001000,0.001000,0.001000
1021.769231,-0.049117,0.001000,0.001000,0.001000,0.001000,0.001000
1021.788462,-0.049300,0.001000,0.001000,0.001000,0.001000,0.001000
1021.807692,-0.049461,0.001000,0.001000,0.001000,0.001000,0.001000
1021.826923,-0.049602,0.001000,0.001000,0.001000,0.001000,0.001000
1021.846154,-0.049721,0.001000,0.001000,0.001000,0.001000,0.001000
1021.865385,-0.049820,0.001000,0.001000,0.001000,0.001000,0.001000
1021.884615,-0.049897,0.001000,0.001000,0.001000,0.001000,0.001000
1021.903846,-0.049952,0.001000,0.001000,0.001000,0.001000,0.001000
1021.923077,-0.049987,0.001000,0.001000,0.001000,0.001000,0.001000
1021.942308,-0.050000,0.001000,0.001000,0.001000,0.001000,0.001000
1021.961538,-0.049992,0.001000,0.001000,0.001000,0.001000,0.001000
1021.980769,-0.049962,0.001000,0.001000,0.001000,0.001000,0.001000
1022.000000,-0.049911,0.001000,0.001000,0.001000,0.001000,0.001000
1022.019231,-0.049839,0.001000,0.001000,0.001000,0.001000,0.001000
1022.038462,-0.049746,0.001000,0.001000,0.001000,0.001000,0.001000
1022.057692,-0.049631,0.001000,0.001000,0.001000,0.001000,0.001000
1022.076923,-0.049496,0.001000,0.001000,0.001000,0.001000,0.001000
1022.096154,-0.049339,0.001000,0.001000,0.001000,0.001000,0.001000
1022.115385,-0.049161,0.001000,0.001000,0.001000,0.001000,0.001000
1022.134615,-0.048962,0.001000,0.001000,0.001000,0.001000,0.001000
1022.153846,-0.048742,0.001000,0.001000,0.001000,0.001000,0.001000
1022.173077,-0.048502,0.001000,0.001000,0.001000,0.001000,0.001000
1022.192308,-0.048241,0.001000,0.001000,0.001000,0.001000,0.001000
1022.211538,-0.047959,0.001000,0.001000,0.001000,0.001000,0.001000
1022.230769,-0.047657,0.001000,0.001000,0.001000,0.001000,0.001000
1022.250000,-0.047334,0.001000,0.001000,0.001000,0.001000,0.001000
1022.269231,-0.046992,0.001000,0.001000,0.001000,0.001000,0.001000
1022.288462,-0.046629,0.001000,0.001000,0.001000,0.001000,0.001000
1022.307692,-0.046246,0.001000,0.001000,0.001000,0.001000,0.001000
1022.326923,-0.045844,0.001000,0.001000,0.001000,0.001000,0.001000
1022.346154,-0.045422,0.001000,0.001000,0.001000,0.001000,0.001000
1022.365385,-0.044981,0.001000,0.001000,0.001000,0.001000,0.001000
1022.384615,-0.044521,0.001000,0.001000,0.001000,0.001000,0.001000
1022.403846,-0.044041,0.001000,0.001000,0.001000,0.001000,0.001000
1022.423077,-0.043543,0.001000,0.001000,0.001000,0.001000,0.001000
1022.442308,-0.043026,0.001000,0.001000,0.001000,0.001000,0.001000
1022.461538,-0.042491,0.001000,0.001000,0.001000,0.001000,0.001000
1022.480769,-0.041938,0.001000,0.001000,0.001000,0.001000,0.001000
1022.500000,-0.041367,0.001000,0.001000,0.001000,0.001000,0.001000
1022.519231,-0.040778,0.001000,0.001000,0.001000,0.001000,0.001000
1022.538462,-0.040172,0.001000,0.001000,0.001000,0.001000,0.001000
1022.557692,-0.039549,0.001000,0.001000,0.001000,0.001000,0.001000
1022.576923,-0.038909,0.001000,0.001000,0.001000,0.001000,0.001000
1022.596154,-0.038253,0.001000,0.001000,0.001000,0.001000,0.001000
1022.615385,-0.037580,0.001000,0.001000,0.001000,0.001000,0.001000
1022.634615,-0.036891,0.001000,0.001000,0.001000,0.001000,0.001000
1022.653846,-0.036186,0.001000,0.001000,0.001000,0.001000,0.001000
1022.673077,-0.035466,0.001000,0.001000,0.001000,0.001000,0.001000
1022.692308,-0.034731,0.001000,0.001000,0.001000,0.001000,0.001000
1022.711538,-0.033981,0.001000,0.001000,0.001000,0.001000,0.001000
1022.730769,-0.033216,0.001000,0.001000,0.001000,0.001000,0.001000
1022.750000,-0.032437,0.001000,0.001000,0.001000,0.001000,0.001000
1022.769231,-0.031645,0.001000,0.001000,0.001000,0.001000,0.001000
1022.788462,-0.030839,0.001000,0.001000,0.001000,0.001000,0.001000
1022.807692,-0.030020,0.001000,0.001000,0.001000,0.001000,0.001000
1022.826923,-0.029188,0.001000,0.001000,0.001000,0.001000,0.001000
1022.846154,-0.028343,0.001000,0.001000,0.001000,0.001000,0.001000
1022.865385,-0.027487,0.001000,0.001000,0.001000,0.001000,0.001000
1022.884615,-0.026619,0.001000,0.001000,0.001000,0.001000,0.001000
1022.903846,-0.025739,0.001000,0.001000,0.001000,0.001000,0.001000
1022.923077,-0.024848,0.001000,0.001000,0.001000,0.001000,0.001000
1022.942308,-0.023947,0.001000,0.001000,0.001000,0.001000,0.001000
1022.961538,-0.023036,0.001000,0.001000,0.001000,0.001000,0.001000
1022.980769,-0.022115,0.001000,0.001000,0.001000,0.001000,0.001000
1023.000000,-0.021184,0.001000,0.001000,0.001000,0.001000,0.001000
1023.019231,-0.020245,0.001000,0.001000,0.001000,0.001000,0.001000
1023.038462,-0.019296,0.001000,0.001000,0.001000,0.001000,0.001000
1023.057692,-0.018340,0.001000,0.001000,0.001000,0.001000,0.001000
1023.076923,-0.017376,0.001000,0.001000,0.001000,0.001000,0.001000
1023.096154,-0.016404,0.001000,0.001000,0.001000,0.001000,0.001000
1023.115385,-0.015425,0.001000,0.001000,0.001000,0.001000,0.001000
1023.134615,-0.014440,0.001000,0.001000,0.001000,0.001000,0.001000
1023.153846,-0.013448,0.001000,0.001000,0.001000,0.001000,0.001000
1023.173077,-0.012451,0.001000,0.001000,0.001000,0.001000,0.001000
1023.192308,-0.011449,0.001000,0.001000,0.001000,0.001000,0.001000
1023.211538,-0.010442,0.001000,0.001000,0.001000,0.001000,0.001000
1023.230769,-0.009430,0.001000,0.001000,0.001000,0.001000,0.001000
1023.250000,-0.008414,0.001000,0.001000,0.001000,0.001000,0.001000
1023.269231,-0.007394,0.001000,0.001000,0.001000,0.001000,0.001000
1023.288462,-0.006372,0.001000,0.001000,0.001000,0.001000,0.001000
1023.307692,-0.005347,0.001000,0.001000,0.001000,0.001000,0.001000
1023.326923,-0.004319,0.001000,0.001000,0.001000,0.001000,0.001000
1023.346154,-0.003290,0.001000,0.001000,0.001000,0.001000,0.001000
1023.365385,-0.002259,0.001000,0.001000,0.001000,0.001000,0.001000
1023.384615,-0.001227,0.001000,0.001000,0.001000,0.001000,0.001000
1023.403846,-0.000195,0.001000,0.001000,0.001000,0.001000,0.001000
1023.423077,0.000838,0.001000,0.001000,0.001000,0.001000,0.001000
1023.442308,0.001870,0.001000,0.001000,0.001000,0.001000,0.001000
1023.461538,0.002901,0.001000,0.001000,0.001000,0.001000,0.001000
1023.480769,0.003931,0.001000,0.001000,0.001000,0.001000,0.001000
1023.500000,0.004959,0.001000,0.001000,0.001000,0.001000,0.001000
1023.519231,0.005985,0.001000,0.001000,0.001000,0.001000,0.001000
1023.538462,0.007009,0.001000,0.001000,0.001000,0.001000,0.001000
1023.557692,0.008030,0.001000,0.001000,0.001000,0.001000,0.001000
1023.576923,0.009047,0.001000,0.001000,0.001000,0.001000,0.001000
1023.596154,0.010060,0.001000,0.001000,0.001000,0.001000,0.001000
1023.615385,0.011069,0.001000,0.001000,0.001000,0.001000,0.001000
1023.634615,0.012074,0.001000,0.001000,0.001000,0.001000,0.001000
1023.653846,0.013073,0.001000,0.001000,0.001000,0.001000,0.001000
1023.673077,0.014066,0.001000,0.001000,0.001000,0.001000,0.001000
1023.692308,0.015054,0.001000,0.001000,0.001000,0.001000,0.001000
1023.711538,0.016035,0.001000,0.001000,0.001000,0.001000,0.001000
1023.730769,0.017010,0.001000,0.001000,0.001000,0.001000,0.001000
1023.750000,0.017977,0.001000,0.001000,0.001000,0.001000,0.001000
1023.769231,0.018936,0.001000,0.001000,0.001000,0.001000,0.001000
1023.788462,0.019888,0.001000,0.001000,0.001000,0.001000,0.001000
1023.807692,0.020831,0.001000,0.001000,0.001000,0.001000,0.001000
1023.826923,0.021765,0.001000,0.001000,0.001000,0.001000,0.001000
1023.846154,0.022689,0.001000,0.001000,0.001000,0.001000,0.001000
1023.865385,0.023604,0.001000,0.001000,0.001000,0.001000,0.001000
1023.884615,0.024510,0.001000,0.001000,0.001000,0.001000,0.001000
1023.903846,0.025404,0.001000,0.001000,0.001000,0.001000,0.001000
1023.923077,0.026288,0.001000,0.001000,0.001000,0.001000,0.001000
1023.942308,0.027160,0.001000,0.001000,0.001000,0.001000,0.001000
1023.961538,0.028021,0.001000,0.001000,0.001000,0.001000,0.001000
1023.980769,0.028870,0.001000,0.001000,0.001000,0.001000,0.001000
1024.000000,0.029707,0.001000,0.001000,0.001000,0.001000,0.001000
1024.019231,0.030531,0.001000,0.001000,0.001000,0.001000,0.001000
1024.038462,0.031342,0.001000,0.001000,0.001000,0.001000,0.001000
1024.057692,0.032140,0.001000,0.001000,0.001000,0.001000,0.001000
1024.076923,0.032924,0.001000,0.001000,0.001000,0.001000,0.001000
1024.096154,0.033694,0.001000,0.001000,0.001000,0.001000,0.001000
1024.115385,0.034449,0.001000,0.001000,0.001000,0.001000,0.001000
1024.134615,0.035190,0.001000,0.001000,0.001000,0.001000,0.001000
1024.153846,0.035916,0.001000,0.001000,0.001000,0.001000,0.001000
1024.173077,0.036626,0.001000,0.001000,0.001000,0.001000,0.001000
1024.192308,0.037321,0.001000,0.001000,0.001000,0.001000,0.001000
1024.211538,0.038000,0.001000,0.001000,0.001000,0.001000,0.001000
1024.230769,0.038663,0.001000,0.001000,0.001000,0.001000,0.001000
1024.250000,0.039310,0.001000,0.001000,0.001000,0.001000,0.001000
1024.269231,0.039939,0.001000,0.001000,0.001000,0.001000,0.001000
1024.288462,0.040552,0.001000,0.001000,0.001000,0.001000,0.001000
1024.307692,0.041147,0.001000,0.001000,0.001000,0.001000,0.001000
1024.326923,0.041725,0.001000,0.001000,0.001000,0.001000,0.001000
1024.346154,0.042285,0.001000,0.001000,0.001000,0.001000,0.001000
1024.365385,0.042827,0.001000,0.001000,0.001000,0.001000,0.001000
1024.384615,0.043350,0.001000,0.001000,0.001000,0.001000,0.001000
1024.403846,0.043855,0.001000,0.001000,0.001000,0.001000,0.001000
1024.423077,0.044342,0.001000,0.001000,0.001000,0.001000,0.001000
1024.442308,0.044809,0.001000,0.001000,0.001000,0.001000,0.001000
1024.461538,0.045258,0.001000,0.001000,0.001000,0.001000,0.001000
1024.480769,0.045687,0.001000,0.001000,0.001000,0.001000,0.001000
1024.500000,0.046097,0.001000,0.001000,0.001000,0.001000,0.001000
1024.519231,0.046487,0.001000,0.001000,0.001000,0.001000,0.001000
1024.538462,0.046857,0.001000,0.001000,0.001000,0.001000,0.001000
1024.557692,0.047207,0.001000,0.001000,0.001000,0.001000,0.001000
1024.576923,0.047537,0.001000,0.001000,0.001000,0.001000,0.001000
1024.596154,0.047847,0.001000,0.001000,0.001000,0.001000,0.001000
1024.615385,0.048137,0.001000,0.001000,0.001000,0.001000,0.001000
1024.634615,0.048406,0.001000,0.001000,0.001000,0.001000,0.001000
1024.653846,0.048654,0.001000,0.001000,0.001000,0.001000,0.001000
1024.673077,0.048882,0.001000,0.001000,0.001000,0.001000,0.001000
1024.692308,0.049088,0.001000,0.001000,0.001000,0.001000,0.001000
1024.711538,0.049274,0.001000,0.001000,0.001000,0.001000,0.001000
1024.730769,0.049439,0.001000,0.001000,0.001000,0.001000,0.001000
1024.750000,0.049582,0.001000,0.001000,0.001000,0.001000,0.001000
1024.769231,0.049705,0.001000,0.001000,0.001000,0.001000,0.001000
1024.788462,0.049806,0.001000,0.001000,0.001000,0.001000,0.001000
1024.807692,0.049887,0.001000,0.001000,0.001000,0.001000,0.001000
1024.826923,0.049945,0.001000,0.001000,0.001000,0.001000,0.001000
1024.846154,0.049983,0.001000,0.001000,0.001000,0.001000,0.001000
1024.865385,0.049999,0.001000,0.001000,0.001000,0.001000,0.001000
1024.884615,0.049994,0.001000,0.001000,0.001000,0.001000,0.001000
1024.903846,0.049968,0.001000,0.001000,0.001000,0.001000,0.001000
1024.923077,0.049920,0.001000,0.001000,0.001000,0.001000,0.001000
1024.942308,0.049851,0.001000,0.001000,0.001000,0.001000,0.001000
1024.961538,0.049761,0.001000,0.001000,0.001000,0.001000,0.001000
1024.980769,0.049650,0.001000,0.001000,0.001000,0.001000,0.001000
1025.000000,0.049517,0.001000,0.001000,0.001000,0.001000,0.001000
1025.019231,0.049363,0.001000,0.001000,0.001000,0.001000,0.001000
1025.038462,0.049189,0.001000,0.001000,0.001000,0.001000,0.001000
1025.057692,0.048993,0.001000,0.001000,0.001000,0.001000,0.001000
1025.076923,0.048776,0.001000,0.001000,0.001000,0.001000,0.001000
1025.096154,0.048539,0.001000,0.001000,0.001000,0.001000,0.001000
1025.115385,0.048281,0.001000,0.001000,0.001000,0.001000,0.001000
1025.134615,0.048002,0.001000,0.001000,0.001000,0.001000,0.001000
1025.153846,0.047703,0.001000,0.001000,0.001000,0.001000,0.001000
1025.173077,0.047383,0.001000,0.001000,0.001000,0.001000,0.001000
1025.192308,0.047044,0.001000,0.001000,0.001000,0.001000,0.001000
1025.211538,0.046684,0.001000,0.001000,0.001000,0.001000,0.001000
1025.230769,0.046304,0.001000,0.001000,0.001000,0.001000,0.001000
1025.250000,0.045905,0.001000,0.001000,0.001000,0.001000,0.001000
1025.269231,0.045486,0.001000,0.001000,0.001000,0.001000,0.001000
1025.288462,0.045048,0.001000,0.001000,0.001000,0.001000,0.001000
1025.307692,0.044590,0.001000,0.001000,0.001000,0.001000,0.001000
1025.326923,0.044114,0.001000,0.001000,0.001000,0.001000,0.001000
1025.346154,0.043618,0.001000,0.001000,0.001000,0.001000,0.001000
1025.365385,0.043104,0.001000,0.001000,0.001000,0.001000,0.001000
1025.384615,0.042572,0.001000,0.001000,0.001000,0.001000,0.001000
1025.403846,0.042022,0.001000,0.001000,0.001000,0.001000,0.001000
1025.423077,0.041453,0.001000,0.001000,0.001000,0.001000,0.001000
1025.442308,0.040867,0.001000,0.001000,0.001000,0.001000,0.001000
1025.461538,0.040264,0.001000,0.001000,0.001000,0.001000,0.001000
1025.480769,0.039643,0.001000,0.001000,0.001000,0.001000,0.001000
1025.500000,0.039005,0.001000,0.001000,0.001000,0.001000,0.001000
1025.519231,0.038351,0.001000,0.001000,0.001000,0.001000,0.001000
1025.538462,0.037681,0.001000,0.001000,0.001000,0.001000,0.001000
1025.557692,0.036994,0.001000,0.001000,0.001000,0.001000,0.001000
1025.576923,0.036292,0.001000,0.001000,0.001000,0.001000,0.001000
1025.596154,0.035574,0.001000,0.001000,0.001000,0.001000,0.001000
1025.615385,0.034841,0.001000,0.001000,0.001000,0.001000,0.001000
1025.634615,0.034093,0.001000,0.001000,0.001000,0.001000,0.001000
1025.653846,0.033330,0.001000,0.001000,0.001000,0.001000,0.001000
1025.673077,0.032554,0.001000,0.001000,0.001000,0.001000,0.001000
1025.692308,0.031763,0.001000,0.001000,0.001000,0.001000,0.001000
1025.711538,0.030959,0.001000,0.001000,0.001000,0.001000,0.001000
1025.730769,0.030142,0.001000,0.001000,0.001000,0.001000,0.001000
1025.750000,0.029312,0.001000,0.001000,0.001000,0.001000,0.001000
1025.769231,0.028469,0.001000,0.001000,0.001000,0.001000,0.001000
1025.788462,0.027615,0.001000,0.001000,0.001000,0.001000,0.001000
1025.807692,0.026748,0.001000,0.001000,0.001000,0.001000,0.001000
1025.826923,0.025870,0.001000,0.001000,0.001000,0.001000,0.001000
1025.846154,0.024981,0.001000,0.001000,0.001000,0.001000,0.001000
1025.865385,0.024082,0.001000,0.001000,0.001000,0.001000,0.001000
1025.884615,0.023172,0.001000,0.001000,0.001000,0.001000,0.001000
1025.903846,0.022252,0.001000,0.001000,0.001000,0.001000,0.001000
1025.923077,0.021323,0.001000,0.001000,0.001000,0.001000,0.001000
1025.942308,0.020385,0.001000,0.001000,0.001000,0.001000,0.001000
1025.961538,0.019438,0.001000,0.001000,0.001000,0.001000,0.001000
1025.980769,0.018483,0.001000,0.001000,0.001000,0.001000,0.001000
1026.000000,0.017519,0.001000,0.001000,0.001000,0.001000,0.001000
1026.019231,0.016549,0.001000,0.001000,0.001000,0.001000,0.001000
1026.038462,0.015571,0.001000,0.001000,0.001000,0.001000,0.001000
1026.057692,0.014587,0.001000,0.001000,0.001000,0.001000,0.001000
1026.076923,0.013596,0.001000,0.001000,0.001000,0.001000,0.001000
1026.096154,0.012600,0.001000,0.001000,0.001000,0.001000,0.001000
1026.115385,0.011598,0.001000,0.001000,0.001000,0.001000,0.001000
1026.134615,0.010591,0.001000,0.001000,0.001000,0.001000,0.001000
1026.153846,0.009580,0.001000,0.001000,0.001000,0.001000,0.001000
1026.173077,0.008565,0.001000,0.001000,0.001000,0.001000,0.001000
1026.192308,0.007546,0.001000,0.001000,0.001000,0.001000,0.001000
1026.211538,0.006524,0.001000,0.001000,0.001000,0.001000,0.001000
1026.230769,0.005499,0.001000,0.001000,0.001000,0.001000,0.001000
1026.250000,0.004472,0.001000,0.001000,0.001000,0.001000,0.001000
1026.269231,0.003443,0.001000,0.001000,0.001000,0.001000,0.001000
1026.288462,0.002412,0.001000,0.001000,0.001000,0.001000,0.001000
1026.307692,0.001380,0.001000,0.001000,0.001000,0.001000,0.001000
1026.326923,0.000348,0.001000,0.001000,0.001000,0.001000,0.001000
1026.346154,-0.000684,0.001000,0.001000,0.001000,0.001000,0.001000
1026.365385,-0.001716,0.001000,0.001000,0.001000,0.001000,0.001000
1026.384615,-0.002748,0.001000,0.001000,0.001000,0.001000,0.001000
1026.403846,-0.003778,0.001000,0.001000,0.001000,0.001000,0.001000
1026.423077,-0.004806,0.001000,0.001000,0.001000,0.001000,0.001000
1026.442308,-0.005833,0.001000,0.001000,0.001000,0.001000,0.001000
1026.461538,-0.006857,0.001000,0.001000,0.001000,0.001000,0.001000
1026.480769,-0.007878,0.001000,0.001000,0.001000,0.001000,0.001000
1026.500000,-0.008896,0.001000,0.001000,0.001000,0.001000,0.001000
1026.519231,-0.009910,0.001000,0.001000,0.001000,0.001000,0.001000
1026.538462,-0.010920,0.001000,0.001000,0.001000,0.001000,0.001000
1026.557692,-0.011925,0.001000,0.001000,0.001000,0.001000,0.001000
1026.576923,-0.012925,0.001000,0.001000,0.001000,0.001000,0.001000
1026.596154,-0.013919,0.001000,0.001000,0.001000,0.001000,0.001000
1026.615385,-0.014908,0.001000,0.001000,0.001000,0.001000,0.001000
1026.634615,-0.015890,0.001000,0.001000,0.001000,0.001000,0.001000
1026.653846,-0.016865,0.001000,0.001000,0.001000,0.001000,0.001000
1026.673077,-0.017834,0.001000,0.001000,0.001000,0.001000,0.001000
1026.692308,-0.018794,0.001000,0.001000,0.001000,0.001000,0.001000
1026.711538,-0.019747,0.001000,0.001000,0.001000,0.001000,0.001000
1026.730769,-0.020691,0.001000,0.001000,0.001000,0.001000,0.001000
1026.750000,-0.021626,0.001000,0.001000,0.001000,0.001000,0.001000
1026.769231,-0.022553,0.001000,0.001000,0.001000,0.001000,0.001000
1026.788462,-0.023469,0.001000,0.001000,0.001000,0.001000,0.001000
1026.807692,-0.024376,0.001000,0.001000,0.001000,0.001000,0.001000
1026.826923,-0.025272,0.001000,0.001000,0.001000,0.001000,0.001000
1026.846154,-0.026157,0.001000,0.001000,0.001000,0.001000,0.001000
1026.865385,-0.027031,0.001000,0.001000,0.001000,0.001000,0.001000
1026.884615,-0.027894,0.001000,0.001000,0.001000,0.001000,0.001000
1026.903846,-0.028745,0.001000,0.001000,0.001000,0.001000,0.001000
1026.923077,-0.029584,0.001000,0.001000,0.001000,0.001000,0.001000
1026.942308,-0.030409,0.001000,0.001000,0.001000,0.001000,0.001000
1026.961538,-0.031222,0.001000,0.001000,0.001000,0.001000,0.001000
1026.980769,-0.032022,0.001000,0.001000,0.001000,0.001000,0.001000
1027.000000,-0.032808,0.001000,0.001000,0.001000,0.001000,0.001000
1027.019231,-0.033580,0.001000,0.001000,0.001000,0.001000,0.001000
1027.038462,-0.034338,0.001000,0.001000,0.001000,0.001000,0.001000
1027.057692,-0.035081,0.001000,0.001000,0.001000,0.001000,0.001000
1027.076923,-0.035809,0.001000,0.001000,0.001000,0.001000,0.001000
1027.096154,-0.036522,0.001000,0.001000,0.001000,0.001000,0.001000
1027.115385,-0.037219,0.001000,0.001000,0.001000,0.001000,0.001000
1027.134615,-0.037901,0.001000,0.001000,0.001000,0.001000,0.001000
1027.153846,-0.038566,0.001000,0.001000,0.001000,0.001000,0.001000
1027.173077,-0.039215,0.001000,0.001000,0.001000,0.001000,0.001000
1027.192308,-0.039847,0.001000,0.001000,0.001000,0.001000,0.001000
1027.211538,-0.040462,0.001000,0.001000,0.001000,0.001000,0.001000
1027.230769,-0.041060,0.001000,0.001000,0.001000,0.001000,0.001000
1027.250000,-0.041640,0.001000,0.001000,0.001000,0.001000,0.001000
1027.269231,-0.042203,0.001000,0.001000,0.001000,0.001000,0.001000
1027.288462,-0.042747,0.001000,0.001000,0.001000,0.001000,0.001000
1027.307692,-0.043274,0.001000,0.001000,0.001000,0.001000,0.001000
1027.326923,-0.043782,0.001000,0.001000,0.001000,0.001000,0.001000
1027.346154,-0.044271,0.001000,0.001000,0.001000,0.001000,0.001000
1027.365385,-0.044741,0.001000,0.001000,0.001000,0.001000,0.001000
1027.384615,-0.045193,0.001000,0.001000,0.001000,0.001000,0.001000
1027.403846,-0.045625,0.001000,0.001000,0.001000,0.001000,0.001000
1027.423077,-0.046037,0.001000,0.001000,0.001000,0.001000,0.001000
1027.442308,-0.046430,0.001000,0.001000,0.001000,0.001000,0.001000
1027.461538,-0.046803,0.001000,0.001000,0.001000,0.001000,0.001000
1027.480769,-0.047157,0.001000,0.001000,0.001000,0.001000,0.001000
1027.500000,-0.047490,0.001000,0.001000,0.001000,0.001000,0.001000
1027.519231,-0.047803,0.001000,0.001000,0.001000,0.001000,0.001000
1027.538462,-0.048095,0.001000,0.001000,0.001000,0.001000,0.001000
1027.557692,-0.048367,0.001000,0.001000,0.001000,0.001000,0.001000
1027.576923,-0.048618,0.001000,0.001000,0.001000,0.001000,0.001000
1027.596154,-0.048849,0.001000,0.001000,0.001000,0.001000,0.001000
1027.615385,-0.049059,0.001000,0.001000,0.001000,0.001000,0.001000
1027.634615,-0.049248,0.001000,0.001000,0.001000,0.001000,0.001000
1027.653846,-0.049416,0.001000,0.001000,0.001000,0.001000,0.001000
1027.673077,-0.049562,0.001000,0.001000,0.001000,0.001000,0.001000
1027.692308,-0.049688,0.001000,0.001000,0.001000,0.001000,0.001000
1027.711538,-0.049793,0.001000,0.001000,0.001000,0.001000,0.001000
1027.730769,-0.049876,0.001000,0.001000,0.001000,0.001000,0.001000
1027.750000,-0.049938,0.001000,0.001000,0.001000,0.001000,0.001000
1027.769231,-0.049979,0.001000,0.001000,0.001000,0.001000,0.001000
1027.788462,-0.049998,0.001000,0.001000,0.001000,0.001000,0.001000
1027.807692,-0.049996,0.001000,0.001000,0.001000,0.001000,0.001000
1027.826923,-0.049973,0.001000,0.001000,0.001000,0.001000,0.001000
1027.846154,-0.049929,0.001000,0.001000,0.001000,0.001000,0.001000
1027.865385,-0.049863,0.001000,0.001000,0.001000,0.001000,0.001000
1027.884615,-0.049776,0.001000,0.001000,0.001000,0.001000,0.001000
1027.903846,-0.049667,0.001000,0.001000,0.001000,0.001000,0.001000
1027.923077,-0.049538,0.001000,0.001000,0.001000,0.001000,0.001000
1027.942308,-0.049387,0.001000,0.001000,0.001000,0.001000,0.001000
1027.961538,-0.049216,0.001000,0.001000,0.001000,0.001000,0.001000
1027.980769,-0.049023,0.001000,0.001000,0.001000,0.001000,0.001000
1028.000000,-0.048810,0.001000,0.001000,0.001000,0.001000,0.001000
1028.019231,-0.048575,0.001000,0.001000,0.001000,0.001000,0.001000
1028.038462,-0.048320,0.001000,0.001000,0.001000,0.001000,0.001000
1028.057692,-0.048045,0.001000,0.001000,0.001000,0.001000,0.001000
1028.076923,-0.047749,0.001000,0.001000,0.001000,0.001000,0.001000
1028.096154,-0.047432,0.001000,0.001000,0.001000,0.001000,0.001000
1028.115385,-0.047096,0.001000,0.001000,0.001000,0.001000,0.001000
1028.134615,-0.046739,0.001000,0.001000,0.001000,0.001000,0.001000
1028.153846,-0.046362,0.001000,0.001000,0.001000,0.001000,0.001000
1028.173077,-0.045966,0.001000,0.001000,0.001000,0.001000,0.001000
1028.192308,-0.045550,0.001000,0.001000,0.001000,0.001000,0.001000
1028.211538,-0.045114,0.001000,0.001000,0.001000,0.001000,0.001000
1028.230769,-0.044659,0.001000,0.001000,0.001000,0.001000,0.001000
1028.250000,-0.044186,0.001000,0.001000,0.001000,0.001000,0.001000
1028.269231,-0.043693,0.001000,0.001000,0.001000,0.001000,0.001000
1028.288462,-0.043182,0.001000,0.001000,0.001000,0.001000,0.001000
1028.307692,-0.042652,0.001000,0.001000,0.001000,0.001000,0.001000
1028.326923,-0.042104,0.001000,0.001000,0.001000,0.001000,0.001000
1028.346154,-0.041539,0.001000,0.001000,0.001000,0.001000,0.001000
1028.365385,-0.040955,0.001000,0.001000,0.001000,0.001000,0.001000
1028.384615,-0.040354,0.001000,0.001000,0.001000,0.001000,0.001000
1028.403846,-0.039736,0.001000,0.001000,0.001000,0.001000,0.001000
1028.423077,-0.039101,0.001000,0.001000,0.001000,0.001000,0.001000
1028.442308,-0.038449,0.001000,0.001000,0.001000,0.001000,0.001000
1028.461538,-0.037781,0.001000,0.001000,0.001000,0.001000,0.001000
1028.480769,-0.037097,0.001000,0.001000,0.001000,0.001000,0.001000
1028.500000,-0.036397,0.001000,0.001000,0.001000,0.001000,0.001000
1028.519231,-0.035681,0.001000,0.001000,0.001000,0.001000,0.001000
1028.538462,-0.034951,0.001000,0.001000,0.001000,0.001000,0.001000
1028.557692,-0.034205,0.001000,0.001000,0.001000,0.001000,0.001000
1028.576923,-0.033445,0.001000,0.001000,0.001000,0.001000,0.001000
1028.596154,-0.032670,0.001000,0.001000,0.001000,0.001000,0.001000
1028.615385,-0.031882,0.001000,0.001000,0.001000,0.001000,0.001000
1028.634615,-0.031080,0.001000,0.001000,0.001000,0.001000,0.001000
1028.653846,-0.030264,0.001000,0.001000,0.001000,0.001000,0.001000
1028.673077,-0.029436,0.001000,0.001000,0.001000,0.001000,0.001000
1028.692308,-0.028595,0.001000,0.001000,0.001000,0.001000,0.001000
1028.711538,-0.027742,0.001000,0.001000,0.001000,0.001000,0.001000
1028.730769,-0.026878,0.001000,0.001000,0.001000,0.001000,0.001000
1028.750000,-0.026001,0.001000,0.001000,0.001000,0.001000,0.001000
1028.769231,-0.025114,0.001000,0.001000,0.001000,0.001000,0.001000
1028.788462,-0.024216,0.001000,0.001000,0.001000,0.001000,0.001000
1028.807692,-0.023308,0.001000,0.001000,0.001000,0.001000,0.001000
1028.826923,-0.022390,0.001000,0.001000,0.001000,0.001000,0.001000
1028.846154,-0.021462,0.001000,0.001000,0.001000,0.001000,0.001000
1028.865385,-0.020525,0.001000,0.001000,0.001000,0.001000,0.001000
1028.884615,-0.019579,0.001000,0.001000,0.001000,0.001000,0.001000
1028.903846,-0.018625,0.001000,0.001000,0.001000,0.001000,0.001000
1028.923077,-0.017663,0.001000,0.001000,0.001000,0.001000,0.001000
1028.942308,-0.016693,0.001000,0.001000,0.001000,0.001000,0.001000
1028.961538,-0.015717,0.001000,0.001000,0.001000,0.001000,0.001000
1028.980769,-0.014733,0.001000,0.001000,0.001000,0.001000,0.001000
1029.000000,-0.013744,0.001000,0.001000,0.001000,0.001000,0.001000
1029.019231,-0.012748,0.001000,0.001000,0.001000,0.001000,0.001000
1029.038462,-0.011747,0.001000,0.001000,0.001000,0.001000,0.001000
1029.057692,-0.010741,0.001000,0.001000,0.001000,0.001000,0.001000
1029.076923,-0.009731,0.001000,0.001000,0.001000,0.001000,0.001000
1029.096154,-0.008716,0.001000,0.001000,0.001000,0.001000,0.001000
1029.115385,-0.007698,0.001000,0.001000,0.001000,0.001000,0.001000
1029.134615,-0.006676,0.001000,0.001000,0.001000,0.001000,0.001000
1029.153846,-0.005652,0.001000,0.001000,0.001000,0.001000,0.001000
1029.173077,-0.004625,0.001000,0.001000,0.001000,0.001000,0.001000
1029.192308,-0.003596,0.001000,0.001000,0.001000,0.001000,0.001000
1029.211538,-0.002565,0.001000,0.001000,0.001000,0.001000,0.001000
1029.230769,-0.001534,0.001000,0.001000,0.001000,0.001000,0.001000
1029.250000,-0.000502,0.001000,0.001000,0.001000,0.001000,0.001000
1029.269231,0.000531,0.001000,0.001000,0.001000,0.001000,0.001000
1029.288462,0.001563,0.001000,0.001000,0.001000,0.001000,0.001000
1029.307692,0.002594,0.001000,0.001000,0.001000,0.001000,0.001000
1029.326923,0.003625,0.001000,0.001000,0.001000,0.001000,0.001000
1029.346154,0.004654,0.001000,0.001000,0.001000,0.001000,0.001000
1029.365385,0.005681,0.001000,0.001000,0.001000,0.001000,0.001000
1029.384615,0.006705,0.001000,0.001000,0.001000,0.001000,0.001000
1029.403846,0.007727,0.001000,0.001000,0.001000,0.001000,0.001000
1029.423077,0.008745,0.001000,0.001000,0.001000,0.001000,0.001000
1029.442308,0.009759,0.001000,0.001000,0.001000,0.001000,0.001000
1029.461538,0.010770,0.001000,0.001000,0.001000,0.001000,0.001000
1029.480769,0.011776,0.001000,0.001000,0.001000,0.001000,0.001000
1029.500000,0.012776,0.001000,0.001000,0.001000,0.001000,0.001000
1029.519231,0.013772,0.001000,0.001000,0.001000,0.001000,0.001000
1029.538462,0.014761,0.001000,0.001000,0.001000,0.001000,0.001000
1029.557692,0.015744,0.001000,0.001000,0.001000,0.001000,0.001000
1029.576923,0.016721,0.001000,0.001000,0.001000,0.001000,0.001000
1029.596154,0.017690,0.001000,0.001000,0.001000,0.001000,0.001000
1029.615385,0.018652,0.001000,0.001000,0.001000,0.001000,0.001000
1029.634615,0.019606,0.001000,0.001000,0.001000,0.001000,0.001000
1029.653846,0.020551,0.001000,0.001000,0.001000,0.001000,0.001000
1029.673077,0.021488,0.001000,0.001000,0.001000,0.001000,0.001000
1029.692308,0.022416,0.001000,0.001000,0.001000,0.001000,0.001000
1029.711538,0.023334,0.001000,0.001000,0.001000,0.001000,0.001000
1029.730769,0.024242,0.001000,0.001000,0.001000,0.001000,0.001000
1029.750000,0.025139,0.001000,0.001000,0.001000,0.001000,0.001000
1029.769231,0.026026,0.001000,0.001000,0.001000,0.001000,0.001000
1029.788462,0.026902,0.001000,0.001000,0.001000,0.001000,0.001000
1029.807692,0.027767,0.001000,0.001000,0.001000,0.001000,0.001000
1029.826923,0.028619,0.001000,0.001000,0.001000,0.001000,0.001000
1029.846154,0.029460,0.001000,0.001000,0.001000,0.001000,0.001000
1029.865385,0.030288,0.001000,0.001000,0.001000,0.001000,0.001000
1029.884615,0.031102,0.001000,0.001000,0.001000,0.001000,0.001000
1029.903846,0.031904,0.001000,0.001000,0.001000,0.001000,0.001000
1029.923077,0.032692,0.001000,0.001000,0.001000,0.001000,0.001000
1029.942308,0.033466,0.001000,0.001000,0.001000,0.001000,0.001000
1029.961538,0.034226,0.001000,0.001000,0.001000,0.001000,0.001000
1029.980769,0.034971,0.001000,0.001000,0.001000,0.001000,0.001000
1030.000000,0.000000,0.001000,0.001000,0.001000,0.001000,0.001000
1030.019231,0.001084,0.001000,0.001000,0.001000,0.001000,0.001000
1030.038462,0.002167,0.001000,0.001000,0.001000,0.001000,0.001000
1030.057692,0.003249,0.001000,0.001000,0.001000,0.001000,0.001000
1030.076923,0.004330,0.001000,0.001000,0.001000,0.001000,0.001000
1030.096154,0.005409,0.001000,0.001000,0.001000,0.001000,0.001000
1030.115385,0.006485,0.001000,0.001000,0.001000,0.001000,0.001000
1030.134615,0.007558,0.001000,0.001000,0.001000,0.001000,0.001000
1030.153846,0.008628,0.001000,0.001000,0.001000,0.001000,0.001000
1030.173077,0.009693,0.001000,0.001000,0.001000,0.001000,0.001000
1030.192308,0.010754,0.001000,0.001000,0.001000,0.001000,0.001000
1030.211538,0.011810,0.001000,0.001000,0.001000,0.001000,0.001000
1030.230769,0.012861,0.001000,0.001000,0.001000,0.001000,0.001000
1030.250000,0.013905,0.001000,0.001000,0.001000,0.001000,0.001000
1030.269231,0.014943,0.001000,0.001000,0.001000,0.001000,0.001000
1030.288462,0.015974,0.001000,0.001000,0.001000,0.001000,0.001000
1030.307692,0.016997,0.001000,0.001000,0.001000,0.001000,0.001000
1030.326923,0.018012,0.001000,0.001000,0.001000,0.001000,0.001000
1030.346154,0.019019,0.001000,0.001000,0.001000,0.001000,0.001000
1030.365385,0.020017,0.001000,0.001000,0.001000,0.001000,0.001000
1030.384615,0.021005,0.001000,0.001000,0.001000,0.001000,0.001000
1030.403846,0.021984,0.001000,0.001000,0.001000,0.001000,0.001000
1030.423077,0.022952,0.001000,0.001000,0.001000,0.001000,0.001000
1030.442308,0.023910,0.001000,0.001000,0.001000,0.001000,0.001000
1030.461538,0.024856,0.001000,0.001000,0.001000,0.001000,0.001000
1030.480769,0.025791,0.001000,0.001000,0.001000,0.001000,0.001000
1030.500000,0.026713,0.001000,0.001000,0.001000,0.001000,0.001000
1030.519231,0.027623,0.001000,0.001000,0.001000,0.001000,0.001000
1030.538462,0.028520,0.001000,0.001000,0.001000,0.001000,0.001000
1030.557692,0.029403,0.001000,0.001000,0.001000,0.001000,0.001000
1030.576923,0.030273,0.001000,0.001000,0.001000,0.001000,0.001000
1030.596154,0.031128,0.001000,0.001000,0.001000,0.001000,0.001000
1030.615385,0.031969,0.001000,0.001000,0.001000,0.001000,0.001000
1030.634615,0.032795,0.001000,0.001000,0.001000,0.001000,0.001000
1030.653846,0.033606,0.001000,0.001000,0.001000,0.001000,0.001000
1030.673077,0.034400,0.001000,0.001000,0.001000,0.001000,0.001000
1030.692308,0.035179,0.001000,0.001000,0.001000,0.001000,0.001000
1030.711538,0.035941,0.001000,0.001000,0.001000,0.001000,0.001000
1030.730769,0.036686,0.001000,0.001000,0.001000,0.001000,0.001000
1030.750000,0.037413,0.001000,0.001000,0.001000,0.001000,0.001000
1030.769231,0.038124,0.001000,0.001000,0.001000,0.001000,0.001000
1030.788462,0.038816,0.001000,0.001000,0.001000,0.001000,0.001000
1030.807692,0.039490,0.001000,0.001000,0.001000,0.001000,0.001000
1030.826923,0.040145,0.001000,0.001000,0.001000,0.001000,0.001000
1030.846154,0.040782,0.001000,0.001000,0.001000,0.001000,0.001000
1030.865385,0.041400,0.001000,0.001000,0.001000,0.001000,0.001000
1030.884615,0.041998,0.001000,0.001000,0.001000,0.001000,0.001000
1030.903846,0.042576,0.001000,0.001000,0.001000,0.001000,0.001000
1030.923077,0.043134,0.001000,0.001000,0.001000,0.001000,0.001000
1030.942308,0.043672,0.001000,0.001000,0.001000,0.001000,0.001000
1030.961538,0.044190,0.001000,0.001000,0.001000,0.001000,0.001000
1030.980769,0.044686,0.001000,0.001000,0.001000,0.001000,0.001000
1031.000000,0.045162,0.001000,0.001000,0.001000,0.001000,0.001000
1031.019231,0.045617,0.001000,0.001000,0.001000,0.001000,0.001000
1031.038462,0.046050,0.001000,0.001000,0.001000,0.001000,0.001000
1031.057692,0.046461,0.001000,0.001000,0.001000,0.001000,0.001000
1031.076923,0.046851,0.001000,0.001000,0.001000,0.001000,0.001000
1031.096154,0.047218,0.001000,0.001000,0.001000,0.001000,0.001000
1031.115385,0.047564,0.001000,0.001000,0.001000,0.001000,0.001000
1031.134615,0.047887,0.001000,0.001000,0.001000,0.001000,0.001000
1031.153846,0.048187,0.001000,0.001000,0.001000,0.001000,0.001000
1031.173077,0.048465,0.001000,0.001000,0.001000,0.001000,0.001000
1031.192308,0.048720,0.001000,0.001000,0.001000,0.001000,0.001000
1031.211538,0.048952,0.001000,0.001000,0.001000,0.001000,0.001000
1031.230769,0.049162,0.001000,0.001000,0.001000,0.001000,0.001000
1031.250000,0.049348,0.001000,0.001000,0.001000,0.001000,0.001000
1031.269231,0.049511,0.001000,0.001000,0.001000,0.001000,0.001000
1031.288462,0.049650,0.001000,0.001000,0.001000,0.001000,0.001000
1031.307692,0.049766,0.001000,0.001000,0.001000,0.001000,0.001000
1031.326923,0.049859,0.001000,0.001000,0.001000,0.001000,0.001000
1031.346154,0.049929,0.001000,0.001000,0.001000,0.001000,0.001000
1031.365385,0.049975,0.001000,0.001000,0.001000,0.001000,0.001000
1031.384615,0.049998,0.001000,0.001000,0.001000,0.001000,0.001000
1031.403846,0.049997,0.001000,0.001000,0.001000,0.001000,0.001000
1031.423077,0.049972,0.001000,0.001000,0.001000,0.001000,0.001000
1031.442308,0.049924,0.001000,0.001000,0.001000,0.001000,0.001000
1031.461538,0.049853,0.001000,0.001000,0.001000,0.001000,0.001000
1031.480769,0.049758,0.001000,0.001000,0.001000,0.001000,0.001000
1031.500000,0.049640,0.001000,0.001000,0.001000,0.001000,0.001000
1031.519231,0.049498,0.001000,0.001000,0.001000,0.001000,0.001000
1031.538462,0.049334,0.001000,0.001000,0.001000,0.001000,0.001000
1031.557692,0.049146,0.001000,0.001000,0.001000,0.001000,0.001000
1031.576923,0.048935,0.001000,0.001000,0.001000,0.001000,0.001000
1031.596154,0.048700,0.001000,0.001000,0.001000,0.001000,0.001000
1031.615385,0.048444,0.001000,0.001000,0.001000,0.001000,0.001000
1031.634615,0.048164,0.001000,0.001000,0.001000,0.001000,0.001000
1031.653846,0.047862,0.001000,0.001000,0.001000,0.001000,0.001000
1031.673077,0.047537,0.001000,0.001000,0.001000,0.001000,0.001000
1031.692308,0.047190,0.001000,0.001000,0.001000,0.001000,0.001000
1031.711538,0.046820,0.001000,0.001000,0.001000,0.001000,0.001000
1031.730769,0.046429,0.001000,0.001000,0.001000,0.001000,0.001000
1031.750000,0.046016,0.001000,0.001000,0.001000,0.001000,0.001000
1031.769231,0.045581,0.001000,0.001000,0.001000,0.001000,0.001000
1031.788462,0.045125,0.001000,0.001000,0.001000,0.001000,0.001000
1031.807692,0.044647,0.001000,0.001000,0.001000,0.001000,0.001000
1031.826923,0.044149,0.001000,0.001000,0.001000,0.001000,0.001000
1031.846154,0.043630,0.001000,0.001000,0.001000,0.001000,0.001000
1031.865385,0.043090,0.001000,0.001000,0.001000,0.001000,0.001000
1031.884615,0.042530,0.001000,0.001000,0.001000,0.001000,0.001000
1031.903846,0.041950,0.001000,0.001000,0.001000,0.001000,0.001000
1031.923077,0.041351,0.001000,0.001000,0.001000,0.001000,0.001000
1031.942308,0.040732,0.001000,0.001000,0.001000,0.001000,0.001000
1031.961538,0.040094,0.001000,0.001000,0.001000,0.001000,0.001000
1031.980769,0.039437,0.001000,0.001000,0.001000,0.001000,0.001000
1032.000000,0.038761,0.001000,0.001000,0.001000,0.001000,0.001000
1032.019231,0.038067,0.001000,0.001000,0.001000,0.001000,0.001000
1032.038462,0.037356,0.001000,0.001000,0.001000,0.001000,0.001000
1032.057692,0.036627,0.001000,0.001000,0.001000,0.001000,0.001000
1032.076923,0.035880,0.001000,0.001000,0.001000,0.001000,0.001000
1032.096154,0.035117,0.001000,0.001000,0.001000,0.001000,0.001000
1032.115385,0.034337,0.001000,0.001000,0.001000,0.001000,0.001000
1032.134615,0.033541,0.001000,0.001000,0.001000,0.001000,0.001000
1032.153846,0.032730,0.001000,0.001000,0.001000,0.001000,0.001000
1032.173077,0.031903,0.001000,0.001000,0.001000,0.001000,0.001000
1032.192308,0.031060,0.001000,0.001000,0.001000,0.001000,0.001000
1032.211538,0.030204,0.001000,0.001000,0.001000,0.001000,0.001000
1032.230769,0.029333,0.001000,0.001000,0.001000,0.001000,0.001000
1032.250000,0.028448,0.001000,0.001000,0.001000,0.001000,0.001000
1032.269231,0.027550,0.001000,0.001000,0.001000,0.001000,0.001000
1032.288462,0.026640,0.001000,0.001000,0.001000,0.001000,0.001000
1032.307692,0.025716,0.001000,0.001000,0.001000,0.001000,0.001000
1032.326923,0.024781,0.001000,0.001000,0.001000,0.001000,0.001000
1032.346154,0.023833,0.001000,0.001000,0.001000,0.001000,0.001000
1032.365385,0.022875,0.001000,0.001000,0.001000,0.001000,0.001000
1032.384615,0.021906,0.001000,0.001000,0.001000,0.001000,0.001000
1032.403846,0.020927,0.001000,0.001000,0.001000,0.001000,0.001000
1032.423077,0.019937,0.001000,0.001000,0.001000,0.001000,0.001000
1032.442308,0.018939,0.001000,0.001000,0.001000,0.001000,0.001000
1032.461538,0.017931,0.001000,0.001000,0.001000,0.001000,0.001000
1032.480769,0.016915,0.001000,0.001000,0.001000,0.001000,0.001000
1032.500000,0.015891,0.001000,0.001000,0.001000,0.001000,0.001000
1032.519231,0.014860,0.001000,0.001000,0.001000,0.001000,0.001000
1032.538462,0.013822,0.001000,0.001000,0.001000,0.001000,0.001000
1032.557692,0.012777,0.001000,0.001000,0.001000,0.001000,0.001000
1032.576923,0.011726,0.001000,0.001000,0.001000,0.001000,0.001000
1032.596154,0.010670,0.001000,0.001000,0.001000,0.001000,0.001000
1032.615385,0.009608,0.001000,0.001000,0.001000,0.001000,0.001000
1032.634615,0.008542,0.001000,0.001000,0.001000,0.001000,0.001000
1032.653846,0.007472,0.001000,0.001000,0.001000,0.001000,0.001000
1032.673077,0.006399,0.001000,0.001000,0.001000,0.001000,0.001000
1032.692308,0.005323,0.001000,0.001000,0.001000,0.001000,0.001000
1032.711538,0.004244,0.001000,0.001000,0.001000,0.001000,0.001000
1032.730769,0.003163,0.001000,0.001000,0.001000,0.001000,0.001000
1032.750000,0.002080,0.001000,0.001000,0.001000,0.001000,0.001000
1032.769231,0.000997,0.001000,0.001000,0.001000,0.001000,0.001000
1032.788462,-0.000087,0.001000,0.001000,0.001000,0.001000,0.001000
1032.807692,-0.001171,0.001000,0.001000,0.001000,0.001000,0.001000
1032.826923,-0.002254,0.001000,0.001000,0.001000,0.001000,0.001000
1032.846154,-0.003336,0.001000,0.001000,0.001000,0.001000,0.001000
1032.865385,-0.004417,0.001000,0.001000,0.001000,0.001000,0.001000
1032.884615,-0.005495,0.001000,0.001000,0.001000,0.001000,0.001000
1032.903846,-0.006571,0.001000,0.001000,0.001000,0.001000,0.001000
1032.923077,-0.007644,0.001000,0.001000,0.001000,0.001000,0.001000
1032.942308,-0.008713,0.001000,0.001000,0.001000,0.001000,0.001000
1032.961538,-0.009779,0.001000,0.001000,0.001000,0.001000,0.001000
1032.980769,-0.010839,0.001000,0.001000,0.001000,0.001000,0.001000
1033.000000,-0.011895,0.001000,0.001000,0.001000,0.001000,0.001000
1033.019231,-0.012945,0.001000,0.001000,0.001000,0.001000,0.001000
1033.038462,-0.013988,0.001000,0.001000,0.001000,0.001000,0.001000
1033.057692,-0.015026,0.001000,0.001000,0.001000,0.001000,0.001000
1033.076923,-0.016056,0.001000,0.001000,0.001000,0.001000,0.001000
1033.096154,-0.017078,0.001000,0.001000,0.001000,0.001000,0.001000
1033.115385,-0.018093,0.001000,0.001000,0.001000,0.001000,0.001000
1033.134615,-0.019099,0.001000,0.001000,0.001000,0.001000,0.001000
1033.153846,-0.020096,0.001000,0.001000,0.001000,0.001000,0.001000
1033.173077,-0.021084,0.001000,0.001000,0.001000,0.001000,0.001000
1033.192308,-0.022062,0.001000,0.001000,0.001000,0.001000,0.001000
1033.211538,-0.023029,0.001000,0.001000,0.001000,0.001000,0.001000
1033.230769,-0.023986,0.001000,0.001000,0.001000,0.001000,0.001000
1033.250000,-0.024931,0.001000,0.001000,0.001000,0.001000,0.001000
1033.269231,-0.025865,0.001000,0.001000,0.001000,0.001000,0.001000
1033.288462,-0.026786,0.001000,0.001000,0.001000,0.001000,0.001000
1033.307692,-0.027695,0.001000,0.001000,0.001000,0.001000,0.001000
1033.326923,-0.028591,0.001000,0.001000,0.001000,0.001000,0.001000
1033.346154,-0.029473,0.001000,0.001000,0.001000,0.001000,0.001000
1033.365385,-0.030342,0.001000,0.001000,0.001000,0.001000,0.001000
1033.384615,-0.031196,0.001000,0.001000,0.001000,0.001000,0.001000
1033.403846,-0.032036,0.001000,0.001000,0.001000,0.001000,0.001000
1033.423077,-0.032861,0.001000,0.001000,0.001000,0.001000,0.001000
1033.442308,-0.033670,0.001000,0.001000,0.001000,0.001000,0.001000
1033.461538,-0.034463,0.001000,0.001000,0.001000,0.001000,0.001000
1033.480769,-0.035240,0.001000,0.001000,0.001000,0.001000,0.001000
1033.500000,-0.036001,0.001000,0.001000,0.001000,0.001000,0.001000
1033.519231,-0.036745,0.001000,0.001000,0.001000,0.001000,0.001000
1033.538462,-0.037471,0.001000,0.001000,0.001000,0.001000,0.001000
1033.557692,-0.038180,0.001000,0.001000,0.001000,0.001000,0.001000
1033.576923,-0.038871,0.001000,0.001000,0.001000,0.001000,0.001000
1033.596154,-0.039543,0.001000,0.001000,0.001000,0.001000,0.001000
1033.615385,-0.040197,0.001000,0.001000,0.001000,0.001000,0.001000
1033.634615,-0.040832,0.001000,0.001000,0.001000,0.001000,0.001000
1033.653846,-0.041448,0.001000,0.001000,0.001000,0.001000,0.001000
1033.673077,-0.042045,0.001000,0.001000,0.001000,0.001000,0.001000
1033.692308,-0.042621,0.001000,0.001000,0.001000,0.001000,0.001000
1033.711538,-0.043178,0.001000,0.001000,0.001000,0.001000,0.001000
1033.730769,-0.043714,0.001000,0.001000,0.001000,0.001000,0.001000
1033.750000,-0.044230,0.001000,0.001000,0.001000,0.001000,0.001000
1033.769231,-0.044725,0.001000,0.001000,0.001000,0.001000,0.001000
1033.788462,-0.045199,0.001000,0.001000,0.001000,0.001000,0.001000
1033.807692,-0.045652,0.001000,0.001000,0.001000,0.001000,0.001000
1033.826923,-0.046083,0.001000,0.001000,0.001000,0.001000,0.001000
1033.846154,-0.046493,0.001000,0.001000,0.001000,0.001000,0.001000
1033.865385,-0.046881,0.001000,0.001000,0.001000,0.001000,0.001000
1033.884615,-0.047247,0.001000,0.001000,0.001000,0.001000,0.001000
1033.903846,-0.047590,0.001000,0.001000,0.001000,0.001000,0.001000
1033.923077,-0.047911,0.001000,0.001000,0.001000,0.001000,0.001000
1033.942308,-0.048210,0.001000,0.001000,0.001000,0.001000,0.001000
1033.961538,-0.048486,0.001000,0.001000,0.001000,0.001000,0.001000
1033.980769,-0.048740,0.001000,0.001000,0.001000,0.001000,0.001000
1034.000000,-0.048970,0.001000,0.001000,0.001000,0.001000,0.001000
1034.019231,-0.049177,0.001000,0.001000,0.001000,0.001000,0.001000
1034.038462,-0.049362,0.001000,0.001000,0.001000,0.001000,0.001000
1034.057692,-0.049523,0.001000,0.001000,0.001000,0.001000,0.001000
1034.076923,-0.049660,0.001000,0.001000,0.001000,0.001000,0.001000
1034.096154,-0.049775,0.001000,0.001000,0.001000,0.001000,0.001000
1034.115385,-0.049866,0.001000,0.001000,0.001000,0.001000,0.001000
1034.134615,-0.049933,0.001000,0.001000,0.001000,0.001000,0.001000
1034.153846,-0.049978,0.001000,0.001000,0.001000,0.001000,0.001000
1034.173077,-0.049998,0.001000,0.001000,0.001000,0.001000,0.001000
1034.192308,-0.049995,0.001000,0.001000,0.001000,0.001000,0.001000
1034.211538,-0.049969,0.001000,0.001000,0.001000,0.001000,0.001000
1034.230769,-0.049919,0.001000,0.001000,0.001000,0.001000,0.001000
1034.250000,-0.049846,0.001000,0.001000,0.001000,0.001000,0.001000
1034.269231,-0.049749,0.001000,0.001000,0.001000,0.001000,0.001000
1034.288462,-0.049629,0.001000,0.001000,0.001000,0.001000,0.001000
1034.307692,-0.049486,0.001000,0.001000,0.001000,0.001000,0.001000
1034.326923,-0.049319,0.001000,0.001000,0.001000,0.001000,0.001000
1034.346154,-0.049130,0.001000,0.001000,0.001000,0.001000,0.001000
1034.365385,-0.048917,0.001000,0.001000,0.001000,0.001000,0.001000
1034.384615,-0.048681,0.001000,0.001000,0.001000,0.001000,0.001000
1034.403846,-0.048422,0.001000,0.001000,0.001000,0.001000,0.001000
1034.423077,-0.048140,0.001000,0.001000,0.001000,0.001000,0.001000
1034.442308,-0.047836,0.001000,0.001000,0.001000,0.001000,0.001000
1034.461538,-0.047510,0.001000,0.001000,0.001000,0.001000,0.001000
1034.480769,-0.047161,0.001000,0.001000,0.001000,0.001000,0.001000
1034.500000,-0.046790,0.001000,0.001000,0.001000,0.001000,0.001000
1034.519231,-0.046397,0.001000,0.001000,0.001000,0.001000,0.001000
1034.538462,-0.045982,0.001000,0.001000,0.001000,0.001000,0.001000
1034.557692,-0.045545,0.001000,0.001000,0.001000,0.001000,0.001000
1034.576923,-0.045087,0.001000,0.001000,0.001000,0.001000,0.001000
1034.596154,-0.044608,0.001000,0.001000,0.001000,0.001000,0.001000
1034.615385,-0.044108,0.001000,0.001000,0.001000,0.001000,0.001000
1034.634615,-0.043587,0.001000,0.001000,0.001000,0.001000,0.001000
1034.653846,-0.043046,0.001000,0.001000,0.001000,0.001000,0.001000
1034.673077,-0.042485,0.001000,0.001000,0.001000,0.001000,0.001000
