timestamp,ax,ay,az,gx,gy,gz
1000.000000,0.000000,0.001000,0.001000,0.001000,0.001000,0.001000
1000.019231,0.001464,0.001000,0.001000,0.001000,0.001000,0.001000
1000.038462,0.002926,0.001000,0.001000,0.001000,0.001000,0.001000
1000.057692,0.004386,0.001000,0.001000,0.001000,0.001000,0.001000
1000.076923,0.005842,0.001000,0.001000,0.001000,0.001000,0.001000
1000.096154,0.007293,0.001000,0.001000,0.001000,0.001000,0.001000
1000.115385,0.008738,0.001000,0.001000,0.001000,0.001000,0.001000
1000.134615,0.010175,0.001000,0.001000,0.001000,0.001000,0.001000
1000.153846,0.011603,0.001000,0.001000,0.001000,0.001000,0.001000
1000.173077,0.013022,0.001000,0.001000,0.001000,0.001000,0.001000
1000.192308,0.014430,0.001000,0.001000,0.001000,0.001000,0.001000
1000.211538,0.015825,0.001000,0.001000,0.001000,0.001000,0.001000
1000.230769,0.017206,0.001000,0.001000,0.001000,0.001000,0.001000
1000.250000,0.018573,0.001000,0.001000,0.001000,0.001000,0.001000
1000.269231,0.019924,0.001000,0.001000,0.001000,0.001000,0.001000
1000.288462,0.021258,0.001000,0.001000,0.001000,0.001000,0.001000
1000.307692,0.022573,0.001000,0.001000,0.001000,0.001000,0.001000
1000.326923,0.023870,0.001000,0.001000,0.001000,0.001000,0.001000
1000.346154,0.025145,0.001000,0.001000,0.001000,0.001000,0.001000
1000.365385,0.026400,0.001000,0.001000,0.001000,0.001000,0.001000
1000.384615,0.027631,0.001000,0.001000,0.001000,0.001000,0.001000
1000.403846,0.028839,0.001000,0.001000,0.001000,0.001000,0.001000
1000.423077,0.030022,0.001000,0.001000,0.001000,0.001000,0.001000
1000.442308,0.031180,0.001000,0.001000,0.001000,0.001000,0.001000
1000.461538,0.032311,0.001000,0.001000,0.001000,0.001000,0.001000
1000.480769,0.033414,0.001000,0.001000,0.001000,0.001000,0.001000
1000.500000,0.034488,0.001000,0.001000,0.001000,0.001000,0.001000
1000.519231,0.035533,0.001000,0.001000,0.001000,0.001000,0.001000
1000.538462,0.036548,0.001000,0.001000,0.001000,0.001000,0.001000
1000.557692,0.037531,0.001000,0.001000,0.001000,0.001000,0.001000
1000.576923,0.038482,0.001000,0.001000,0.001000,0.001000,0.001000
1000.596154,0.039400,0.001000,0.001000,0.001000,0.001000,0.001000
1000.615385,0.040284,0.001000,0.001000,0.001000,0.001000,0.001000
1000.634615,0.041134,0.001000,0.001000,0.001000,0.001000,0.001000
1000.653846,0.041948,0.001000,0.001000,0.001000,0.001000,0.001000
1000.673077,0.042727,0.001000,0.001000,0.001000,0.001000,0.001000
1000.692308,0.043468,0.001000,0.001000,0.001000,0.001000,0.001000
1000.711538,0.044173,0.001000,0.001000,0.001000,0.001000,0.001000
1000.730769,0.044840,0.001000,0.001000,0.001000,0.001000,0.001000
1000.750000,0.045468,0.001000,0.001000,0.001000,0.001000,0.001000
1000.769231,0.046057,0.001000,0.001000,0.001000,0.001000,0.001000
1000.788462,0.046607,0.001000,0.001000,0.001000,0.001000,0.001000
1000.807692,0.047117,0.001000,0.001000,0.001000,0.001000,0.001000
1000.826923,0.047587,0.001000,0.001000,0.001000,0.001000,0.001000
1000.846154,0.048016,0.001000,0.001000,0.001000,0.001000,0.001000
1000.865385,0.048403,0.001000,0.001000,0.001000,0.001000,0.001000
1000.884615,0.048750,0.001000,0.001000,0.001000,0.001000,0.001000
1000.903846,0.049054,0.001000,0.001000,0.001000,0.001000,0.001000
1000.923077,0.049316,0.001000,0.001000,0.001000,0.001000,0.001000
1000.942308,0.049536,0.001000,0.001000,0.001000,0.001000,0.001000
1000.961538,0.049714,0.001000,0.001000,0.001000,0.001000,0.001000
1000.980769,0.049849,0.001000,0.001000,0.001000,0.001000,0.001000
1001.000000,0.049941,0.001000,0.001000,0.001000,0.001000,0.001000
1001.019231,0.049991,0.001000,0.001000,0.001000,0.001000,0.001000
1001.038462,0.049997,0.001000,0.001000,0.001000,0.001000,0.001000
1001.057692,0.049961,0.001000,0.001000,0.001000,0.001000,0.001000
1001.076923,0.049882,0.001000,0.001000,0.001000,0.001000,0.001000
1001.096154,0.049761,0.001000,0.001000,0.001000,0.001000,0.001000
1001.115385,0.049596,0.001000,0.001000,0.001000,0.001000,0.001000
1001.134615,0.049389,0.001000,0.001000,0.001000,0.001000,0.001000
1001.153846,0.049140,0.001000,0.001000,0.001000,0.001000,0.001000
1001.173077,0.048849,0.001000,0.001000,0.001000,0.001000,0.001000
1001.192308,0.048515,0.001000,0.001000,0.001000,0.001000,0.001000
1001.211538,0.048141,0.001000,0.001000,0.001000,0.001000,0.001000
1001.230769,0.047725,0.001000,0.001000,0.001000,0.001000,0.001000
1001.250000,0.047268,0.001000,0.001000,0.001000,0.001000,0.001000
1001.269231,0.046770,0.001000,0.001000,0.001000,0.001000,0.001000
1001.288462,0.046233,0.001000,0.001000,0.001000,0.001000,0.001000
1001.307692,0.045656,0.001000,0.001000,0.001000,0.001000,0.001000
1001.326923,0.045039,0.001000,0.001000,0.001000,0.001000,0.001000
1001.346154,0.044384,0.001000,0.001000,0.001000,0.001000,0.001000
1001.365385,0.043691,0.001000,0.001000,0.001000,0.001000,0.001000
1001.384615,0.042961,0.001000,0.001000,0.001000,0.001000,0.001000
1001.403846,0.042194,0.001000,0.001000,0.001000,0.001000,0.001000
1001.423077,0.041391,0.001000,0.001000,0.001000,0.001000,0.001000
1001.442308,0.040552,0.001000,0.001000,0.001000,0.001000,0.001000
1001.461538,0.039678,0.001000,0.001000,0.001000,0.001000,0.001000
1001.480769,0.038771,0.001000,0.001000,0.001000,0.001000,0.001000
1001.500000,0.037830,0.001000,0.001000,0.001000,0.001000,0.001000
1001.519231,0.036857,0.001000,0.001000,0.001000,0.001000,0.001000
1001.538462,0.035852,0.001000,0.001000,0.001000,0.001000,0.001000
1001.557692,0.034816,0.001000,0.001000,0.001000,0.001000,0.001000
1001.576923,0.033751,0.001000,0.001000,0.001000,0.001000,0.001000
1001.596154,0.032657,0.001000,0.001000,0.001000,0.001000,0.001000
1001.615385,0.031534,0.001000,0.001000,0.001000,0.001000,0.001000
1001.634615,0.030385,0.001000,0.001000,0.001000,0.001000,0.001000
1001.653846,0.029210,0.001000,0.001000,0.001000,0.001000,0.001000
1001.673077,0.028009,0.001000,0.001000,0.001000,0.001000,0.001000
1001.692308,0.026785,0.001000,0.001000,0.001000,0.001000,0.001000
1001.711538,0.025538,0.001000,0.001000,0.001000,0.001000,0.001000
1001.730769,0.024269,0.001000,0.001000,0.001000,0.001000,0.001000
1001.750000,0.022979,0.001000,0.001000,0.001000,0.001000,0.001000
1001.769231,0.021669,0.001000,0.001000,0.001000,0.001000,0.001000
1001.788462,0.020341,0.001000,0.001000,0.001000,0.001000,0.001000
1001.807692,0.018995,0.001000,0.001000,0.001000,0.001000,0.001000
1001.826923,0.017633,0.001000,0.001000,0.001000,0.001000,0.001000
1001.846154,0.016256,0.001000,0.001000,0.001000,0.001000,0.001000
1001.865385,0.014865,0.001000,0.001000,0.001000,0.001000,0.001000
1001.884615,0.013461,0.001000,0.001000,0.001000,0.001000,0.001000
1001.903846,0.012046,0.001000,0.001000,0.001000,0.001000,0.001000
1001.923077,0.010620,0.001000,0.001000,0.001000,0.001000,0.001000
1001.942308,0.009185,0.001000,0.001000,0.001000,0.001000,0.001000
1001.961538,0.007743,0.001000,0.001000,0.001000,0.001000,0.001000
1001.980769,0.006293,0.001000,0.001000,0.001000,0.001000,0.001000
1002.000000,0.004839,0.001000,0.001000,0.001000,0.001000,0.001000
1002.019231,0.003380,0.001000,0.001000,0.001000,0.001000,0.001000
1002.038462,0.001918,0.001000,0.001000,0.001000,0.001000,0.001000
1002.057692,0.000455,0.001000,0.001000,0.001000,0.001000,0.001000
1002.076923,-0.001009,0.001000,0.001000,0.001000,0.001000,0.001000
1002.096154,-0.002471,0.001000,0.001000,0.001000,0.001000,0.001000
1002.115385,-0.003932,0.001000,0.001000,0.001000,0.001000,0.001000
1002.134615,-0.005390,0.001000,0.001000,0.001000,0.001000,0.001000
1002.153846,-0.006842,0.001000,0.001000,0.001000,0.001000,0.001000
1002.173077,-0.008289,0.001000,0.001000,0.001000,0.001000,0.001000
1002.192308,-0.009729,0.001000,0.001000,0.001000,0.001000,0.001000
1002.211538,-0.011160,0.001000,0.001000,0.001000,0.001000,0.001000
1002.230769,-0.012582,0.001000,0.001000,0.001000,0.001000,0.001000
1002.250000,-0.013993,0.001000,0.001000,0.001000,0.001000,0.001000
1002.269231,-0.015392,0.001000,0.001000,0.001000,0.001000,0.001000
1002.288462,-0.016778,0.001000,0.001000,0.001000,0.001000,0.001000
1002.307692,-0.018150,0.001000,0.001000,0.001000,0.001000,0.001000
1002.326923,-0.019506,0.001000,0.001000,0.001000,0.001000,0.001000
1002.346154,-0.020845,0.001000,0.001000,0.001000,0.001000,0.001000
1002.365385,-0.022166,0.001000,0.001000,0.001000,0.001000,0.001000
1002.384615,-0.023469,0.001000,0.001000,0.001000,0.001000,0.001000
1002.403846,-0.024751,0.001000,0.001000,0.001000,0.001000,0.001000
1002.423077,-0.026012,0.001000,0.001000,0.001000,0.001000,0.001000
1002.442308,-0.027251,0.001000,0.001000,0.001000,0.001000,0.001000
1002.461538,-0.028466,0.001000,0.001000,0.001000,0.001000,0.001000
1002.480769,-0.029657,0.001000,0.001000,0.001000,0.001000,0.001000
1002.500000,-0.030823,0.001000,0.001000,0.001000,0.001000,0.001000
1002.519231,-0.031962,0.001000,0.001000,0.001000,0.001000,0.001000
1002.538462,-0.033074,0.001000,0.001000,0.001000,0.001000,0.001000
1002.557692,-0.034157,0.001000,0.001000,0.001000,0.001000,0.001000
1002.576923,-0.035212,0.001000,0.001000,0.001000,0.001000,0.001000
1002.596154,-0.036236,0.001000,0.001000,0.001000,0.001000,0.001000
1002.615385,-0.037229,0.001000,0.001000,0.001000,0.001000,0.001000
1002.634615,-0.038190,0.001000,0.001000,0.001000,0.001000,0.001000
1002.653846,-0.039118,0.001000,0.001000,0.001000,0.001000,0.001000
1002.673077,-0.040013,0.001000,0.001000,0.001000,0.001000,0.001000
1002.692308,-0.040873,0.001000,0.001000,0.001000,0.001000,0.001000
1002.711538,-0.041699,0.001000,0.001000,0.001000,0.001000,0.001000
1002.730769,-0.042488,0.001000,0.001000,0.001000,0.001000,0.001000
1002.750000,-0.043242,0.001000,0.001000,0.001000,0.001000,0.001000
1002.769231,-0.043958,0.001000,0.001000,0.001000,0.001000,0.001000
1002.788462,-0.044637,0.001000,0.001000,0.001000,0.001000,0.001000
1002.807692,-0.045277,0.001000,0.001000,0.001000,0.001000,0.001000
1002.826923,-0.045878,0.001000,0.001000,0.001000,0.001000,0.001000
1002.846154,-0.046441,0.001000,0.001000,0.001000,0.001000,0.001000
1002.865385,-0.046963,0.001000,0.001000,0.001000,0.001000,0.001000
1002.884615,-0.047445,0.001000,0.001000,0.001000,0.001000,0.001000
1002.903846,-0.047887,0.001000,0.001000,0.001000,0.001000,0.001000
1002.923077,-0.048287,0.001000,0.001000,0.001000,0.001000,0.001000
1002.942308,-0.048646,0.001000,0.001000,0.001000,0.001000,0.001000
1002.961538,-0.048964,0.001000,0.001000,0.001000,0.001000,0.001000
1002.980769,-0.049239,0.001000,0.001000,0.001000,0.001000,0.001000
1003.000000,-0.049472,0.001000,0.001000,0.001000,0.001000,0.001000
1003.019231,-0.049663,0.001000,0.001000,0.001000,0.001000,0.001000
1003.038462,-0.049812,0.001000,0.001000,0.001000,0.001000,0.001000
1003.057692,-0.049917,0.001000,0.001000,0.001000,0.001000,0.001000
1003.076923,-0.049980,0.001000,0.001000,0.001000,0.001000,0.001000
1003.096154,-0.050000,0.001000,0.001000,0.001000,0.001000,0.001000
1003.115385,-0.049977,0.001000,0.001000,0.001000,0.001000,0.001000
1003.134615,-0.049911,0.001000,0.001000,0.001000,0.001000,0.001000
1003.153846,-0.049803,0.001000,0.001000,0.001000,0.001000,0.001000
1003.173077,-0.049652,0.001000,0.001000,0.001000,0.001000,0.001000
1003.192308,-0.049458,0.001000,0.001000,0.001000,0.001000,0.001000
1003.211538,-0.049222,0.001000,0.001000,0.001000,0.001000,0.001000
1003.230769,-0.048944,0.001000,0.001000,0.001000,0.001000,0.001000
1003.250000,-0.048624,0.001000,0.001000,0.001000,0.001000,0.001000
1003.269231,-0.048262,0.001000,0.001000,0.001000,0.001000,0.001000
1003.288462,-0.047858,0.001000,0.001000,0.001000,0.001000,0.001000
1003.307692,-0.047414,0.001000,0.001000,0.001000,0.001000,0.001000
1003.326923,-0.046929,0.001000,0.001000,0.001000,0.001000,0.001000
1003.346154,-0.046404,0.001000,0.001000,0.001000,0.001000,0.001000
1003.365385,-0.045839,0.001000,0.001000,0.001000,0.001000,0.001000
1003.384615,-0.045235,0.001000,0.001000,0.001000,0.001000,0.001000
1003.403846,-0.044592,0.001000,0.001000,0.001000,0.001000,0.001000
1003.423077,-0.043911,0.001000,0.001000,0.001000,0.001000,0.001000
1003.442308,-0.043192,0.001000,0.001000,0.001000,0.001000,0.001000
1003.461538,-0.042436,0.001000,0.001000,0.001000,0.001000,0.001000
1003.480769,-0.041644,0.001000,0.001000,0.001000,0.001000,0.001000
1003.500000,-0.040816,0.001000,0.001000,0.001000,0.001000,0.001000
1003.519231,-0.039954,0.001000,0.001000,0.001000,0.001000,0.001000
1003.538462,-0.039056,0.001000,0.001000,0.001000,0.001000,0.001000
1003.557692,-0.038126,0.001000,0.001000,0.001000,0.001000,0.001000
1003.576923,-0.037163,0.001000,0.001000,0.001000,0.001000,0.001000
1003.596154,-0.036168,0.001000,0.001000,0.001000,0.001000,0.001000
1003.615385,-0.035142,0.001000,0.001000,0.001000,0.001000,0.001000
1003.634615,-0.034085,0.001000,0.001000,0.001000,0.001000,0.001000
1003.653846,-0.033000,0.001000,0.001000,0.001000,0.001000,0.001000
1003.673077,-0.031886,0.001000,0.001000,0.001000,0.001000,0.001000
1003.692308,-0.030745,0.001000,0.001000,0.001000,0.001000,0.001000
1003.711538,-0.029578,0.001000,0.001000,0.001000,0.001000,0.001000
1003.730769,-0.028385,0.001000,0.001000,0.001000,0.001000,0.001000
1003.750000,-0.027168,0.001000,0.001000,0.001000,0.001000,0.001000
1003.769231,-0.025928,0.001000,0.001000,0.001000,0.001000,0.001000
1003.788462,-0.024665,0.001000,0.001000,0.001000,0.001000,0.001000
1003.807692,-0.023382,0.001000,0.001000,0.001000,0.001000,0.001000
1003.826923,-0.022078,0.001000,0.001000,0.001000,0.001000,0.001000
1003.846154,-0.020755,0.001000,0.001000,0.001000,0.001000,0.001000
1003.865385,-0.019415,0.001000,0.001000,0.001000,0.001000,0.001000
1003.884615,-0.018058,0.001000,0.001000,0.001000,0.001000,0.001000
1003.903846,-0.016685,0.001000,0.001000,0.001000,0.001000,0.001000
1003.923077,-0.015299,0.001000,0.001000,0.001000,0.001000,0.001000
1003.942308,-0.013899,0.001000,0.001000,0.001000,0.001000,0.001000
1003.961538,-0.012487,0.001000,0.001000,0.001000,0.001000,0.001000
1003.980769,-0.011064,0.001000,0.001000,0.001000,0.001000,0.001000
1004.000000,-0.009632,0.001000,0.001000,0.001000,0.001000,0.001000
1004.019231,-0.008192,0.001000,0.001000,0.001000,0.001000,0.001000
1004.038462,-0.006745,0.001000,0.001000,0.001000,0.001000,0.001000
1004.057692,-0.005292,0.001000,0.001000,0.001000,0.001000,0.001000
1004.076923,-0.003834,0.001000,0.001000,0.001000,0.001000,0.001000
1004.096154,-0.002373,0.001000,0.001000,0.001000,0.001000,0.001000
1004.115385,-0.000910,0.001000,0.001000,0.001000,0.001000,0.001000
1004.134615,0.000554,0.001000,0.001000,0.001000,0.001000,0.001000
1004.153846,0.002017,0.001000,0.001000,0.001000,0.001000,0.001000
1004.173077,0.003478,0.001000,0.001000,0.001000,0.001000,0.001000
1004.192308,0.004937,0.001000,0.001000,0.001000,0.001000,0.001000
1004.211538,0.006391,0.001000,0.001000,0.001000,0.001000,0.001000
1004.230769,0.007840,0.001000,0.001000,0.001000,0.001000,0.001000
1004.250000,0.009282,0.001000,0.001000,0.001000,0.001000,0.001000
1004.269231,0.010716,0.001000,0.001000,0.001000,0.001000,0.001000
1004.288462,0.012141,0.001000,0.001000,0.001000,0.001000,0.001000
1004.307692,0.013556,0.001000,0.001000,0.001000,0.001000,0.001000
1004.326923,0.014959,0.001000,0.001000,0.001000,0.001000,0.001000
1004.346154,0.016349,0.001000,0.001000,0.001000,0.001000,0.001000
1004.365385,0.017725,0.001000,0.001000,0.001000,0.001000,0.001000
1004.384615,0.019086,0.001000,0.001000,0.001000,0.001000,0.001000
1004.403846,0.020430,0.001000,0.001000,0.001000,0.001000,0.001000
1004.423077,0.021758,0.001000,0.001000,0.001000,0.001000,0.001000
1004.442308,0.023066,0.001000,0.001000,0.001000,0.001000,0.001000
1004.461538,0.024355,0.001000,0.001000,0.001000,0.001000,0.001000
1004.480769,0.025622,0.001000,0.001000,0.001000,0.001000,0.001000
1004.500000,0.026868,0.001000,0.001000,0.001000,0.001000,0.001000
1004.519231,0.028091,0.001000,0.001000,0.001000,0.001000,0.001000
1004.538462,0.029290,0.001000,0.001000,0.001000,0.001000,0.001000
1004.557692,0.030463,0.001000,0.001000,0.001000,0.001000,0.001000
1004.576923,0.031611,0.001000,0.001000,0.001000,0.001000,0.001000
1004.596154,0.032731,0.001000,0.001000,0.001000,0.001000,0.001000
1004.615385,0.033824,0.001000,0.001000,0.001000,0.001000,0.001000
1004.634615,0.034887,0.001000,0.001000,0.001000,0.001000,0.001000
1004.653846,0.035920,0.001000,0.001000,0.001000,0.001000,0.001000
1004.673077,0.036923,0.001000,0.001000,0.001000,0.001000,0.001000
1004.692308,0.037894,0.001000,0.001000,0.001000,0.001000,0.001000
1004.711538,0.038833,0.001000,0.001000,0.001000,0.001000,0.001000
1004.730769,0.039738,0.001000,0.001000,0.001000,0.001000,0.001000
1004.750000,0.040609,0.001000,0.001000,0.001000,0.001000,0.001000
1004.769231,0.041446,0.001000,0.001000,0.001000,0.001000,0.001000
1004.788462,0.042247,0.001000,0.001000,0.001000,0.001000,0.001000
1004.807692,0.043011,0.001000,0.001000,0.001000,0.001000,0.001000
1004.826923,0.043739,0.001000,0.001000,0.001000,0.001000,0.001000
1004.846154,0.044430,0.001000,0.001000,0.001000,0.001000,0.001000
1004.865385,0.045082,0.001000,0.001000,0.001000,0.001000,0.001000
1004.884615,0.045696,0.001000,0.001000,0.001000,0.001000,0.001000
1004.903846,0.046270,0.001000,0.001000,0.001000,0.001000,0.001000
1004.923077,0.046805,0.001000,0.001000,0.001000,0.001000,0.001000
1004.942308,0.047300,0.001000,0.001000,0.001000,0.001000,0.001000
1004.961538,0.047754,0.001000,0.001000,0.001000,0.001000,0.001000
1004.980769,0.048167,0.001000,0.001000,0.001000,0.001000,0.001000
1005.000000,0.048539,0.001000,0.001000,0.001000,0.001000,0.001000
1005.019231,0.048870,0.001000,0.001000,0.001000,0.001000,0.001000
1005.038462,0.049158,0.001000,0.001000,0.001000,0.001000,0.001000
1005.057692,0.049404,0.001000,0.001000,0.001000,0.001000,0.001000
1005.076923,0.049609,0.001000,0.001000,0.001000,0.001000,0.001000
1005.096154,0.049770,0.001000,0.001000,0.001000,0.001000,0.001000
1005.115385,0.049889,0.001000,0.001000,0.001000,0.001000,0.001000
1005.134615,0.049965,0.001000,0.001000,0.001000,0.001000,0.001000
1005.153846,0.049998,0.001000,0.001000,0.001000,0.001000,0.001000
1005.173077,0.049989,0.001000,0.001000,0.001000,0.001000,0.001000
1005.192308,0.049936,0.001000,0.001000,0.001000,0.001000,0.001000
1005.211538,0.049841,0.001000,0.001000,0.001000,0.001000,0.001000
1005.230769,0.049703,0.001000,0.001000,0.001000,0.001000,0.001000
1005.250000,0.049523,0.001000,0.001000,0.001000,0.001000,0.001000
1005.269231,0.049300,0.001000,0.001000,0.001000,0.001000,0.001000
1005.288462,0.049035,0.001000,0.001000,0.001000,0.001000,0.001000
1005.307692,0.048728,0.001000,0.001000,0.001000,0.001000,0.001000
1005.326923,0.048379,0.001000,0.001000,0.001000,0.001000,0.001000
1005.346154,0.047988,0.001000,0.001000,0.001000,0.001000,0.001000
1005.365385,0.047557,0.001000,0.001000,0.001000,0.001000,0.001000
1005.384615,0.047084,0.001000,0.001000,0.001000,0.001000,0.001000
1005.403846,0.046572,0.001000,0.001000,0.001000,0.001000,0.001000
1005.423077,0.046019,0.001000,0.001000,0.001000,0.001000,0.001000
1005.442308,0.045427,0.001000,0.001000,0.001000,0.001000,0.001000
1005.461538,0.044796,0.001000,0.001000,0.001000,0.001000,0.001000
1005.480769,0.044127,0.001000,0.001000,0.001000,0.001000,0.001000
1005.500000,0.043420,0.001000,0.001000,0.001000,0.001000,0.001000
1005.519231,0.042675,0.001000,0.001000,0.001000,0.001000,0.001000
1005.538462,0.041894,0.001000,0.001000,0.001000,0.001000,0.001000
1005.557692,0.041078,0.001000,0.001000,0.001000,0.001000,0.001000
1005.576923,0.040225,0.001000,0.001000,0.001000,0.001000,0.001000
1005.596154,0.039339,0.001000,0.001000,0.001000,0.001000,0.001000
1005.615385,0.038419,0.001000,0.001000,0.001000,0.001000,0.001000
1005.634615,0.037466,0.001000,0.001000,0.001000,0.001000,0.001000
1005.653846,0.036480,0.001000,0.001000,0.001000,0.001000,0.001000
1005.673077,0.035464,0.001000,0.001000,0.001000,0.001000,0.001000
1005.692308,0.034417,0.001000,0.001000,0.001000,0.001000,0.001000
1005.711538,0.033341,0.001000,0.001000,0.001000,0.001000,0.001000
1005.730769,0.032236,0.001000,0.001000,0.001000,0.001000,0.001000
1005.750000,0.031103,0.001000,0.001000,0.001000,0.001000,0.001000
1005.769231,0.029944,0.001000,0.001000,0.001000,0.001000,0.001000
1005.788462,0.028759,0.001000,0.001000,0.001000,0.001000,0.001000
1005.807692,0.027549,0.001000,0.001000,0.001000,0.001000,0.001000
1005.826923,0.026316,0.001000,0.001000,0.001000,0.001000,0.001000
1005.846154,0.025060,0.001000,0.001000,0.001000,0.001000,0.001000
1005.865385,0.023783,0.001000,0.001000,0.001000,0.001000,0.001000
1005.884615,0.022485,0.001000,0.001000,0.001000,0.001000,0.001000
1005.903846,0.021169,0.001000,0.001000,0.001000,0.001000,0.001000
1005.923077,0.019834,0.001000,0.001000,0.001000,0.001000,0.001000
1005.942308,0.018482,0.001000,0.001000,0.001000,0.001000,0.001000
1005.961538,0.017114,0.001000,0.001000,0.001000,0.001000,0.001000
1005.980769,0.015731,0.001000,0.001000,0.001000,0.001000,0.001000
1006.000000,0.014335,0.001000,0.001000,0.001000,0.001000,0.001000
1006.019231,0.012927,0.001000,0.001000,0.001000,0.001000,0.001000
1006.038462,0.011508,0.001000,0.001000,0.001000,0.001000,0.001000
1006.057692,0.010078,0.001000,0.001000,0.001000,0.001000,0.001000
1006.076923,0.008641,0.001000,0.001000,0.001000,0.001000,0.001000
1006.096154,0.007195,0.001000,0.001000,0.001000,0.001000,0.001000
1006.115385,0.005744,0.001000,0.001000,0.001000,0.001000,0.001000
1006.134615,0.004288,0.001000,0.001000,0.001000,0.001000,0.001000
1006.153846,0.002828,0.001000,0.001000,0.001000,0.001000,0.001000
1006.173077,0.001365,0.001000,0.001000,0.001000,0.001000,0.001000
1006.192308,-0.000098,0.001000,0.001000,0.001000,0.001000,0.001000
1006.211538,-0.001562,0.001000,0.001000,0.001000,0.001000,0.001000
1006.230769,-0.003024,0.001000,0.001000,0.001000,0.001000,0.001000
1006.250000,-0.004484,0.001000,0.001000,0.001000,0.001000,0.001000
1006.269231,-0.005940,0.001000,0.001000,0.001000,0.001000,0.001000
1006.288462,-0.007390,0.001000,0.001000,0.001000,0.001000,0.001000
1006.307692,-0.008835,0.001000,0.001000,0.001000,0.001000,0.001000
1006.326923,-0.010271,0.001000,0.001000,0.001000,0.001000,0.001000
1006.346154,-0.011699,0.001000,0.001000,0.001000,0.001000,0.001000
1006.365385,-0.013117,0.001000,0.001000,0.001000,0.001000,0.001000
1006.384615,-0.014524,0.001000,0.001000,0.001000,0.001000,0.001000
1006.403846,-0.015918,0.001000,0.001000,0.001000,0.001000,0.001000
1006.423077,-0.017299,0.001000,0.001000,0.001000,0.001000,0.001000
1006.442308,-0.018665,0.001000,0.001000,0.001000,0.001000,0.001000
1006.461538,-0.020014,0.001000,0.001000,0.001000,0.001000,0.001000
1006.480769,-0.021347,0.001000,0.001000,0.001000,0.001000,0.001000
1006.500000,-0.022661,0.001000,0.001000,0.001000,0.001000,0.001000
1006.519231,-0.023956,0.001000,0.001000,0.001000,0.001000,0.001000
1006.538462,-0.025231,0.001000,0.001000,0.001000,0.001000,0.001000
1006.557692,-0.026483,0.001000,0.001000,0.001000,0.001000,0.001000
1006.576923,-0.027713,0.001000,0.001000,0.001000,0.001000,0.001000
1006.596154,-0.028920,0.001000,0.001000,0.001000,0.001000,0.001000
1006.615385,-0.030101,0.001000,0.001000,0.001000,0.001000,0.001000
1006.634615,-0.031257,0.001000,0.001000,0.001000,0.001000,0.001000
1006.653846,-0.032386,0.001000,0.001000,0.001000,0.001000,0.001000
1006.673077,-0.033487,0.001000,0.001000,0.001000,0.001000,0.001000
1006.692308,-0.034560,0.001000,0.001000,0.001000,0.001000,0.001000
1006.711538,-0.035602,0.001000,0.001000,0.001000,0.001000,0.001000
1006.730769,-0.036615,0.001000,0.001000,0.001000,0.001000,0.001000
1006.750000,-0.037596,0.001000,0.001000,0.001000,0.001000,0.001000
1006.769231,-0.038545,0.001000,0.001000,0.001000,0.001000,0.001000
1006.788462,-0.039460,0.001000,0.001000,0.001000,0.001000,0.001000
1006.807692,-0.040342,0.001000,0.001000,0.001000,0.001000,0.001000
1006.826923,-0.041190,0.001000,0.001000,0.001000,0.001000,0.001000
1006.846154,-0.042002,0.001000,0.001000,0.001000,0.001000,0.001000
1006.865385,-0.042778,0.001000,0.001000,0.001000,0.001000,0.001000
1006.884615,-0.043517,0.001000,0.001000,0.001000,0.001000,0.001000
1006.903846,-0.044219,0.001000,0.001000,0.001000,0.001000,0.001000
1006.923077,-0.044883,0.001000,0.001000,0.001000,0.001000,0.001000
1006.942308,-0.045509,0.001000,0.001000,0.001000,0.001000,0.001000
1006.961538,-0.046096,0.001000,0.001000,0.001000,0.001000,0.001000
1006.980769,-0.046643,0.001000,0.001000,0.001000,0.001000,0.001000
1007.000000,-0.047150,0.001000,0.001000,0.001000,0.001000,0.001000
1007.019231,-0.047617,0.001000,0.001000,0.001000,0.001000,0.001000
1007.038462,-0.048043,0.001000,0.001000,0.001000,0.001000,0.001000
1007.057692,-0.048428,0.001000,0.001000,0.001000,0.001000,0.001000
1007.076923,-0.048771,0.001000,0.001000,0.001000,0.001000,0.001000
1007.096154,-0.049073,0.001000,0.001000,0.001000,0.001000,0.001000
1007.115385,-0.049332,0.001000,0.001000,0.001000,0.001000,0.001000
1007.134615,-0.049550,0.001000,0.001000,0.001000,0.001000,0.001000
1007.153846,-0.049724,0.001000,0.001000,0.001000,0.001000,0.001000
1007.173077,-0.049857,0.001000,0.001000,0.001000,0.001000,0.001000
1007.192308,-0.049946,0.001000,0.001000,0.001000,0.001000,0.001000
1007.211538,-0.049993,0.001000,0.001000,0.001000,0.001000,0.001000
1007.230769,-0.049996,0.001000,0.001000,0.001000,0.001000,0.001000
1007.250000,-0.049957,0.001000,0.001000,0.001000,0.001000,0.001000
1007.269231,-0.049875,0.001000,0.001000,0.001000,0.001000,0.001000
1007.288462,-0.049751,0.001000,0.001000,0.001000,0.001000,0.001000
1007.307692,-0.049584,0.001000,0.001000,0.001000,0.001000,0.001000
1007.326923,-0.049374,0.001000,0.001000,0.001000,0.001000,0.001000
1007.346154,-0.049122,0.001000,0.001000,0.001000,0.001000,0.001000
1007.365385,-0.048828,0.001000,0.001000,0.001000,0.001000,0.001000
1007.384615,-0.048492,0.001000,0.001000,0.001000,0.001000,0.001000
1007.403846,-0.048114,0.001000,0.001000,0.001000,0.001000,0.001000
1007.423077,-0.047695,0.001000,0.001000,0.001000,0.001000,0.001000
1007.442308,-0.047235,0.001000,0.001000,0.001000,0.001000,0.001000
1007.461538,-0.046735,0.001000,0.001000,0.001000,0.001000,0.001000
1007.480769,-0.046195,0.001000,0.001000,0.001000,0.001000,0.001000
1007.500000,-0.045615,0.001000,0.001000,0.001000,0.001000,0.001000
1007.519231,-0.044996,0.001000,0.001000,0.001000,0.001000,0.001000
1007.538462,-0.044339,0.001000,0.001000,0.001000,0.001000,0.001000
1007.557692,-0.043644,0.001000,0.001000,0.001000,0.001000,0.001000
1007.576923,-0.042911,0.001000,0.001000,0.001000,0.001000,0.001000
1007.596154,-0.042141,0.001000,0.001000,0.001000,0.001000,0.001000
1007.615385,-0.041335,0.001000,0.001000,0.001000,0.001000,0.001000
1007.634615,-0.040494,0.001000,0.001000,0.001000,0.001000,0.001000
1007.653846,-0.039618,0.001000,0.001000,0.001000,0.001000,0.001000
1007.673077,-0.038708,0.001000,0.001000,0.001000,0.001000,0.001000
1007.692308,-0.037765,0.001000,0.001000,0.001000,0.001000,0.001000
1007.711538,-0.036790,0.001000,0.001000,0.001000,0.001000,0.001000
1007.730769,-0.035783,0.001000,0.001000,0.001000,0.001000,0.001000
1007.750000,-0.034746,0.001000,0.001000,0.001000,0.001000,0.001000
1007.769231,-0.033678,0.001000,0.001000,0.001000,0.001000,0.001000
1007.788462,-0.032582,0.001000,0.001000,0.001000,0.001000,0.001000
1007.807692,-0.031458,0.001000,0.001000,0.001000,0.001000,0.001000
1007.826923,-0.030307,0.001000,0.001000,0.001000,0.001000,0.001000
1007.846154,-0.029130,0.001000,0.001000,0.001000,0.001000,0.001000
1007.865385,-0.027928,0.001000,0.001000,0.001000,0.001000,0.001000
1007.884615,-0.026702,0.001000,0.001000,0.001000,0.001000,0.001000
1007.903846,-0.025453,0.001000,0.001000,0.001000,0.001000,0.001000
1007.923077,-0.024182,0.001000,0.001000,0.001000,0.001000,0.001000
1007.942308,-0.022891,0.001000,0.001000,0.001000,0.001000,0.001000
1007.961538,-0.021580,0.001000,0.001000,0.001000,0.001000,0.001000
1007.980769,-0.020251,0.001000,0.001000,0.001000,0.001000,0.001000
1008.000000,-0.018904,0.001000,0.001000,0.001000,0.001000,0.001000
1008.019231,-0.017541,0.001000,0.001000,0.001000,0.001000,0.001000
1008.038462,-0.016163,0.001000,0.001000,0.001000,0.001000,0.001000
1008.057692,-0.014771,0.001000,0.001000,0.001000,0.001000,0.001000
1008.076923,-0.013366,0.001000,0.001000,0.001000,0.001000,0.001000
1008.096154,-0.011950,0.001000,0.001000,0.001000,0.001000,0.001000
1008.115385,-0.010524,0.001000,0.001000,0.001000,0.001000,0.001000
1008.134615,-0.009088,0.001000,0.001000,0.001000,0.001000,0.001000
1008.153846,-0.007645,0.001000,0.001000,0.001000,0.001000,0.001000
1008.173077,-0.006196,0.001000,0.001000,0.001000,0.001000,0.001000
1008.192308,-0.004741,0.001000,0.001000,0.001000,0.001000,0.001000
1008.211538,-0.003282,0.001000,0.001000,0.001000,0.001000,0.001000
1008.230769,-0.001820,0.001000,0.001000,0.001000,0.001000,0.001000
1008.250000,-0.000357,0.001000,0.001000,0.001000,0.001000,0.001000
1008.269231,0.001107,0.001000,0.001000,0.001000,0.001000,0.001000
1008.288462,0.002570,0.001000,0.001000,0.001000,0.001000,0.001000
1008.307692,0.004030,0.001000,0.001000,0.001000,0.001000,0.001000
1008.326923,0.005487,0.001000,0.001000,0.001000,0.001000,0.001000
1008.346154,0.006940,0.001000,0.001000,0.001000,0.001000,0.001000
1008.365385,0.008386,0.001000,0.001000,0.001000,0.001000,0.001000
1008.384615,0.009826,0.001000,0.001000,0.001000,0.001000,0.001000
1008.403846,0.011256,0.001000,0.001000,0.001000,0.001000,0.001000
1008.423077,0.012678,0.001000,0.001000,0.001000,0.001000,0.001000
1008.442308,0.014088,0.001000,0.001000,0.001000,0.001000,0.001000
1008.461538,0.015486,0.001000,0.001000,0.001000,0.001000,0.001000
1008.480769,0.016871,0.001000,0.001000,0.001000,0.001000,0.001000
1008.500000,0.018242,0.001000,0.001000,0.001000,0.001000,0.001000
1008.519231,0.019596,0.001000,0.001000,0.001000,0.001000,0.001000
1008.538462,0.020934,0.001000,0.001000,0.001000,0.001000,0.001000
1008.557692,0.022255,0.001000,0.001000,0.001000,0.001000,0.001000
1008.576923,0.023556,0.001000,0.001000,0.001000,0.001000,0.001000
1008.596154,0.024837,0.001000,0.001000,0.001000,0.001000,0.001000
1008.615385,0.026096,0.001000,0.001000,0.001000,0.001000,0.001000
1008.634615,0.027333,0.001000,0.001000,0.001000,0.001000,0.001000
1008.653846,0.028547,0.001000,0.001000,0.001000,0.001000,0.001000
1008.673077,0.029737,0.001000,0.001000,0.001000,0.001000,0.001000
1008.692308,0.030900,0.001000,0.001000,0.001000,0.001000,0.001000
1008.711538,0.032038,0.001000,0.001000,0.001000,0.001000,0.001000
1008.730769,0.033148,0.001000,0.001000,0.001000,0.001000,0.001000
1008.750000,0.034229,0.001000,0.001000,0.001000,0.001000,0.001000
1008.769231,0.035281,0.001000,0.001000,0.001000,0.001000,0.001000
1008.788462,0.036303,0.001000,0.001000,0.001000,0.001000,0.001000
1008.807692,0.037294,0.001000,0.001000,0.001000,0.001000,0.001000
1008.826923,0.038253,0.001000,0.001000,0.001000,0.001000,0.001000
1008.846154,0.039179,0.001000,0.001000,0.001000,0.001000,0.001000
1008.865385,0.040072,0.001000,0.001000,0.001000,0.001000,0.001000
1008.884615,0.040930,0.001000,0.001000,0.001000,0.001000,0.001000
1008.903846,0.041753,0.001000,0.001000,0.001000,0.001000,0.001000
1008.923077,0.042540,0.001000,0.001000,0.001000,0.001000,0.001000
1008.942308,0.043291,0.001000,0.001000,0.001000,0.001000,0.001000
1008.961538,0.044005,0.001000,0.001000,0.001000,0.001000,0.001000
1008.980769,0.044681,0.001000,0.001000,0.001000,0.001000,0.001000
1009.000000,0.045319,0.001000,0.001000,0.001000,0.001000,0.001000
1009.019231,0.045918,0.001000,0.001000,0.001000,0.001000,0.001000
1009.038462,0.046477,0.001000,0.001000,0.001000,0.001000,0.001000
1009.057692,0.046997,0.001000,0.001000,0.001000,0.001000,0.001000
1009.076923,0.047476,0.001000,0.001000,0.001000,0.001000,0.001000
1009.096154,0.047915,0.001000,0.001000,0.001000,0.001000,0.001000
1009.115385,0.048313,0.001000,0.001000,0.001000,0.001000,0.001000
1009.134615,0.048669,0.001000,0.001000,0.001000,0.001000,0.001000
1009.153846,0.048984,0.001000,0.001000,0.001000,0.001000,0.001000
1009.173077,0.049256,0.001000,0.001000,0.001000,0.001000,0.001000
1009.192308,0.049487,0.001000,0.001000,0.001000,0.001000,0.001000
1009.211538,0.049675,0.001000,0.001000,0.001000,0.001000,0.001000
1009.230769,0.049820,0.001000,0.001000,0.001000,0.001000,0.001000
1009.250000,0.049923,0.001000,0.001000,0.001000,0.001000,0.001000
1009.269231,0.049983,0.001000,0.001000,0.001000,0.001000,0.001000
1009.288462,0.050000,0.001000,0.001000,0.001000,0.001000,0.001000
1009.307692,0.049974,0.001000,0.001000,0.001000,0.001000,0.001000
1009.326923,0.049905,0.001000,0.001000,0.001000,0.001000,0.001000
1009.346154,0.049794,0.001000,0.001000,0.001000,0.001000,0.001000
1009.365385,0.049640,0.001000,0.001000,0.001000,0.001000,0.001000
1009.384615,0.049444,0.001000,0.001000,0.001000,0.001000,0.001000
1009.403846,0.049205,0.001000,0.001000,0.001000,0.001000,0.001000
1009.423077,0.048923,0.001000,0.001000,0.001000,0.001000,0.001000
1009.442308,0.048600,0.001000,0.001000,0.001000,0.001000,0.001000
1009.461538,0.048236,0.001000,0.001000,0.001000,0.001000,0.001000
1009.480769,0.047830,0.001000,0.001000,0.001000,0.001000,0.001000
1009.500000,0.047383,0.001000,0.001000,0.001000,0.001000,0.001000
1009.519231,0.046895,0.001000,0.001000,0.001000,0.001000,0.001000
1009.538462,0.046367,0.001000,0.001000,0.001000,0.001000,0.001000
1009.557692,0.045800,0.001000,0.001000,0.001000,0.001000,0.001000
1009.576923,0.045193,0.001000,0.001000,0.001000,0.001000,0.001000
1009.596154,0.044547,0.001000,0.001000,0.001000,0.001000,0.001000
1009.615385,0.043864,0.001000,0.001000,0.001000,0.001000,0.001000
1009.634615,0.043142,0.001000,0.001000,0.001000,0.001000,0.001000
1009.653846,0.042384,0.001000,0.001000,0.001000,0.001000,0.001000
1009.673077,0.041590,0.001000,0.001000,0.001000,0.001000,0.001000
1009.692308,0.040759,0.001000,0.001000,0.001000,0.001000,0.001000
1009.711538,0.039894,0.001000,0.001000,0.001000,0.001000,0.001000
1009.730769,0.038995,0.001000,0.001000,0.001000,0.001000,0.001000
1009.750000,0.038062,0.001000,0.001000,0.001000,0.001000,0.001000
1009.769231,0.037097,0.001000,0.001000,0.001000,0.001000,0.001000
1009.788462,0.036100,0.001000,0.001000,0.001000,0.001000,0.001000
1009.807692,0.035071,0.001000,0.001000,0.001000,0.001000,0.001000
1009.826923,0.034013,0.001000,0.001000,0.001000,0.001000,0.001000
1009.846154,0.032926,0.001000,0.001000,0.001000,0.001000,0.001000
1009.865385,0.031810,0.001000,0.001000,0.001000,0.001000,0.001000
1009.884615,0.030668,0.001000,0.001000,0.001000,0.001000,0.001000
1009.903846,0.029499,0.001000,0.001000,0.001000,0.001000,0.001000
1009.923077,0.028304,0.001000,0.001000,0.001000,0.001000,0.001000
1009.942308,0.027086,0.001000,0.001000,0.001000,0.001000,0.001000
1009.961538,0.025844,0.001000,0.001000,0.001000,0.001000,0.001000
1009.980769,0.024580,0.001000,0.001000,0.001000,0.001000,0.001000
1010.000000,0.023295,0.001000,0.001000,0.001000,0.001000,0.001000
1010.019231,0.021990,0.001000,0.001000,0.001000,0.001000,0.001000
1010.038462,0.020666,0.001000,0.001000,0.001000,0.001000,0.001000
1010.057692,0.019324,0.001000,0.001000,0.001000,0.001000,0.001000
1010.076923,0.017966,0.001000,0.001000,0.001000,0.001000,0.001000
1010.096154,0.016593,0.001000,0.001000,0.001000,0.001000,0.001000
1010.115385,0.015205,0.001000,0.001000,0.001000,0.001000,0.001000
1010.134615,0.013804,0.001000,0.001000,0.001000,0.001000,0.001000
1010.153846,0.012391,0.001000,0.001000,0.001000,0.001000,0.001000
1010.173077,0.010968,0.001000,0.001000,0.001000,0.001000,0.001000
1010.192308,0.009536,0.001000,0.001000,0.001000,0.001000,0.001000
1010.211538,0.008095,0.001000,0.001000,0.001000,0.001000,0.001000
1010.230769,0.006647,0.001000,0.001000,0.001000,0.001000,0.001000
1010.250000,0.005194,0.001000,0.001000,0.001000,0.001000,0.001000
1010.269231,0.003736,0.001000,0.001000,0.001000,0.001000,0.001000
1010.288462,0.002275,0.001000,0.001000,0.001000,0.001000,0.001000
1010.307692,0.000812,0.001000,0.001000,0.001000,0.001000,0.001000
1010.326923,-0.000652,0.001000,0.001000,0.001000,0.001000,0.001000
1010.346154,-0.002115,0.001000,0.001000,0.001000,0.001000,0.001000
1010.365385,-0.003577,0.001000,0.001000,0.001000,0.001000,0.001000
1010.384615,-0.005035,0.001000,0.001000,0.001000,0.001000,0.001000
1010.403846,-0.006489,0.001000,0.001000,0.001000,0.001000,0.001000
1010.423077,-0.007937,0.001000,0.001000,0.001000,0.001000,0.001000
1010.442308,-0.009379,0.001000,0.001000,0.001000,0.001000,0.001000
1010.461538,-0.010812,0.001000,0.001000,0.001000,0.001000,0.001000
1010.480769,-0.012237,0.001000,0.001000,0.001000,0.001000,0.001000
1010.500000,-0.013651,0.001000,0.001000,0.001000,0.001000,0.001000
1010.519231,-0.015053,0.001000,0.001000,0.001000,0.001000,0.001000
1010.538462,-0.016442,0.001000,0.001000,0.001000,0.001000,0.001000
1010.557692,-0.017817,0.001000,0.001000,0.001000,0.001000,0.001000
1010.576923,-0.019177,0.001000,0.001000,0.001000,0.001000,0.001000
1010.596154,-0.020520,0.001000,0.001000,0.001000,0.001000,0.001000
1010.615385,-0.021846,0.001000,0.001000,0.001000,0.001000,0.001000
1010.634615,-0.023153,0.001000,0.001000,0.001000,0.001000,0.001000
1010.653846,-0.024441,0.001000,0.001000,0.001000,0.001000,0.001000
1010.673077,-0.025707,0.001000,0.001000,0.001000,0.001000,0.001000
1010.692308,-0.026951,0.001000,0.001000,0.001000,0.001000,0.001000
1010.711538,-0.028172,0.001000,0.001000,0.001000,0.001000,0.001000
1010.730769,-0.029369,0.001000,0.001000,0.001000,0.001000,0.001000
1010.750000,-0.030541,0.001000,0.001000,0.001000,0.001000,0.001000
1010.769231,-0.031687,0.001000,0.001000,0.001000,0.001000,0.001000
1010.788462,-0.032806,0.001000,0.001000,0.001000,0.001000,0.001000
1010.807692,-0.033896,0.001000,0.001000,0.001000,0.001000,0.001000
1010.826923,-0.034957,0.001000,0.001000,0.001000,0.001000,0.001000
1010.846154,-0.035989,0.001000,0.001000,0.001000,0.001000,0.001000
1010.865385,-0.036990,0.001000,0.001000,0.001000,0.001000,0.001000
1010.884615,-0.037958,0.001000,0.001000,0.001000,0.001000,0.001000
1010.903846,-0.038895,0.001000,0.001000,0.001000,0.001000,0.001000
1010.923077,-0.039798,0.001000,0.001000,0.001000,0.001000,0.001000
1010.942308,-0.040667,0.001000,0.001000,0.001000,0.001000,0.001000
1010.961538,-0.041501,0.001000,0.001000,0.001000,0.001000,0.001000
1010.980769,-0.042299,0.001000,0.001000,0.001000,0.001000,0.001000
1011.000000,-0.043062,0.001000,0.001000,0.001000,0.001000,0.001000
1011.019231,-0.043787,0.001000,0.001000,0.001000,0.001000,0.001000
1011.038462,-0.044475,0.001000,0.001000,0.001000,0.001000,0.001000
1011.057692,-0.045124,0.001000,0.001000,0.001000,0.001000,0.001000
1011.076923,-0.045736,0.001000,0.001000,0.001000,0.001000,0.001000
1011.096154,-0.046307,0.001000,0.001000,0.001000,0.001000,0.001000
1011.115385,-0.046840,0.001000,0.001000,0.001000,0.001000,0.001000
1011.134615,-0.047332,0.001000,0.001000,0.001000,0.001000,0.001000
1011.153846,-0.047783,0.001000,0.001000,0.001000,0.001000,0.001000
1011.173077,-0.048194,0.001000,0.001000,0.001000,0.001000,0.001000
1011.192308,-0.048563,0.001000,0.001000,0.001000,0.001000,0.001000
1011.211538,-0.048890,0.001000,0.001000,0.001000,0.001000,0.001000
1011.230769,-0.049176,0.001000,0.001000,0.001000,0.001000,0.001000
1011.250000,-0.049420,0.001000,0.001000,0.001000,0.001000,0.001000
1011.269231,-0.049621,0.001000,0.001000,0.001000,0.001000,0.001000
1011.288462,-0.049779,0.001000,0.001000,0.001000,0.001000,0.001000
1011.307692,-0.049895,0.001000,0.001000,0.001000,0.001000,0.001000
1011.326923,-0.049969,0.001000,0.001000,0.001000,0.001000,0.001000
1011.346154,-0.049999,0.001000,0.001000,0.001000,0.001000,0.001000
1011.365385,-0.049987,0.001000,0.001000,0.001000,0.001000,0.001000
1011.384615,-0.049931,0.001000,0.001000,0.001000,0.001000,0.001000
1011.403846,-0.049833,0.001000,0.001000,0.001000,0.001000,0.001000
1011.423077,-0.049693,0.001000,0.001000,0.001000,0.001000,0.001000
1011.442308,-0.049509,0.001000,0.001000,0.001000,0.001000,0.001000
1011.461538,-0.049283,0.001000,0.001000,0.001000,0.001000,0.001000
1011.480769,-0.049015,0.001000,0.001000,0.001000,0.001000,0.001000
1011.500000,-0.048705,0.001000,0.001000,0.001000,0.001000,0.001000
1011.519231,-0.048354,0.001000,0.001000,0.001000,0.001000,0.001000
1011.538462,-0.047960,0.001000,0.001000,0.001000,0.001000,0.001000
1011.557692,-0.047526,0.001000,0.001000,0.001000,0.001000,0.001000
1011.576923,-0.047051,0.001000,0.001000,0.001000,0.001000,0.001000
1011.596154,-0.046536,0.001000,0.001000,0.001000,0.001000,0.001000
1011.615385,-0.045980,0.001000,0.001000,0.001000,0.001000,0.001000
1011.634615,-0.045386,0.001000,0.001000,0.001000,0.001000,0.001000
1011.653846,-0.044752,0.001000,0.001000,0.001000,0.001000,0.001000
1011.673077,-0.044080,0.001000,0.001000,0.001000,0.001000,0.001000
1011.692308,-0.043371,0.001000,0.001000,0.001000,0.001000,0.001000
1011.711538,-0.042624,0.001000,0.001000,0.001000,0.001000,0.001000
1011.730769,-0.041841,0.001000,0.001000,0.001000,0.001000,0.001000
1011.750000,-0.041021,0.001000,0.001000,0.001000,0.001000,0.001000
1011.769231,-0.040167,0.001000,0.001000,0.001000,0.001000,0.001000
1011.788462,-0.039278,0.001000,0.001000,0.001000,0.001000,0.001000
1011.807692,-0.038356,0.001000,0.001000,0.001000,0.001000,0.001000
1011.826923,-0.037400,0.001000,0.001000,0.001000,0.001000,0.001000
1011.846154,-0.036413,0.001000,0.001000,0.001000,0.001000,0.001000
1011.865385,-0.035394,0.001000,0.001000,0.001000,0.001000,0.001000
1011.884615,-0.034345,0.001000,0.001000,0.001000,0.001000,0.001000
1011.903846,-0.033267,0.001000,0.001000,0.001000,0.001000,0.001000
1011.923077,-0.032160,0.001000,0.001000,0.001000,0.001000,0.001000
1011.942308,-0.031026,0.001000,0.001000,0.001000,0.001000,0.001000
1011.961538,-0.029865,0.001000,0.001000,0.001000,0.001000,0.001000
1011.980769,-0.028678,0.001000,0.001000,0.001000,0.001000,0.001000
1012.000000,-0.027467,0.001000,0.001000,0.001000,0.001000,0.001000
1012.019231,-0.026232,0.001000,0.001000,0.001000,0.001000,0.001000
1012.038462,-0.024975,0.001000,0.001000,0.001000,0.001000,0.001000
1012.057692,-0.023696,0.001000,0.001000,0.001000,0.001000,0.001000
1012.076923,-0.022397,0.001000,0.001000,0.001000,0.001000,0.001000
1012.096154,-0.021079,0.001000,0.001000,0.001000,0.001000,0.001000
1012.115385,-0.019743,0.001000,0.001000,0.001000,0.001000,0.001000
1012.134615,-0.018390,0.001000,0.001000,0.001000,0.001000,0.001000
1012.153846,-0.017021,0.001000,0.001000,0.001000,0.001000,0.001000
1012.173077,-0.015638,0.001000,0.001000,0.001000,0.001000,0.001000
1012.192308,-0.014241,0.001000,0.001000,0.001000,0.001000,0.001000
1012.211538,-0.012832,0.001000,0.001000,0.001000,0.001000,0.001000
1012.230769,-0.011412,0.001000,0.001000,0.001000,0.001000,0.001000
1012.250000,-0.009982,0.001000,0.001000,0.001000,0.001000,0.001000
1012.269231,-0.008544,0.001000,0.001000,0.001000,0.001000,0.001000
1012.288462,-0.007098,0.001000,0.001000,0.001000,0.001000,0.001000
1012.307692,-0.005646,0.001000,0.001000,0.001000,0.001000,0.001000
1012.326923,-0.004189,0.001000,0.001000,0.001000,0.001000,0.001000
1012.346154,-0.002729,0.001000,0.001000,0.001000,0.001000,0.001000
1012.365385,-0.001267,0.001000,0.001000,0.001000,0.001000,0.001000
1012.384615,0.000197,0.001000,0.001000,0.001000,0.001000,0.001000
1012.403846,0.001660,0.001000,0.001000,0.001000,0.001000,0.001000
1012.423077,0.003123,0.001000,0.001000,0.001000,0.001000,0.001000
1012.442308,0.004582,0.001000,0.001000,0.001000,0.001000,0.001000
1012.461538,0.006037,0.001000,0.001000,0.001000,0.001000,0.001000
1012.480769,0.007488,0.001000,0.001000,0.001000,0.001000,0.001000
1012.500000,0.008931,0.001000,0.001000,0.001000,0.001000,0.001000
1012.519231,0.010368,0.001000,0.001000,0.001000,0.001000,0.001000
1012.538462,0.011795,0.001000,0.001000,0.001000,0.001000,0.001000
1012.557692,0.013212,0.001000,0.001000,0.001000,0.001000,0.001000
1012.576923,0.014618,0.001000,0.001000,0.001000,0.001000,0.001000
1012.596154,0.016011,0.001000,0.001000,0.001000,0.001000,0.001000
1012.615385,0.017391,0.001000,0.001000,0.001000,0.001000,0.001000
1012.634615,0.018756,0.001000,0.001000,0.001000,0.001000,0.001000
1012.653846,0.020105,0.001000,0.001000,0.001000,0.001000,0.001000
1012.673077,0.021436,0.001000,0.001000,0.001000,0.001000,0.001000
1012.692308,0.022749,0.001000,0.001000,0.001000,0.001000,0.001000
1012.711538,0.024043,0.001000,0.001000,0.001000,0.001000,0.001000
1012.730769,0.025316,0.001000,0.001000,0.001000,0.001000,0.001000
1012.750000,0.026567,0.001000,0.001000,0.001000,0.001000,0.001000
1012.769231,0.027795,0.001000,0.001000,0.001000,0.001000,0.001000
1012.788462,0.029000,0.001000,0.001000,0.001000,0.001000,0.001000
1012.807692,0.030180,0.001000,0.001000,0.001000,0.001000,0.001000
1012.826923,0.031334,0.001000,0.001000,0.001000,0.001000,0.001000
1012.846154,0.032461,0.001000,0.001000,0.001000,0.001000,0.001000
1012.865385,0.033560,0.001000,0.001000,0.001000,0.001000,0.001000
1012.884615,0.034631,0.001000,0.001000,0.001000,0.001000,0.001000
1012.903846,0.035672,0.001000,0.001000,0.001000,0.001000,0.001000
1012.923077,0.036682,0.001000,0.001000,0.001000,0.001000,0.001000
1012.942308,0.037661,0.001000,0.001000,0.001000,0.001000,0.001000
1012.961538,0.038607,0.001000,0.001000,0.001000,0.001000,0.001000
1012.980769,0.039521,0.001000,0.001000,0.001000,0.001000,0.001000
1013.000000,0.040400,0.001000,0.001000,0.001000,0.001000,0.001000
1013.019231,0.041245,0.001000,0.001000,0.001000,0.001000,0.001000
1013.038462,0.042055,0.001000,0.001000,0.001000,0.001000,0.001000
1013.057692,0.042829,0.001000,0.001000,0.001000,0.001000,0.001000
1013.076923,0.043565,0.001000,0.001000,0.001000,0.001000,0.001000
1013.096154,0.044265,0.001000,0.001000,0.001000,0.001000,0.001000
1013.115385,0.044927,0.001000,0.001000,0.001000,0.001000,0.001000
1013.134615,0.045550,0.001000,0.001000,0.001000,0.001000,0.001000
1013.153846,0.046134,0.001000,0.001000,0.001000,0.001000,0.001000
1013.173077,0.046678,0.001000,0.001000,0.001000,0.001000,0.001000
1013.192308,0.047183,0.001000,0.001000,0.001000,0.001000,0.001000
1013.211538,0.047647,0.001000,0.001000,0.001000,0.001000,0.001000
1013.230769,0.048070,0.001000,0.001000,0.001000,0.001000,0.001000
1013.250000,0.048452,0.001000,0.001000,0.001000,0.001000,0.001000
1013.269231,0.048793,0.001000,0.001000,0.001000,0.001000,0.001000
1013.288462,0.049092,0.001000,0.001000,0.001000,0.001000,0.001000
1013.307692,0.049348,0.001000,0.001000,0.001000,0.001000,0.001000
1013.326923,0.049563,0.001000,0.001000,0.001000,0.001000,0.001000
1013.346154,0.049735,0.001000,0.001000,0.001000,0.001000,0.001000
1013.365385,0.049864,0.001000,0.001000,0.001000,0.001000,0.001000
1013.384615,0.049950,0.001000,0.001000,0.001000,0.001000,0.001000
1013.403846,0.049994,0.001000,0.001000,0.001000,0.001000,0.001000
1013.423077,0.049995,0.001000,0.001000,0.001000,0.001000,0.001000
1013.442308,0.049953,0.001000,0.001000,0.001000,0.001000,0.001000
1013.461538,0.049868,0.001000,0.001000,0.001000,0.001000,0.001000
1013.480769,0.049741,0.001000,0.001000,0.001000,0.001000,0.001000
1013.500000,0.049571,0.001000,0.001000,0.001000,0.001000,0.001000
1013.519231,0.049358,0.001000,0.001000,0.001000,0.001000,0.001000
1013.538462,0.049103,0.001000,0.001000,0.001000,0.001000,0.001000
1013.557692,0.048806,0.001000,0.001000,0.001000,0.001000,0.001000
1013.576923,0.048467,0.001000,0.001000,0.001000,0.001000,0.001000
1013.596154,0.048087,0.001000,0.001000,0.001000,0.001000,0.001000
1013.615385,0.047666,0.001000,0.001000,0.001000,0.001000,0.001000
1013.634615,0.047203,0.001000,0.001000,0.001000,0.001000,0.001000
1013.653846,0.046700,0.001000,0.001000,0.001000,0.001000,0.001000
1013.673077,0.046157,0.001000,0.001000,0.001000,0.001000,0.001000
1013.692308,0.045575,0.001000,0.001000,0.001000,0.001000,0.001000
1013.711538,0.044953,0.001000,0.001000,0.001000,0.001000,0.001000
1013.730769,0.044293,0.001000,0.001000,0.001000,0.001000,0.001000
1013.750000,0.043595,0.001000,0.001000,0.001000,0.001000,0.001000
1013.769231,0.042860,0.001000,0.001000,0.001000,0.001000,0.001000
1013.788462,0.042088,0.001000,0.001000,0.001000,0.001000,0.001000
1013.807692,0.041280,0.001000,0.001000,0.001000,0.001000,0.001000
1013.826923,0.040436,0.001000,0.001000,0.001000,0.001000,0.001000
1013.846154,0.039558,0.001000,0.001000,0.001000,0.001000,0.001000
1013.865385,0.038646,0.001000,0.001000,0.001000,0.001000,0.001000
1013.884615,0.037701,0.001000,0.001000,0.001000,0.001000,0.001000
1013.903846,0.036723,0.001000,0.001000,0.001000,0.001000,0.001000
1013.923077,0.035714,0.001000,0.001000,0.001000,0.001000,0.001000
1013.942308,0.034675,0.001000,0.001000,0.001000,0.001000,0.001000
1013.961538,0.033605,0.001000,0.001000,0.001000,0.001000,0.001000
1013.980769,0.032507,0.001000,0.001000,0.001000,0.001000,0.001000
1014.000000,0.031381,0.001000,0.001000,0.001000,0.001000,0.001000
1014.019231,0.030228,0.001000,0.001000,0.001000,0.001000,0.001000
1014.038462,0.029050,0.001000,0.001000,0.001000,0.001000,0.001000
1014.057692,0.027846,0.001000,0.001000,0.001000,0.001000,0.001000
1014.076923,0.026619,0.001000,0.001000,0.001000,0.001000,0.001000
1014.096154,0.025368,0.001000,0.001000,0.001000,0.001000,0.001000
1014.115385,0.024096,0.001000,0.001000,0.001000,0.001000,0.001000
1014.134615,0.022803,0.001000,0.001000,0.001000,0.001000,0.001000
1014.153846,0.021491,0.001000,0.001000,0.001000,0.001000,0.001000
1014.173077,0.020160,0.001000,0.001000,0.001000,0.001000,0.001000
1014.192308,0.018812,0.001000,0.001000,0.001000,0.001000,0.001000
1014.211538,0.017448,0.001000,0.001000,0.001000,0.001000,0.001000
1014.230769,0.016069,0.001000,0.001000,0.001000,0.001000,0.001000
1014.250000,0.014677,0.001000,0.001000,0.001000,0.001000,0.001000
1014.269231,0.013271,0.001000,0.001000,0.001000,0.001000,0.001000
1014.288462,0.011854,0.001000,0.001000,0.001000,0.001000,0.001000
1014.307692,0.010427,0.001000,0.001000,0.001000,0.001000,0.001000
1014.326923,0.008992,0.001000,0.001000,0.001000,0.001000,0.001000
1014.346154,0.007548,0.001000,0.001000,0.001000,0.001000,0.001000
1014.365385,0.006098,0.001000,0.001000,0.001000,0.001000,0.001000
1014.384615,0.004643,0.001000,0.001000,0.001000,0.001000,0.001000
1014.403846,0.003184,0.001000,0.001000,0.001000,0.001000,0.001000
1014.423077,0.001722,0.001000,0.001000,0.001000,0.001000,0.001000
1014.442308,0.000258,0.001000,0.001000,0.001000,0.001000,0.001000
1014.461538,-0.001206,0.001000,0.001000,0.001000,0.001000,0.001000
1014.480769,-0.002668,0.001000,0.001000,0.001000,0.001000,0.001000
1014.500000,-0.004129,0.001000,0.001000,0.001000,0.001000,0.001000
1014.519231,-0.005585,0.001000,0.001000,0.001000,0.001000,0.001000
1014.538462,-0.007037,0.001000,0.001000,0.001000,0.001000,0.001000
1014.557692,-0.008483,0.001000,0.001000,0.001000,0.001000,0.001000
1014.576923,-0.009922,0.001000,0.001000,0.001000,0.001000,0.001000
1014.596154,-0.011352,0.001000,0.001000,0.001000,0.001000,0.001000
1014.615385,-0.012773,0.001000,0.001000,0.001000,0.001000,0.001000
1014.634615,-0.014182,0.001000,0.001000,0.001000,0.001000,0.001000
1014.653846,-0.015580,0.001000,0.001000,0.001000,0.001000,0.001000
1014.673077,-0.016964,0.001000,0.001000,0.001000,0.001000,0.001000
1014.692308,-0.018333,0.001000,0.001000,0.001000,0.001000,0.001000
1014.711538,-0.019687,0.001000,0.001000,0.001000,0.001000,0.001000
1014.730769,-0.021024,0.001000,0.001000,0.001000,0.001000,0.001000
1014.750000,-0.022343,0.001000,0.001000,0.001000,0.001000,0.001000
1014.769231,-0.023643,0.001000,0.001000,0.001000,0.001000,0.001000
1014.788462,-0.024922,0.001000,0.001000,0.001000,0.001000,0.001000
1014.807692,-0.026180,0.001000,0.001000,0.001000,0.001000,0.001000
1014.826923,-0.027416,0.001000,0.001000,0.001000,0.001000,0.001000
1014.846154,-0.028628,0.001000,0.001000,0.001000,0.001000,0.001000
1014.865385,-0.029816,0.001000,0.001000,0.001000,0.001000,0.001000
1014.884615,-0.030978,0.001000,0.001000,0.001000,0.001000,0.001000
1014.903846,-0.032113,0.001000,0.001000,0.001000,0.001000,0.001000
1014.923077,-0.033221,0.001000,0.001000,0.001000,0.001000,0.001000
1014.942308,-0.034301,0.001000,0.001000,0.001000,0.001000,0.001000
1014.961538,-0.035351,0.001000,0.001000,0.001000,0.001000,0.001000
1014.980769,-0.036371,0.001000,0.001000,0.001000,0.001000,0.001000
1015.000000,-0.037360,0.001000,0.001000,0.001000,0.001000,0.001000
1015.019231,-0.038316,0.001000,0.001000,0.001000,0.001000,0.001000
1015.038462,-0.039240,0.001000,0.001000,0.001000,0.001000,0.001000
1015.057692,-0.040130,0.001000,0.001000,0.001000,0.001000,0.001000
1015.076923,-0.040986,0.001000,0.001000,0.001000,0.001000,0.001000
1015.096154,-0.041807,0.001000,0.001000,0.001000,0.001000,0.001000
1015.115385,-0.042592,0.001000,0.001000,0.001000,0.001000,0.001000
1015.134615,-0.043340,0.001000,0.001000,0.001000,0.001000,0.001000
1015.153846,-0.044052,0.001000,0.001000,0.001000,0.001000,0.001000
1015.173077,-0.044725,0.001000,0.001000,0.001000,0.001000,0.001000
1015.192308,-0.045360,0.001000,0.001000,0.001000,0.001000,0.001000
1015.211538,-0.045956,0.001000,0.001000,0.001000,0.001000,0.001000
1015.230769,-0.046513,0.001000,0.001000,0.001000,0.001000,0.001000
1015.250000,-0.047030,0.001000,0.001000,0.001000,0.001000,0.001000
1015.269231,-0.047507,0.001000,0.001000,0.001000,0.001000,0.001000
1015.288462,-0.047943,0.001000,0.001000,0.001000,0.001000,0.001000
1015.307692,-0.048338,0.001000,0.001000,0.001000,0.001000,0.001000
1015.326923,-0.048692,0.001000,0.001000,0.001000,0.001000,0.001000
1015.346154,-0.049003,0.001000,0.001000,0.001000,0.001000,0.001000
1015.365385,-0.049273,0.001000,0.001000,0.001000,0.001000,0.001000
1015.384615,-0.049501,0.001000,0.001000,0.001000,0.001000,0.001000
1015.403846,-0.049686,0.001000,0.001000,0.001000,0.001000,0.001000
1015.423077,-0.049828,0.001000,0.001000,0.001000,0.001000,0.001000
1015.442308,-0.049928,0.001000,0.001000,0.001000,0.001000,0.001000
1015.461538,-0.049985,0.001000,0.001000,0.001000,0.001000,0.001000
1015.480769,-0.049999,0.001000,0.001000,0.001000,0.001000,0.001000
1015.500000,-0.049971,0.001000,0.001000,0.001000,0.001000,0.001000
1015.519231,-0.049899,0.001000,0.001000,0.001000,0.001000,0.001000
1015.538462,-0.049785,0.001000,0.001000,0.001000,0.001000,0.001000
1015.557692,-0.049628,0.001000,0.001000,0.001000,0.001000,0.001000
1015.576923,-0.049429,0.001000,0.001000,0.001000,0.001000,0.001000
1015.596154,-0.049187,0.001000,0.001000,0.001000,0.001000,0.001000
1015.615385,-0.048903,0.001000,0.001000,0.001000,0.001000,0.001000
1015.634615,-0.048577,0.001000,0.001000,0.001000,0.001000,0.001000
1015.653846,-0.048210,0.001000,0.001000,0.001000,0.001000,0.001000
1015.673077,-0.047801,0.001000,0.001000,0.001000,0.001000,0.001000
1015.692308,-0.047351,0.001000,0.001000,0.001000,0.001000,0.001000
1015.711538,-0.046861,0.001000,0.001000,0.001000,0.001000,0.001000
1015.730769,-0.046330,0.001000,0.001000,0.001000,0.001000,0.001000
1015.750000,-0.045760,0.001000,0.001000,0.001000,0.001000,0.001000
1015.769231,-0.045151,0.001000,0.001000,0.001000,0.001000,0.001000
1015.788462,-0.044503,0.001000,0.001000,0.001000,0.001000,0.001000
1015.807692,-0.043816,0.001000,0.001000,0.001000,0.001000,0.001000
1015.826923,-0.043093,0.001000,0.001000,0.001000,0.001000,0.001000
1015.846154,-0.042332,0.001000,0.001000,0.001000,0.001000,0.001000
1015.865385,-0.041535,0.001000,0.001000,0.001000,0.001000,0.001000
1015.884615,-0.040702,0.001000,0.001000,0.001000,0.001000,0.001000
1015.903846,-0.039835,0.001000,0.001000,0.001000,0.001000,0.001000
1015.923077,-0.038933,0.001000,0.001000,0.001000,0.001000,0.001000
1015.942308,-0.037998,0.001000,0.001000,0.001000,0.001000,0.001000
1015.961538,-0.037031,0.001000,0.001000,0.001000,0.001000,0.001000
1015.980769,-0.036031,0.001000,0.001000,0.001000,0.001000,0.001000
1016.000000,-0.035001,0.001000,0.001000,0.001000,0.001000,0.001000
1016.019231,-0.033941,0.001000,0.001000,0.001000,0.001000,0.001000
1016.038462,-0.032852,0.001000,0.001000,0.001000,0.001000,0.001000
1016.057692,-0.031734,0.001000,0.001000,0.001000,0.001000,0.001000
1016.076923,-0.030590,0.001000,0.001000,0.001000,0.001000,0.001000
1016.096154,-0.029419,0.001000,0.001000,0.001000,0.001000,0.001000
1016.115385,-0.028223,0.001000,0.001000,0.001000,0.001000,0.001000
1016.134615,-0.027003,0.001000,0.001000,0.001000,0.001000,0.001000
1016.153846,-0.025759,0.001000,0.001000,0.001000,0.001000,0.001000
1016.173077,-0.024494,0.001000,0.001000,0.001000,0.001000,0.001000
1016.192308,-0.023207,0.001000,0.001000,0.001000,0.001000,0.001000
1016.211538,-0.021901,0.001000,0.001000,0.001000,0.001000,0.001000
1016.230769,-0.020576,0.001000,0.001000,0.001000,0.001000,0.001000
1016.250000,-0.019233,0.001000,0.001000,0.001000,0.001000,0.001000
1016.269231,-0.017874,0.001000,0.001000,0.001000,0.001000,0.001000
1016.288462,-0.016500,0.001000,0.001000,0.001000,0.001000,0.001000
1016.307692,-0.015111,0.001000,0.001000,0.001000,0.001000,0.001000
1016.326923,-0.013709,0.001000,0.001000,0.001000,0.001000,0.001000
1016.346154,-0.012296,0.001000,0.001000,0.001000,0.001000,0.001000
1016.365385,-0.010872,0.001000,0.001000,0.001000,0.001000,0.001000
1016.384615,-0.009439,0.001000,0.001000,0.001000,0.001000,0.001000
1016.403846,-0.007998,0.001000,0.001000,0.001000,0.001000,0.001000
1016.423077,-0.006549,0.001000,0.001000,0.001000,0.001000,0.001000
1016.442308,-0.005096,0.001000,0.001000,0.001000,0.001000,0.001000
1016.461538,-0.003638,0.001000,0.001000,0.001000,0.001000,0.001000
1016.480769,-0.002176,0.001000,0.001000,0.001000,0.001000,0.001000
1016.500000,-0.000713,0.001000,0.001000,0.001000,0.001000,0.001000
1016.519231,0.000751,0.001000,0.001000,0.001000,0.001000,0.001000
1016.538462,0.002214,0.001000,0.001000,0.001000,0.001000,0.001000
1016.557692,0.003675,0.001000,0.001000,0.001000,0.001000,0.001000
1016.576923,0.005133,0.001000,0.001000,0.001000,0.001000,0.001000
1016.596154,0.006587,0.001000,0.001000,0.001000,0.001000,0.001000
1016.615385,0.008035,0.001000,0.001000,0.001000,0.001000,0.001000
1016.634615,0.009476,0.001000,0.001000,0.001000,0.001000,0.001000
1016.653846,0.010909,0.001000,0.001000,0.001000,0.001000,0.001000
1016.673077,0.012332,0.001000,0.001000,0.001000,0.001000,0.001000
1016.692308,0.013745,0.001000,0.001000,0.001000,0.001000,0.001000
1016.711538,0.015147,0.001000,0.001000,0.001000,0.001000,0.001000
1016.730769,0.016535,0.001000,0.001000,0.001000,0.001000,0.001000
1016.750000,0.017909,0.001000,0.001000,0.001000,0.001000,0.001000
1016.769231,0.019268,0.001000,0.001000,0.001000,0.001000,0.001000
1016.788462,0.020610,0.001000,0.001000,0.001000,0.001000,0.001000
1016.807692,0.021935,0.001000,0.001000,0.001000,0.001000,0.001000
1016.826923,0.023241,0.001000,0.001000,0.001000,0.001000,0.001000
1016.846154,0.024526,0.001000,0.001000,0.001000,0.001000,0.001000
1016.865385,0.025791,0.001000,0.001000,0.001000,0.001000,0.001000
1016.884615,0.027034,0.001000,0.001000,0.001000,0.001000,0.001000
1016.903846,0.028254,0.001000,0.001000,0.001000,0.001000,0.001000
1016.923077,0.029449,0.001000,0.001000,0.001000,0.001000,0.001000
1016.942308,0.030619,0.001000,0.001000,0.001000,0.001000,0.001000
1016.961538,0.031763,0.001000,0.001000,0.001000,0.001000,0.001000
1016.980769,0.032880,0.001000,0.001000,0.001000,0.001000,0.001000
1017.000000,0.033968,0.001000,0.001000,0.001000,0.001000,0.001000
1017.019231,0.035028,0.001000,0.001000,0.001000,0.001000,0.001000
1017.038462,0.036057,0.001000,0.001000,0.001000,0.001000,0.001000
1017.057692,0.037056,0.001000,0.001000,0.001000,0.001000,0.001000
1017.076923,0.038022,0.001000,0.001000,0.001000,0.001000,0.001000
1017.096154,0.038957,0.001000,0.001000,0.001000,0.001000,0.001000
1017.115385,0.039857,0.001000,0.001000,0.001000,0.001000,0.001000
1017.134615,0.040724,0.001000,0.001000,0.001000,0.001000,0.001000
1017.153846,0.041556,0.001000,0.001000,0.001000,0.001000,0.001000
1017.173077,0.042352,0.001000,0.001000,0.001000,0.001000,0.001000
1017.192308,0.043112,0.001000,0.001000,0.001000,0.001000,0.001000
1017.211538,0.043834,0.001000,0.001000,0.001000,0.001000,0.001000
1017.230769,0.044520,0.001000,0.001000,0.001000,0.001000,0.001000
1017.250000,0.045167,0.001000,0.001000,0.001000,0.001000,0.001000
1017.269231,0.045775,0.001000,0.001000,0.001000,0.001000,0.001000
1017.288462,0.046344,0.001000,0.001000,0.001000,0.001000,0.001000
1017.307692,0.046874,0.001000,0.001000,0.001000,0.001000,0.001000
1017.326923,0.047363,0.001000,0.001000,0.001000,0.001000,0.001000
1017.346154,0.047812,0.001000,0.001000,0.001000,0.001000,0.001000
1017.365385,0.048220,0.001000,0.001000,0.001000,0.001000,0.001000
1017.384615,0.048586,0.001000,0.001000,0.001000,0.001000,0.001000
1017.403846,0.048911,0.001000,0.001000,0.001000,0.001000,0.001000
1017.423077,0.049194,0.001000,0.001000,0.001000,0.001000,0.001000
1017.442308,0.049434,0.001000,0.001000,0.001000,0.001000,0.001000
1017.461538,0.049633,0.001000,0.001000,0.001000,0.001000,0.001000
1017.480769,0.049789,0.001000,0.001000,0.001000,0.001000,0.001000
1017.500000,0.049902,0.001000,0.001000,0.001000,0.001000,0.001000
1017.519231,0.049972,0.001000,0.001000,0.001000,0.001000,0.001000
1017.538462,0.050000,0.001000,0.001000,0.001000,0.001000,0.001000
1017.557692,0.049984,0.001000,0.001000,0.001000,0.001000,0.001000
1017.576923,0.049926,0.001000,0.001000,0.001000,0.001000,0.001000
1017.596154,0.049825,0.001000,0.001000,0.001000,0.001000,0.001000
1017.615385,0.049682,0.001000,0.001000,0.001000,0.001000,0.001000
1017.634615,0.049495,0.001000,0.001000,0.001000,0.001000,0.001000
1017.653846,0.049267,0.001000,0.001000,0.001000,0.001000,0.001000
1017.673077,0.048996,0.001000,0.001000,0.001000,0.001000,0.001000
1017.692308,0.048683,0.001000,0.001000,0.001000,0.001000,0.001000
1017.711538,0.048328,0.001000,0.001000,0.001000,0.001000,0.001000
1017.730769,0.047932,0.001000,0.001000,0.001000,0.001000,0.001000
1017.750000,0.047495,0.001000,0.001000,0.001000,0.001000,0.001000
1017.769231,0.047018,0.001000,0.001000,0.001000,0.001000,0.001000
1017.788462,0.046500,0.001000,0.001000,0.001000,0.001000,0.001000
1017.807692,0.045942,0.001000,0.001000,0.001000,0.001000,0.001000
1017.826923,0.045344,0.001000,0.001000,0.001000,0.001000,0.001000
1017.846154,0.044708,0.001000,0.001000,0.001000,0.001000,0.001000
1017.865385,0.044034,0.001000,0.001000,0.001000,0.001000,0.001000
1017.884615,0.043322,0.001000,0.001000,0.001000,0.001000,0.001000
1017.903846,0.042572,0.001000,0.001000,0.001000,0.001000,0.001000
1017.923077,0.041787,0.001000,0.001000,0.001000,0.001000,0.001000
1017.942308,0.040965,0.001000,0.001000,0.001000,0.001000,0.001000
1017.961538,0.040108,0.001000,0.001000,0.001000,0.001000,0.001000
1017.980769,0.039217,0.001000,0.001000,0.001000,0.001000,0.001000
1018.000000,0.038292,0.001000,0.001000,0.001000,0.001000,0.001000
1018.019231,0.037335,0.001000,0.001000,0.001000,0.001000,0.001000
1018.038462,0.036345,0.001000,0.001000,0.001000,0.001000,0.001000
1018.057692,0.035325,0.001000,0.001000,0.001000,0.001000,0.001000
1018.076923,0.034274,0.001000,0.001000,0.001000,0.001000,0.001000
1018.096154,0.033193,0.001000,0.001000,0.001000,0.001000,0.001000
1018.115385,0.032085,0.001000,0.001000,0.001000,0.001000,0.001000
1018.134615,0.030948,0.001000,0.001000,0.001000,0.001000,0.001000
1018.153846,0.029786,0.001000,0.001000,0.001000,0.001000,0.001000
1018.173077,0.028597,0.001000,0.001000,0.001000,0.001000,0.001000
1018.192308,0.027385,0.001000,0.001000,0.001000,0.001000,0.001000
1018.211538,0.026148,0.001000,0.001000,0.001000,0.001000,0.001000
1018.230769,0.024890,0.001000,0.001000,0.001000,0.001000,0.001000
1018.250000,0.023610,0.001000,0.001000,0.001000,0.001000,0.001000
1018.269231,0.022309,0.001000,0.001000,0.001000,0.001000,0.001000
1018.288462,0.020990,0.001000,0.001000,0.001000,0.001000,0.001000
1018.307692,0.019653,0.001000,0.001000,0.001000,0.001000,0.001000
1018.326923,0.018298,0.001000,0.001000,0.001000,0.001000,0.001000
1018.346154,0.016929,0.001000,0.001000,0.001000,0.001000,0.001000
1018.365385,0.015544,0.001000,0.001000,0.001000,0.001000,0.001000
1018.384615,0.014146,0.001000,0.001000,0.001000,0.001000,0.001000
1018.403846,0.012737,0.001000,0.001000,0.001000,0.001000,0.001000
1018.423077,0.011316,0.001000,0.001000,0.001000,0.001000,0.001000
1018.442308,0.009885,0.001000,0.001000,0.001000,0.001000,0.001000
1018.461538,0.008446,0.001000,0.001000,0.001000,0.001000,0.001000
1018.480769,0.007000,0.001000,0.001000,0.001000,0.001000,0.001000
1018.500000,0.005548,0.001000,0.001000,0.001000,0.001000,0.001000
1018.519231,0.004091,0.001000,0.001000,0.001000,0.001000,0.001000
1018.538462,0.002631,0.001000,0.001000,0.001000,0.001000,0.001000
1018.557692,0.001168,0.001000,0.001000,0.001000,0.001000,0.001000
1018.576923,-0.000295,0.001000,0.001000,0.001000,0.001000,0.001000
1018.596154,-0.001759,0.001000,0.001000,0.001000,0.001000,0.001000
1018.615385,-0.003221,0.001000,0.001000,0.001000,0.001000,0.001000
1018.634615,-0.004680,0.001000,0.001000,0.001000,0.001000,0.001000
1018.653846,-0.006135,0.001000,0.001000,0.001000,0.001000,0.001000
1018.673077,-0.007585,0.001000,0.001000,0.001000,0.001000,0.001000
1018.692308,-0.009028,0.001000,0.001000,0.001000,0.001000,0.001000
1018.711538,-0.010464,0.001000,0.001000,0.001000,0.001000,0.001000
1018.730769,-0.011891,0.001000,0.001000,0.001000,0.001000,0.001000
1018.750000,-0.013307,0.001000,0.001000,0.001000,0.001000,0.001000
1018.769231,-0.014712,0.001000,0.001000,0.001000,0.001000,0.001000
1018.788462,-0.016105,0.001000,0.001000,0.001000,0.001000,0.001000
1018.807692,-0.017483,0.001000,0.001000,0.001000,0.001000,0.001000
1018.826923,-0.018847,0.001000,0.001000,0.001000,0.001000,0.001000
1018.846154,-0.020195,0.001000,0.001000,0.001000,0.001000,0.001000
1018.865385,-0.021525,0.001000,0.001000,0.001000,0.001000,0.001000
1018.884615,-0.022837,0.001000,0.001000,0.001000,0.001000,0.001000
1018.903846,-0.024129,0.001000,0.001000,0.001000,0.001000,0.001000
1018.923077,-0.025400,0.001000,0.001000,0.001000,0.001000,0.001000
1018.942308,-0.026650,0.001000,0.001000,0.001000,0.001000,0.001000
1018.961538,-0.027877,0.001000,0.001000,0.001000,0.001000,0.001000
1018.980769,-0.029080,0.001000,0.001000,0.001000,0.001000,0.001000
1019.000000,-0.030258,0.001000,0.001000,0.001000,0.001000,0.001000
1019.019231,-0.031410,0.001000,0.001000,0.001000,0.001000,0.001000
1019.038462,-0.032536,0.001000,0.001000,0.001000,0.001000,0.001000
1019.057692,-0.033633,0.001000,0.001000,0.001000,0.001000,0.001000
1019.076923,-0.034702,0.001000,0.001000,0.001000,0.001000,0.001000
1019.096154,-0.035740,0.001000,0.001000,0.001000,0.001000,0.001000
1019.115385,-0.036749,0.001000,0.001000,0.001000,0.001000,0.001000
1019.134615,-0.037725,0.001000,0.001000,0.001000,0.001000,0.001000
1019.153846,-0.038670,0.001000,0.001000,0.001000,0.001000,0.001000
1019.173077,-0.039581,0.001000,0.001000,0.001000,0.001000,0.001000
1019.192308,-0.040458,0.001000,0.001000,0.001000,0.001000,0.001000
1019.211538,-0.041301,0.001000,0.001000,0.001000,0.001000,0.001000
1019.230769,-0.042108,0.001000,0.001000,0.001000,0.001000,0.001000
1019.250000,-0.042879,0.001000,0.001000,0.001000,0.001000,0.001000
1019.269231,-0.043614,0.001000,0.001000,0.001000,0.001000,0.001000
1019.288462,-0.044311,0.001000,0.001000,0.001000,0.001000,0.001000
1019.307692,-0.044970,0.001000,0.001000,0.001000,0.001000,0.001000
1019.326923,-0.045590,0.001000,0.001000,0.001000,0.001000,0.001000
1019.346154,-0.046172,0.001000,0.001000,0.001000,0.001000,0.001000
1019.365385,-0.046714,0.001000,0.001000,0.001000,0.001000,0.001000
1019.384615,-0.047215,0.001000,0.001000,0.001000,0.001000,0.001000
1019.403846,-0.047677,0.001000,0.001000,0.001000,0.001000,0.001000
1019.423077,-0.048097,0.001000,0.001000,0.001000,0.001000,0.001000
1019.442308,-0.048477,0.001000,0.001000,0.001000,0.001000,0.001000
1019.461538,-0.048814,0.001000,0.001000,0.001000,0.001000,0.001000
1019.480769,-0.049110,0.001000,0.001000,0.001000,0.001000,0.001000
1019.500000,-0.049364,0.001000,0.001000,0.001000,0.001000,0.001000
1019.519231,-0.049576,0.001000,0.001000,0.001000,0.001000,0.001000
1019.538462,-0.049745,0.001000,0.001000,0.001000,0.001000,0.001000
1019.557692,-0.049871,0.001000,0.001000,0.001000,0.001000,0.001000
1019.576923,-0.049955,0.001000,0.001000,0.001000,0.001000,0.001000
1019.596154,-0.049996,0.001000,0.001000,0.001000,0.001000,0.001000
1019.615385,-0.049994,0.001000,0.001000,0.001000,0.001000,0.001000
1019.634615,-0.049949,0.001000,0.001000,0.001000,0.001000,0.001000
1019.653846,-0.049861,0.001000,0.001000,0.001000,0.001000,0.001000
1019.673077,-0.049731,0.001000,0.001000,0.001000,0.001000,0.001000
1019.692308,-0.049558,0.001000,0.001000,0.001000,0.001000,0.001000
1019.711538,-0.049342,0.001000,0.001000,0.001000,0.001000,0.001000
1019.730769,-0.049085,0.001000,0.001000,0.001000,0.001000,0.001000
1019.750000,-0.048785,0.001000,0.001000,0.001000,0.001000,0.001000
1019.769231,-0.048443,0.001000,0.001000,0.001000,0.001000,0.001000
1019.788462,-0.048060,0.001000,0.001000,0.001000,0.001000,0.001000
1019.807692,-0.047636,0.001000,0.001000,0.001000,0.001000,0.001000
1019.826923,-0.047171,0.001000,0.001000,0.001000,0.001000,0.001000
1019.846154,-0.046665,0.001000,0.001000,0.001000,0.001000,0.001000
1019.865385,-0.046119,0.001000,0.001000,0.001000,0.001000,0.001000
1019.884615,-0.045534,0.001000,0.001000,0.001000,0.001000,0.001000
1019.903846,-0.044910,0.001000,0.001000,0.001000,0.001000,0.001000
1019.923077,-0.044248,0.001000,0.001000,0.001000,0.001000,0.001000
1019.942308,-0.043547,0.001000,0.001000,0.001000,0.001000,0.001000
1019.961538,-0.042809,0.001000,0.001000,0.001000,0.001000,0.001000
1019.980769,-0.042035,0.001000,0.001000,0.001000,0.001000,0.001000
1020.000000,-0.041224,0.001000,0.001000,0.001000,0.001000,0.001000
1020.019231,-0.040378,0.001000,0.001000,0.001000,0.001000,0.001000
1020.038462,-0.039498,0.001000,0.001000,0.001000,0.001000,0.001000
1020.057692,-0.038583,0.001000,0.001000,0.001000,0.001000,0.001000
1020.076923,-0.037636,0.001000,0.001000,0.001000,0.001000,0.001000
1020.096154,-0.036656,0.001000,0.001000,0.001000,0.001000,0.001000
1020.115385,-0.035645,0.001000,0.001000,0.001000,0.001000,0.001000
1020.134615,-0.034604,0.001000,0.001000,0.001000,0.001000,0.001000
1020.153846,-0.033532,0.001000,0.001000,0.001000,0.001000,0.001000
1020.173077,-0.032432,0.001000,0.001000,0.001000,0.001000,0.001000
1020.192308,-0.031305,0.001000,0.001000,0.001000,0.001000,0.001000
1020.211538,-0.030150,0.001000,0.001000,0.001000,0.001000,0.001000
1020.230769,-0.028969,0.001000,0.001000,0.001000,0.001000,0.001000
1020.250000,-0.027764,0.001000,0.001000,0.001000,0.001000,0.001000
1020.269231,-0.026535,0.001000,0.001000,0.001000,0.001000,0.001000
1020.288462,-0.025283,0.001000,0.001000,0.001000,0.001000,0.001000
1020.307692,-0.024010,0.001000,0.001000,0.001000,0.001000,0.001000
1020.326923,-0.022716,0.001000,0.001000,0.001000,0.001000,0.001000
1020.346154,-0.021402,0.001000,0.001000,0.001000,0.001000,0.001000
1020.365385,-0.020070,0.001000,0.001000,0.001000,0.001000,0.001000
1020.384615,-0.018721,0.001000,0.001000,0.001000,0.001000,0.001000
1020.403846,-0.017356,0.001000,0.001000,0.001000,0.001000,0.001000
1020.423077,-0.015976,0.001000,0.001000,0.001000,0.001000,0.001000
1020.442308,-0.014582,0.001000,0.001000,0.001000,0.001000,0.001000
1020.461538,-0.013176,0.001000,0.001000,0.001000,0.001000,0.001000
1020.480769,-0.011759,0.001000,0.001000,0.001000,0.001000,0.001000
1020.500000,-0.010331,0.001000,0.001000,0.001000,0.001000,0.001000
1020.519231,-0.008895,0.001000,0.001000,0.001000,0.001000,0.001000
1020.538462,-0.007451,0.001000,0.001000,0.001000,0.001000,0.001000
1020.557692,-0.006000,0.001000,0.001000,0.001000,0.001000,0.001000
1020.576923,-0.004545,0.001000,0.001000,0.001000,0.001000,0.001000
1020.596154,-0.003085,0.001000,0.001000,0.001000,0.001000,0.001000
1020.615385,-0.001623,0.001000,0.001000,0.001000,0.001000,0.001000
1020.634615,-0.000160,0.001000,0.001000,0.001000,0.001000,0.001000
1020.653846,0.001304,0.001000,0.001000,0.001000,0.001000,0.001000
1020.673077,0.002767,0.001000,0.001000,0.001000,0.001000,0.001000
1020.692308,0.004227,0.001000,0.001000,0.001000,0.001000,0.001000
1020.711538,0.005683,0.001000,0.001000,0.001000,0.001000,0.001000
1020.730769,0.007135,0.001000,0.001000,0.001000,0.001000,0.001000
1020.750000,0.008580,0.001000,0.001000,0.001000,0.001000,0.001000
1020.769231,0.010019,0.001000,0.001000,0.001000,0.001000,0.001000
1020.788462,0.011448,0.001000,0.001000,0.001000,0.001000,0.001000
1020.807692,0.012868,0.001000,0.001000,0.001000,0.001000,0.001000
1020.826923,0.014277,0.001000,0.001000,0.001000,0.001000,0.001000
1020.846154,0.015673,0.001000,0.001000,0.001000,0.001000,0.001000
1020.865385,0.017056,0.001000,0.001000,0.001000,0.001000,0.001000
1020.884615,0.018425,0.001000,0.001000,0.001000,0.001000,0.001000
1020.903846,0.019777,0.001000,0.001000,0.001000,0.001000,0.001000
1020.923077,0.021113,0.001000,0.001000,0.001000,0.001000,0.001000
1020.942308,0.022431,0.001000,0.001000,0.001000,0.001000,0.001000
1020.961538,0.023729,0.001000,0.001000,0.001000,0.001000,0.001000
1020.980769,0.025007,0.001000,0.001000,0.001000,0.001000,0.001000
1021.000000,0.026264,0.001000,0.001000,0.001000,0.001000,0.001000
1021.019231,0.027498,0.001000,0.001000,0.001000,0.001000,0.001000
1021.038462,0.028709,0.001000,0.001000,0.001000,0.001000,0.001000
1021.057692,0.029895,0.001000,0.001000,0.001000,0.001000,0.001000
1021.076923,0.031055,0.001000,0.001000,0.001000,0.001000,0.001000
1021.096154,0.032189,0.001000,0.001000,0.001000,0.001000,0.001000
1021.115385,0.033295,0.001000,0.001000,0.001000,0.001000,0.001000
1021.134615,0.034373,0.001000,0.001000,0.001000,0.001000,0.001000
1021.153846,0.035421,0.001000,0.001000,0.001000,0.001000,0.001000
1021.173077,0.036439,0.001000,0.001000,0.001000,0.001000,0.001000
1021.192308,0.037425,0.001000,0.001000,0.001000,0.001000,0.001000
1021.211538,0.038380,0.001000,0.001000,0.001000,0.001000,0.001000
1021.230769,0.039301,0.001000,0.001000,0.001000,0.001000,0.001000
1021.250000,0.040189,0.001000,0.001000,0.001000,0.001000,0.001000
1021.269231,0.041043,0.001000,0.001000,0.001000,0.001000,0.001000
1021.288462,0.041861,0.001000,0.001000,0.001000,0.001000,0.001000
1021.307692,0.042643,0.001000,0.001000,0.001000,0.001000,0.001000
1021.326923,0.043389,0.001000,0.001000,0.001000,0.001000,0.001000
1021.346154,0.044098,0.001000,0.001000,0.001000,0.001000,0.001000
1021.365385,0.044769,0.001000,0.001000,0.001000,0.001000,0.001000
1021.384615,0.045401,0.001000,0.001000,0.001000,0.001000,0.001000
1021.403846,0.045995,0.001000,0.001000,0.001000,0.001000,0.001000
1021.423077,0.046549,0.001000,0.001000,0.001000,0.001000,0.001000
1021.442308,0.047064,0.001000,0.001000,0.001000,0.001000,0.001000
1021.461538,0.047538,0.001000,0.001000,0.001000,0.001000,0.001000
1021.480769,0.047971,0.001000,0.001000,0.001000,0.001000,0.001000
1021.500000,0.048363,0.001000,0.001000,0.001000,0.001000,0.001000
1021.519231,0.048714,0.001000,0.001000,0.001000,0.001000,0.001000
1021.538462,0.049023,0.001000,0.001000,0.001000,0.001000,0.001000
1021.557692,0.049290,0.001000,0.001000,0.001000,0.001000,0.001000
1021.576923,0.049514,0.001000,0.001000,0.001000,0.001000,0.001000
1021.596154,0.049697,0.001000,0.001000,0.001000,0.001000,0.001000
1021.615385,0.049836,0.001000,0.001000,0.001000,0.001000,0.001000
1021.634615,0.049933,0.001000,0.001000,0.001000,0.001000,0.001000
1021.653846,0.049987,0.001000,0.001000,0.001000,0.001000,0.001000
1021.673077,0.049999,0.001000,0.001000,0.001000,0.001000,0.001000
1021.692308,0.049967,0.001000,0.001000,0.001000,0.001000,0.001000
1021.711538,0.049893,0.001000,0.001000,0.001000,0.001000,0.001000
1021.730769,0.049776,0.001000,0.001000,0.001000,0.001000,0.001000
1021.750000,0.049616,0.001000,0.001000,0.001000,0.001000,0.001000
1021.769231,0.049414,0.001000,0.001000,0.001000,0.001000,0.001000
1021.788462,0.049169,0.001000,0.001000,0.001000,0.001000,0.001000
1021.807692,0.048882,0.001000,0.001000,0.001000,0.001000,0.001000
1021.826923,0.048554,0.001000,0.001000,0.001000,0.001000,0.001000
1021.846154,0.048184,0.001000,0.001000,0.001000,0.001000,0.001000
1021.865385,0.047772,0.001000,0.001000,0.001000,0.001000,0.001000
1021.884615,0.047319,0.001000,0.001000,0.001000,0.001000,0.001000
1021.903846,0.046826,0.001000,0.001000,0.001000,0.001000,0.001000
1021.923077,0.046293,0.001000,0.001000,0.001000,0.001000,0.001000
1021.942308,0.045720,0.001000,0.001000,0.001000,0.001000,0.001000
1021.961538,0.045108,0.001000,0.001000,0.001000,0.001000,0.001000
1021.980769,0.044458,0.001000,0.001000,0.001000,0.001000,0.001000
1022.000000,0.043769,0.001000,0.001000,0.001000,0.001000,0.001000
1022.019231,0.043043,0.001000,0.001000,0.001000,0.001000,0.001000
1022.038462,0.042279,0.001000,0.001000,0.001000,0.001000,0.001000
1022.057692,0.041480,0.001000,0.001000,0.001000,0.001000,0.001000
1022.076923,0.040645,0.001000,0.001000,0.001000,0.001000,0.001000
1022.096154,0.039775,0.001000,0.001000,0.001000,0.001000,0.001000
1022.115385,0.038871,0.001000,0.001000,0.001000,0.001000,0.001000
1022.134615,0.037934,0.001000,0.001000,0.001000,0.001000,0.001000
1022.153846,0.036964,0.001000,0.001000,0.001000,0.001000,0.001000
1022.173077,0.035963,0.001000,0.001000,0.001000,0.001000,0.001000
1022.192308,0.034931,0.001000,0.001000,0.001000,0.001000,0.001000
1022.211538,0.033869,0.001000,0.001000,0.001000,0.001000,0.001000
1022.230769,0.032777,0.001000,0.001000,0.001000,0.001000,0.001000
1022.250000,0.031658,0.001000,0.001000,0.001000,0.001000,0.001000
1022.269231,0.030512,0.001000,0.001000,0.001000,0.001000,0.001000
1022.288462,0.029339,0.001000,0.001000,0.001000,0.001000,0.001000
1022.307692,0.028142,0.001000,0.001000,0.001000,0.001000,0.001000
1022.326923,0.026920,0.001000,0.001000,0.001000,0.001000,0.001000
1022.346154,0.025675,0.001000,0.001000,0.001000,0.001000,0.001000
1022.365385,0.024408,0.001000,0.001000,0.001000,0.001000,0.001000
1022.384615,0.023120,0.001000,0.001000,0.001000,0.001000,0.001000
1022.403846,0.021813,0.001000,0.001000,0.001000,0.001000,0.001000
1022.423077,0.020486,0.001000,0.001000,0.001000,0.001000,0.001000
1022.442308,0.019142,0.001000,0.001000,0.001000,0.001000,0.001000
1022.461538,0.017782,0.001000,0.001000,0.001000,0.001000,0.001000
1022.480769,0.016407,0.001000,0.001000,0.001000,0.001000,0.001000
1022.500000,0.015017,0.001000,0.001000,0.001000,0.001000,0.001000
1022.519231,0.013615,0.001000,0.001000,0.001000,0.001000,0.001000
1022.538462,0.012201,0.001000,0.001000,0.001000,0.001000,0.001000
1022.557692,0.010776,0.001000,0.001000,0.001000,0.001000,0.001000
1022.576923,0.009342,0.001000,0.001000,0.001000,0.001000,0.001000
1022.596154,0.007900,0.001000,0.001000,0.001000,0.001000,0.001000
1022.615385,0.006452,0.001000,0.001000,0.001000,0.001000,0.001000
1022.634615,0.004998,0.001000,0.001000,0.001000,0.001000,0.001000
1022.653846,0.003539,0.001000,0.001000,0.001000,0.001000,0.001000
1022.673077,0.002078,0.001000,0.001000,0.001000,0.001000,0.001000
1022.692308,0.000615,0.001000,0.001000,0.001000,0.001000,0.001000
1022.711538,-0.000849,0.001000,0.001000,0.001000,0.001000,0.001000
1022.730769,-0.002312,0.001000,0.001000,0.001000,0.001000,0.001000
1022.750000,-0.003773,0.001000,0.001000,0.001000,0.001000,0.001000
1022.769231,-0.005231,0.001000,0.001000,0.001000,0.001000,0.001000
1022.788462,-0.006684,0.001000,0.001000,0.001000,0.001000,0.001000
1022.807692,-0.008132,0.001000,0.001000,0.001000,0.001000,0.001000
1022.826923,-0.009572,0.001000,0.001000,0.001000,0.001000,0.001000
1022.846154,-0.011005,0.001000,0.001000,0.001000,0.001000,0.001000
1022.865385,-0.012428,0.001000,0.001000,0.001000,0.001000,0.001000
1022.884615,-0.013840,0.001000,0.001000,0.001000,0.001000,0.001000
1022.903846,-0.015240,0.001000,0.001000,0.001000,0.001000,0.001000
1022.923077,-0.016628,0.001000,0.001000,0.001000,0.001000,0.001000
1022.942308,-0.018001,0.001000,0.001000,0.001000,0.001000,0.001000
1022.961538,-0.019359,0.001000,0.001000,0.001000,0.001000,0.001000
1022.980769,-0.020700,0.001000,0.001000,0.001000,0.001000,0.001000
1023.000000,-0.022023,0.001000,0.001000,0.001000,0.001000,0.001000
1023.019231,-0.023328,0.001000,0.001000,0.001000,0.001000,0.001000
1023.038462,-0.024612,0.001000,0.001000,0.001000,0.001000,0.001000
1023.057692,-0.025876,0.001000,0.001000,0.001000,0.001000,0.001000
1023.076923,-0.027117,0.001000,0.001000,0.001000,0.001000,0.001000
1023.096154,-0.028335,0.001000,0.001000,0.001000,0.001000,0.001000
1023.115385,-0.029529,0.001000,0.001000,0.001000,0.001000,0.001000
1023.134615,-0.030697,0.001000,0.001000,0.001000,0.001000,0.001000
1023.153846,-0.031839,0.001000,0.001000,0.001000,0.001000,0.001000
1023.173077,-0.032954,0.001000,0.001000,0.001000,0.001000,0.001000
1023.192308,-0.034041,0.001000,0.001000,0.001000,0.001000,0.001000
1023.211538,-0.035098,0.001000,0.001000,0.001000,0.001000,0.001000
1023.230769,-0.036125,0.001000,0.001000,0.001000,0.001000,0.001000
1023.250000,-0.037122,0.001000,0.001000,0.001000,0.001000,0.001000
1023.269231,-0.038086,0.001000,0.001000,0.001000,0.001000,0.001000
1023.288462,-0.039018,0.001000,0.001000,0.001000,0.001000,0.001000
1023.307692,-0.039917,0.001000,0.001000,0.001000,0.001000,0.001000
1023.326923,-0.040781,0.001000,0.001000,0.001000,0.001000,0.001000
1023.346154,-0.041610,0.001000,0.001000,0.001000,0.001000,0.001000
1023.365385,-0.042404,0.001000,0.001000,0.001000,0.001000,0.001000
1023.384615,-0.043161,0.001000,0.001000,0.001000,0.001000,0.001000
1023.403846,-0.043882,0.001000,0.001000,0.001000,0.001000,0.001000
1023.423077,-0.044564,0.001000,0.001000,0.001000,0.001000,0.001000
1023.442308,-0.045209,0.001000,0.001000,0.001000,0.001000,0.001000
1023.461538,-0.045815,0.001000,0.001000,0.001000,0.001000,0.001000
1023.480769,-0.046381,0.001000,0.001000,0.001000,0.001000,0.001000
1023.500000,-0.046908,0.001000,0.001000,0.001000,0.001000,0.001000
1023.519231,-0.047395,0.001000,0.001000,0.001000,0.001000,0.001000
1023.538462,-0.047841,0.001000,0.001000,0.001000,0.001000,0.001000
1023.557692,-0.048246,0.001000,0.001000,0.001000,0.001000,0.001000
1023.576923,-0.048609,0.001000,0.001000,0.001000,0.001000,0.001000
1023.596154,-0.048931,0.001000,0.001000,0.001000,0.001000,0.001000
1023.615385,-0.049211,0.001000,0.001000,0.001000,0.001000,0.001000
1023.634615,-0.049449,0.001000,0.001000,0.001000,0.001000,0.001000
1023.653846,-0.049645,0.001000,0.001000,0.001000,0.001000,0.001000
1023.673077,-0.049797,0.001000,0.001000,0.001000,0.001000,0.001000
1023.692308,-0.049908,0.001000,0.001000,0.001000,0.001000,0.001000
1023.711538,-0.049975,0.001000,0.001000,0.001000,0.001000,0.001000
1023.730769,-0.050000,0.001000,0.001000,0.001000,0.001000,0.001000
1023.750000,-0.049982,0.001000,0.001000,0.001000,0.001000,0.001000
1023.769231,-0.049921,0.001000,0.001000,0.001000,0.001000,0.001000
1023.788462,-0.049817,0.001000,0.001000,0.001000,0.001000,0.001000
1023.807692,-0.049670,0.001000,0.001000,0.001000,0.001000,0.001000
1023.826923,-0.049481,0.001000,0.001000,0.001000,0.001000,0.001000
1023.846154,-0.049250,0.001000,0.001000,0.001000,0.001000,0.001000
1023.865385,-0.048976,0.001000,0.001000,0.001000,0.001000,0.001000
1023.884615,-0.048660,0.001000,0.001000,0.001000,0.001000,0.001000
1023.903846,-0.048303,0.001000,0.001000,0.001000,0.001000,0.001000
1023.923077,-0.047904,0.001000,0.001000,0.001000,0.001000,0.001000
1023.942308,-0.047465,0.001000,0.001000,0.001000,0.001000,0.001000
1023.961538,-0.046984,0.001000,0.001000,0.001000,0.001000,0.001000
1023.980769,-0.046463,0.001000,0.001000,0.001000,0.001000,0.001000
1024.000000,-0.045903,0.001000,0.001000,0.001000,0.001000,0.001000
1024.019231,-0.045303,0.001000,0.001000,0.001000,0.001000,0.001000
1024.038462,-0.044664,0.001000,0.001000,0.001000,0.001000,0.001000
1024.057692,-0.043987,0.001000,0.001000,0.001000,0.001000,0.001000
1024.076923,-0.043272,0.001000,0.001000,0.001000,0.001000,0.001000
1024.096154,-0.042521,0.001000,0.001000,0.001000,0.001000,0.001000
1024.115385,-0.041732,0.001000,0.001000,0.001000,0.001000,0.001000
1024.134615,-0.040908,0.001000,0.001000,0.001000,0.001000,0.001000
1024.153846,-0.040049,0.001000,0.001000,0.001000,0.001000,0.001000
1024.173077,-0.039156,0.001000,0.001000,0.001000,0.001000,0.001000
1024.192308,-0.038229,0.001000,0.001000,0.001000,0.001000,0.001000
1024.211538,-0.037269,0.001000,0.001000,0.001000,0.001000,0.001000
1024.230769,-0.036278,0.001000,0.001000,0.001000,0.001000,0.001000
1024.250000,-0.035255,0.001000,0.001000,0.001000,0.001000,0.001000
1024.269231,-0.034202,0.001000,0.001000,0.001000,0.001000,0.001000
1024.288462,-0.033120,0.001000,0.001000,0.001000,0.001000,0.001000
1024.307692,-0.032009,0.001000,0.001000,0.001000,0.001000,0.001000
1024.326923,-0.030871,0.001000,0.001000,0.001000,0.001000,0.001000
1024.346154,-0.029707,0.001000,0.001000,0.001000,0.001000,0.001000
1024.365385,-0.028517,0.001000,0.001000,0.001000,0.001000,0.001000
1024.384615,-0.027302,0.001000,0.001000,0.001000,0.001000,0.001000
1024.403846,-0.026064,0.001000,0.001000,0.001000,0.001000,0.001000
1024.423077,-0.024804,0.001000,0.001000,0.001000,0.001000,0.001000
1024.442308,-0.023523,0.001000,0.001000,0.001000,0.001000,0.001000
1024.461538,-0.022221,0.001000,0.001000,0.001000,0.001000,0.001000
1024.480769,-0.020901,0.001000,0.001000,0.001000,0.001000,0.001000
1024.500000,-0.019562,0.001000,0.001000,0.001000,0.001000,0.001000
1024.519231,-0.018207,0.001000,0.001000,0.001000,0.001000,0.001000
1024.538462,-0.016836,0.001000,0.001000,0.001000,0.001000,0.001000
1024.557692,-0.015451,0.001000,0.001000,0.001000,0.001000,0.001000
1024.576923,-0.014052,0.001000,0.001000,0.001000,0.001000,0.001000
1024.596154,-0.012641,0.001000,0.001000,0.001000,0.001000,0.001000
1024.615385,-0.011220,0.001000,0.001000,0.001000,0.001000,0.001000
1024.634615,-0.009789,0.001000,0.001000,0.001000,0.001000,0.001000
1024.653846,-0.008349,0.001000,0.001000,0.001000,0.001000,0.001000
1024.673077,-0.006903,0.001000,0.001000,0.001000,0.001000,0.001000
1024.692308,-0.005450,0.001000,0.001000,0.001000,0.001000,0.001000
1024.711538,-0.003993,0.001000,0.001000,0.001000,0.001000,0.001000
1024.730769,-0.002532,0.001000,0.001000,0.001000,0.001000,0.001000
1024.750000,-0.001070,0.001000,0.001000,0.001000,0.001000,0.001000
1024.769231,0.000394,0.001000,0.001000,0.001000,0.001000,0.001000
1024.788462,0.001857,0.001000,0.001000,0.001000,0.001000,0.001000
1024.807692,0.003319,0.001000,0.001000,0.001000,0.001000,0.001000
1024.826923,0.004778,0.001000,0.001000,0.001000,0.001000,0.001000
1024.846154,0.006233,0.001000,0.001000,0.001000,0.001000,0.001000
1024.865385,0.007682,0.001000,0.001000,0.001000,0.001000,0.001000
1024.884615,0.009125,0.001000,0.001000,0.001000,0.001000,0.001000
1024.903846,0.010560,0.001000,0.001000,0.001000,0.001000,0.001000
1024.923077,0.011986,0.001000,0.001000,0.001000,0.001000,0.001000
1024.942308,0.013402,0.001000,0.001000,0.001000,0.001000,0.001000
1024.961538,0.014806,0.001000,0.001000,0.001000,0.001000,0.001000
1024.980769,0.016198,0.001000,0.001000,0.001000,0.001000,0.001000
1025.000000,0.017576,0.001000,0.001000,0.001000,0.001000,0.001000
1025.019231,0.018938,0.001000,0.001000,0.001000,0.001000,0.001000
1025.038462,0.020285,0.001000,0.001000,0.001000,0.001000,0.001000
1025.057692,0.021614,0.001000,0.001000,0.001000,0.001000,0.001000
1025.076923,0.022924,0.001000,0.001000,0.001000,0.001000,0.001000
1025.096154,0.024215,0.001000,0.001000,0.001000,0.001000,0.001000
1025.115385,0.025485,0.001000,0.001000,0.001000,0.001000,0.001000
1025.134615,0.026733,0.001000,0.001000,0.001000,0.001000,0.001000
1025.153846,0.027959,0.001000,0.001000,0.001000,0.001000,0.001000
1025.173077,0.029160,0.001000,0.001000,0.001000,0.001000,0.001000
1025.192308,0.030337,0.001000,0.001000,0.001000,0.001000,0.001000
1025.211538,0.031487,0.001000,0.001000,0.001000,0.001000,0.001000
1025.230769,0.032610,0.001000,0.001000,0.001000,0.001000,0.001000
1025.250000,0.033706,0.001000,0.001000,0.001000,0.001000,0.001000
1025.269231,0.034772,0.001000,0.001000,0.001000,0.001000,0.001000
1025.288462,0.035809,0.001000,0.001000,0.001000,0.001000,0.001000
1025.307692,0.036815,0.001000,0.001000,0.001000,0.001000,0.001000
1025.326923,0.037790,0.001000,0.001000,0.001000,0.001000,0.001000
1025.346154,0.038732,0.001000,0.001000,0.001000,0.001000,0.001000
1025.365385,0.039641,0.001000,0.001000,0.001000,0.001000,0.001000
1025.384615,0.040516,0.001000,0.001000,0.001000,0.001000,0.001000
1025.403846,0.041356,0.001000,0.001000,0.001000,0.001000,0.001000
1025.423077,0.042161,0.001000,0.001000,0.001000,0.001000,0.001000
1025.442308,0.042930,0.001000,0.001000,0.001000,0.001000,0.001000
1025.461538,0.043662,0.001000,0.001000,0.001000,0.001000,0.001000
1025.480769,0.044356,0.001000,0.001000,0.001000,0.001000,0.001000
1025.500000,0.045013,0.001000,0.001000,0.001000,0.001000,0.001000
1025.519231,0.045631,0.001000,0.001000,0.001000,0.001000,0.001000
1025.538462,0.046209,0.001000,0.001000,0.001000,0.001000,0.001000
1025.557692,0.046749,0.001000,0.001000,0.001000,0.001000,0.001000
1025.576923,0.047248,0.001000,0.001000,0.001000,0.001000,0.001000
1025.596154,0.047706,0.001000,0.001000,0.001000,0.001000,0.001000
1025.615385,0.048124,0.001000,0.001000,0.001000,0.001000,0.001000
1025.634615,0.048501,0.001000,0.001000,0.001000,0.001000,0.001000
1025.653846,0.048836,0.001000,0.001000,0.001000,0.001000,0.001000
1025.673077,0.049129,0.001000,0.001000,0.001000,0.001000,0.001000
1025.692308,0.049380,0.001000,0.001000,0.001000,0.001000,0.001000
1025.711538,0.049588,0.001000,0.001000,0.001000,0.001000,0.001000
1025.730769,0.049755,0.001000,0.001000,0.001000,0.001000,0.001000
1025.750000,0.049878,0.001000,0.001000,0.001000,0.001000,0.001000
1025.769231,0.049959,0.001000,0.001000,0.001000,0.001000,0.001000
1025.788462,0.049997,0.001000,0.001000,0.001000,0.001000,0.001000
1025.807692,0.049992,0.001000,0.001000,0.001000,0.001000,0.001000
1025.826923,0.049944,0.001000,0.001000,0.001000,0.001000,0.001000
1025.846154,0.049854,0.001000,0.001000,0.001000,0.001000,0.001000
1025.865385,0.049720,0.001000,0.001000,0.001000,0.001000,0.001000
1025.884615,0.049545,0.001000,0.001000,0.001000,0.001000,0.001000
1025.903846,0.049326,0.001000,0.001000,0.001000,0.001000,0.001000
1025.923077,0.049066,0.001000,0.001000,0.001000,0.001000,0.001000
1025.942308,0.048763,0.001000,0.001000,0.001000,0.001000,0.001000
1025.961538,0.048419,0.001000,0.001000,0.001000,0.001000,0.001000
1025.980769,0.048033,0.001000,0.001000,0.001000,0.001000,0.001000
1026.000000,0.047606,0.001000,0.001000,0.001000,0.001000,0.001000
1026.019231,0.047138,0.001000,0.001000,0.001000,0.001000,0.001000
1026.038462,0.046629,0.001000,0.001000,0.001000,0.001000,0.001000
1026.057692,0.046081,0.001000,0.001000,0.001000,0.001000,0.001000
1026.076923,0.045494,0.001000,0.001000,0.001000,0.001000,0.001000
1026.096154,0.044867,0.001000,0.001000,0.001000,0.001000,0.001000
1026.115385,0.044202,0.001000,0.001000,0.001000,0.001000,0.001000
1026.134615,0.043499,0.001000,0.001000,0.001000,0.001000,0.001000
1026.153846,0.042758,0.001000,0.001000,0.001000,0.001000,0.001000
1026.173077,0.041981,0.001000,0.001000,0.001000,0.001000,0.001000
1026.192308,0.041168,0.001000,0.001000,0.001000,0.001000,0.001000
1026.211538,0.040320,0.001000,0.001000,0.001000,0.001000,0.001000
1026.230769,0.039437,0.001000,0.001000,0.001000,0.001000,0.001000
1026.250000,0.038521,0.001000,0.001000,0.001000,0.001000,0.001000
1026.269231,0.037571,0.001000,0.001000,0.001000,0.001000,0.001000
1026.288462,0.036589,0.001000,0.001000,0.001000,0.001000,0.001000
1026.307692,0.035576,0.001000,0.001000,0.001000,0.001000,0.001000
1026.326923,0.034533,0.001000,0.001000,0.001000,0.001000,0.001000
1026.346154,0.033459,0.001000,0.001000,0.001000,0.001000,0.001000
1026.365385,0.032357,0.001000,0.001000,0.001000,0.001000,0.001000
1026.384615,0.031228,0.001000,0.001000,0.001000,0.001000,0.001000
1026.403846,0.030071,0.001000,0.001000,0.001000,0.001000,0.001000
1026.423077,0.028889,0.001000,0.001000,0.001000,0.001000,0.001000
1026.442308,0.027682,0.001000,0.001000,0.001000,0.001000,0.001000
1026.461538,0.026452,0.001000,0.001000,0.001000,0.001000,0.001000
1026.480769,0.025198,0.001000,0.001000,0.001000,0.001000,0.001000
1026.500000,0.023923,0.001000,0.001000,0.001000,0.001000,0.001000
1026.519231,0.022628,0.001000,0.001000,0.001000,0.001000,0.001000
1026.538462,0.021313,0.001000,0.001000,0.001000,0.001000,0.001000
1026.557692,0.019980,0.001000,0.001000,0.001000,0.001000,0.001000
1026.576923,0.018630,0.001000,0.001000,0.001000,0.001000,0.001000
1026.596154,0.017264,0.001000,0.001000,0.001000,0.001000,0.001000
1026.615385,0.015883,0.001000,0.001000,0.001000,0.001000,0.001000
1026.634615,0.014488,0.001000,0.001000,0.001000,0.001000,0.001000
1026.653846,0.013081,0.001000,0.001000,0.001000,0.001000,0.001000
1026.673077,0.011663,0.001000,0.001000,0.001000,0.001000,0.001000
1026.692308,0.010235,0.001000,0.001000,0.001000,0.001000,0.001000
1026.711538,0.008798,0.001000,0.001000,0.001000,0.001000,0.001000
1026.730769,0.007353,0.001000,0.001000,0.001000,0.001000,0.001000
1026.750000,0.005902,0.001000,0.001000,0.001000,0.001000,0.001000
1026.769231,0.004447,0.001000,0.001000,0.001000,0.001000,0.001000
1026.788462,0.002987,0.001000,0.001000,0.001000,0.001000,0.001000
1026.807692,0.001525,0.001000,0.001000,0.001000,0.001000,0.001000
1026.826923,0.000061,0.001000,0.001000,0.001000,0.001000,0.001000
1026.846154,-0.001402,0.001000,0.001000,0.001000,0.001000,0.001000
1026.865385,-0.002865,0.001000,0.001000,0.001000,0.001000,0.001000
1026.884615,-0.004325,0.001000,0.001000,0.001000,0.001000,0.001000
1026.903846,-0.005781,0.001000,0.001000,0.001000,0.001000,0.001000
1026.923077,-0.007232,0.001000,0.001000,0.001000,0.001000,0.001000
1026.942308,-0.008677,0.001000,0.001000,0.001000,0.001000,0.001000
1026.961538,-0.010115,0.001000,0.001000,0.001000,0.001000,0.001000
1026.980769,-0.011544,0.001000,0.001000,0.001000,0.001000,0.001000
1027.000000,-0.012963,0.001000,0.001000,0.001000,0.001000,0.001000
1027.019231,-0.014371,0.001000,0.001000,0.001000,0.001000,0.001000
1027.038462,-0.015767,0.001000,0.001000,0.001000,0.001000,0.001000
1027.057692,-0.017149,0.001000,0.001000,0.001000,0.001000,0.001000
1027.076923,-0.018516,0.001000,0.001000,0.001000,0.001000,0.001000
1027.096154,-0.019868,0.001000,0.001000,0.001000,0.001000,0.001000
1027.115385,-0.021202,0.001000,0.001000,0.001000,0.001000,0.001000
1027.134615,-0.022519,0.001000,0.001000,0.001000,0.001000,0.001000
1027.153846,-0.023816,0.001000,0.001000,0.001000,0.001000,0.001000
1027.173077,-0.025093,0.001000,0.001000,0.001000,0.001000,0.001000
1027.192308,-0.026348,0.001000,0.001000,0.001000,0.001000,0.001000
1027.211538,-0.027580,0.001000,0.001000,0.001000,0.001000,0.001000
1027.230769,-0.028789,0.001000,0.001000,0.001000,0.001000,0.001000
1027.250000,-0.029974,0.001000,0.001000,0.001000,0.001000,0.001000
1027.269231,-0.031132,0.001000,0.001000,0.001000,0.001000,0.001000
1027.288462,-0.032264,0.001000,0.001000,0.001000,0.001000,0.001000
1027.307692,-0.033368,0.001000,0.001000,0.001000,0.001000,0.001000
1027.326923,-0.034444,0.001000,0.001000,0.001000,0.001000,0.001000
1027.346154,-0.035490,0.001000,0.001000,0.001000,0.001000,0.001000
1027.365385,-0.036506,0.001000,0.001000,0.001000,0.001000,0.001000
1027.384615,-0.037490,0.001000,0.001000,0.001000,0.001000,0.001000
1027.403846,-0.038443,0.001000,0.001000,0.001000,0.001000,0.001000
1027.423077,-0.039362,0.001000,0.001000,0.001000,0.001000,0.001000
1027.442308,-0.040248,0.001000,0.001000,0.001000,0.001000,0.001000
1027.461538,-0.041099,0.001000,0.001000,0.001000,0.001000,0.001000
1027.480769,-0.041915,0.001000,0.001000,0.001000,0.001000,0.001000
1027.500000,-0.042695,0.001000,0.001000,0.001000,0.001000,0.001000
1027.519231,-0.043438,0.001000,0.001000,0.001000,0.001000,0.001000
1027.538462,-0.044144,0.001000,0.001000,0.001000,0.001000,0.001000
1027.557692,-0.044813,0.001000,0.001000,0.001000,0.001000,0.001000
1027.576923,-0.045443,0.001000,0.001000,0.001000,0.001000,0.001000
1027.596154,-0.046034,0.001000,0.001000,0.001000,0.001000,0.001000
1027.615385,-0.046585,0.001000,0.001000,0.001000,0.001000,0.001000
1027.634615,-0.047097,0.001000,0.001000,0.001000,0.001000,0.001000
1027.653846,-0.047568,0.001000,0.001000,0.001000,0.001000,0.001000
1027.673077,-0.047999,0.001000,0.001000,0.001000,0.001000,0.001000
1027.692308,-0.048388,0.001000,0.001000,0.001000,0.001000,0.001000
1027.711538,-0.048736,0.001000,0.001000,0.001000,0.001000,0.001000
1027.730769,-0.049042,0.001000,0.001000,0.001000,0.001000,0.001000
1027.750000,-0.049306,0.001000,0.001000,0.001000,0.001000,0.001000
1027.769231,-0.049528,0.001000,0.001000,0.001000,0.001000,0.001000
1027.788462,-0.049707,0.001000,0.001000,0.001000,0.001000,0.001000
1027.807692,-0.049844,0.001000,0.001000,0.001000,0.001000,0.001000
1027.826923,-0.049938,0.001000,0.001000,0.001000,0.001000,0.001000
1027.846154,-0.049990,0.001000,0.001000,0.001000,0.001000,0.001000
1027.865385,-0.049998,0.001000,0.001000,0.001000,0.001000,0.001000
1027.884615,-0.049964,0.001000,0.001000,0.001000,0.001000,0.001000
1027.903846,-0.049886,0.001000,0.001000,0.001000,0.001000,0.001000
1027.923077,-0.049766,0.001000,0.001000,0.001000,0.001000,0.001000
1027.942308,-0.049604,0.001000,0.001000,0.001000,0.001000,0.001000
1027.961538,-0.049399,0.001000,0.001000,0.001000,0.001000,0.001000
1027.980769,-0.049151,0.001000,0.001000,0.001000,0.001000,0.001000
1028.000000,-0.048862,0.001000,0.001000,0.001000,0.001000,0.001000
1028.019231,-0.048530,0.001000,0.001000,0.001000,0.001000,0.001000
1028.038462,-0.048157,0.001000,0.001000,0.001000,0.001000,0.001000
1028.057692,-0.047743,0.001000,0.001000,0.001000,0.001000,0.001000
1028.076923,-0.047288,0.001000,0.001000,0.001000,0.001000,0.001000
1028.096154,-0.046792,0.001000,0.001000,0.001000,0.001000,0.001000
1028.115385,-0.046256,0.001000,0.001000,0.001000,0.001000,0.001000
1028.134615,-0.045680,0.001000,0.001000,0.001000,0.001000,0.001000
1028.153846,-0.045066,0.001000,0.001000,0.001000,0.001000,0.001000
1028.173077,-0.044413,0.001000,0.001000,0.001000,0.001000,0.001000
1028.192308,-0.043721,0.001000,0.001000,0.001000,0.001000,0.001000
1028.211538,-0.042992,0.001000,0.001000,0.001000,0.001000,0.001000
1028.230769,-0.042227,0.001000,0.001000,0.001000,0.001000,0.001000
1028.250000,-0.041425,0.001000,0.001000,0.001000,0.001000,0.001000
1028.269231,-0.040588,0.001000,0.001000,0.001000,0.001000,0.001000
1028.288462,-0.039715,0.001000,0.001000,0.001000,0.001000,0.001000
1028.307692,-0.038809,0.001000,0.001000,0.001000,0.001000,0.001000
1028.326923,-0.037870,0.001000,0.001000,0.001000,0.001000,0.001000
1028.346154,-0.036898,0.001000,0.001000,0.001000,0.001000,0.001000
1028.365385,-0.035894,0.001000,0.001000,0.001000,0.001000,0.001000
1028.384615,-0.034860,0.001000,0.001000,0.001000,0.001000,0.001000
1028.403846,-0.033796,0.001000,0.001000,0.001000,0.001000,0.001000
1028.423077,-0.032703,0.001000,0.001000,0.001000,0.001000,0.001000
1028.442308,-0.031582,0.001000,0.001000,0.001000,0.001000,0.001000
1028.461538,-0.030434,0.001000,0.001000,0.001000,0.001000,0.001000
1028.480769,-0.029259,0.001000,0.001000,0.001000,0.001000,0.001000
1028.500000,-0.028060,0.001000,0.001000,0.001000,0.001000,0.001000
1028.519231,-0.026837,0.001000,0.001000,0.001000,0.001000,0.001000
1028.538462,-0.025590,0.001000,0.001000,0.001000,0.001000,0.001000
1028.557692,-0.024322,0.001000,0.001000,0.001000,0.001000,0.001000
1028.576923,-0.023033,0.001000,0.001000,0.001000,0.001000,0.001000
1028.596154,-0.021724,0.001000,0.001000,0.001000,0.001000,0.001000
1028.615385,-0.020396,0.001000,0.001000,0.001000,0.001000,0.001000
1028.634615,-0.019051,0.001000,0.001000,0.001000,0.001000,0.001000
1028.653846,-0.017690,0.001000,0.001000,0.001000,0.001000,0.001000
1028.673077,-0.016314,0.001000,0.001000,0.001000,0.001000,0.001000
1028.692308,-0.014923,0.001000,0.001000,0.001000,0.001000,0.001000
1028.711538,-0.013520,0.001000,0.001000,0.001000,0.001000,0.001000
1028.730769,-0.012105,0.001000,0.001000,0.001000,0.001000,0.001000
1028.750000,-0.010680,0.001000,0.001000,0.001000,0.001000,0.001000
1028.769231,-0.009245,0.001000,0.001000,0.001000,0.001000,0.001000
1028.788462,-0.007803,0.001000,0.001000,0.001000,0.001000,0.001000
1028.807692,-0.006354,0.001000,0.001000,0.001000,0.001000,0.001000
1028.826923,-0.004900,0.001000,0.001000,0.001000,0.001000,0.001000
1028.846154,-0.003441,0.001000,0.001000,0.001000,0.001000,0.001000
1028.865385,-0.001979,0.001000,0.001000,0.001000,0.001000,0.001000
1028.884615,-0.000516,0.001000,0.001000,0.001000,0.001000,0.001000
1028.903846,0.000948,0.001000,0.001000,0.001000,0.001000,0.001000
1028.923077,0.002410,0.001000,0.001000,0.001000,0.001000,0.001000
1028.942308,0.003871,0.001000,0.001000,0.001000,0.001000,0.001000
1028.961538,0.005329,0.001000,0.001000,0.001000,0.001000,0.001000
1028.980769,0.006782,0.001000,0.001000,0.001000,0.001000,0.001000
1029.000000,0.008229,0.001000,0.001000,0.001000,0.001000,0.001000
1029.019231,0.009669,0.001000,0.001000,0.001000,0.001000,0.001000
1029.038462,0.011101,0.001000,0.001000,0.001000,0.001000,0.001000
1029.057692,0.012523,0.001000,0.001000,0.001000,0.001000,0.001000
1029.076923,0.013935,0.001000,0.001000,0.001000,0.001000,0.001000
1029.096154,0.015334,0.001000,0.001000,0.001000,0.001000,0.001000
1029.115385,0.016721,0.001000,0.001000,0.001000,0.001000,0.001000
1029.134615,0.018093,0.001000,0.001000,0.001000,0.001000,0.001000
1029.153846,0.019449,0.001000,0.001000,0.001000,0.001000,0.001000
1029.173077,0.020789,0.001000,0.001000,0.001000,0.001000,0.001000
1029.192308,0.022112,0.001000,0.001000,0.001000,0.001000,0.001000
1029.211538,0.023415,0.001000,0.001000,0.001000,0.001000,0.001000
1029.230769,0.024698,0.001000,0.001000,0.001000,0.001000,0.001000
1029.250000,0.025960,0.001000,0.001000,0.001000,0.001000,0.001000
1029.269231,0.027200,0.001000,0.001000,0.001000,0.001000,0.001000
1029.288462,0.028416,0.001000,0.001000,0.001000,0.001000,0.001000
1029.307692,0.029608,0.001000,0.001000,0.001000,0.001000,0.001000
1029.326923,0.030775,0.001000,0.001000,0.001000,0.001000,0.001000
1029.346154,0.031915,0.001000,0.001000,0.001000,0.001000,0.001000
1029.365385,0.033028,0.001000,0.001000,0.001000,0.001000,0.001000
1029.384615,0.034113,0.001000,0.001000,0.001000,0.001000,0.001000
1029.403846,0.035168,0.001000,0.001000,0.001000,0.001000,0.001000
1029.423077,0.036193,0.001000,0.001000,0.001000,0.001000,0.001000
1029.442308,0.037188,0.001000,0.001000,0.001000,0.001000,0.001000
1029.461538,0.038150,0.001000,0.001000,0.001000,0.001000,0.001000
1029.480769,0.039080,0.001000,0.001000,0.001000,0.001000,0.001000
1029.500000,0.039976,0.001000,0.001000,0.001000,0.001000,0.001000
1029.519231,0.040838,0.001000,0.001000,0.001000,0.001000,0.001000
1029.538462,0.041665,0.001000,0.001000,0.001000,0.001000,0.001000
1029.557692,0.042456,0.001000,0.001000,0.001000,0.001000,0.001000
1029.576923,0.043211,0.001000,0.001000,0.001000,0.001000,0.001000
1029.596154,0.043929,0.001000,0.001000,0.001000,0.001000,0.001000
1029.615385,0.044609,0.001000,0.001000,0.001000,0.001000,0.001000
1029.634615,0.045251,0.001000,0.001000,0.001000,0.001000,0.001000
1029.653846,0.045854,0.001000,0.001000,0.001000,0.001000,0.001000
1029.673077,0.046418,0.001000,0.001000,0.001000,0.001000,0.001000
1029.692308,0.046942,0.001000,0.001000,0.001000,0.001000,0.001000
1029.711538,0.047426,0.001000,0.001000,0.001000,0.001000,0.001000
1029.730769,0.047869,0.001000,0.001000,0.001000,0.001000,0.001000
1029.750000,0.048271,0.001000,0.001000,0.001000,0.001000,0.001000
1029.769231,0.048632,0.001000,0.001000,0.001000,0.001000,0.001000
1029.788462,0.048951,0.001000,0.001000,0.001000,0.001000,0.001000
1029.807692,0.049229,0.001000,0.001000,0.001000,0.001000,0.001000
1029.826923,0.049464,0.001000,0.001000,0.001000,0.001000,0.001000
1029.846154,0.049656,0.001000,0.001000,0.001000,0.001000,0.001000
1029.865385,0.049806,0.001000,0.001000,0.001000,0.001000,0.001000
1029.884615,0.049914,0.001000,0.001000,0.001000,0.001000,0.001000
1029.903846,0.049978,0.001000,0.001000,0.001000,0.001000,0.001000
1029.923077,0.050000,0.001000,0.001000,0.001000,0.001000,0.001000
1029.942308,0.049979,0.001000,0.001000,0.001000,0.001000,0.001000
1029.961538,0.049915,0.001000,0.001000,0.001000,0.001000,0.001000
1029.980769,0.049808,0.001000,0.001000,0.001000,0.001000,0.001000
1030.000000,0.000000,0.001000,0.001000,0.001000,0.001000,0.001000
1030.019231,0.001444,0.001000,0.001000,0.001000,0.001000,0.001000
1030.038462,0.002887,0.001000,0.001000,0.001000,0.001000,0.001000
1030.057692,0.004327,0.001000,0.001000,0.001000,0.001000,0.001000
1030.076923,0.005764,0.001000,0.001000,0.001000,0.001000,0.001000
1030.096154,0.007196,0.001000,0.001000,0.001000,0.001000,0.001000
1030.115385,0.008622,0.001000,0.001000,0.001000,0.001000,0.001000
1030.134615,0.010041,0.001000,0.001000,0.001000,0.001000,0.001000
1030.153846,0.011451,0.001000,0.001000,0.001000,0.001000,0.001000
1030.173077,0.012852,0.001000,0.001000,0.001000,0.001000,0.001000
1030.192308,0.014242,0.001000,0.001000,0.001000,0.001000,0.001000
1030.211538,0.015620,0.001000,0.001000,0.001000,0.001000,0.001000
1030.230769,0.016986,0.001000,0.001000,0.001000,0.001000,0.001000
1030.250000,0.018337,0.001000,0.001000,0.001000,0.001000,0.001000
1030.269231,0.019672,0.001000,0.001000,0.001000,0.001000,0.001000
1030.288462,0.020992,0.001000,0.001000,0.001000,0.001000,0.001000
1030.307692,0.022294,0.001000,0.001000,0.001000,0.001000,0.001000
1030.326923,0.023577,0.001000,0.001000,0.001000,0.001000,0.001000
1030.346154,0.024840,0.001000,0.001000,0.001000,0.001000,0.001000
1030.365385,0.026083,0.001000,0.001000,0.001000,0.001000,0.001000
1030.384615,0.027304,0.001000,0.001000,0.001000,0.001000,0.001000
1030.403846,0.028503,0.001000,0.001000,0.001000,0.001000,0.001000
1030.423077,0.029677,0.001000,0.001000,0.001000,0.001000,0.001000
1030.442308,0.030827,0.001000,0.001000,0.001000,0.001000,0.001000
1030.461538,0.031951,0.001000,0.001000,0.001000,0.001000,0.001000
1030.480769,0.033048,0.001000,0.001000,0.001000,0.001000,0.001000
1030.500000,0.034118,0.001000,0.001000,0.001000,0.001000,0.001000
1030.519231,0.035160,0.001000,0.001000,0.001000,0.001000,0.001000
1030.538462,0.036172,0.001000,0.001000,0.001000,0.001000,0.001000
1030.557692,0.037154,0.001000,0.001000,0.001000,0.001000,0.001000
1030.576923,0.038104,0.001000,0.001000,0.001000,0.001000,0.001000
1030.596154,0.039023,0.001000,0.001000,0.001000,0.001000,0.001000
1030.615385,0.039910,0.001000,0.001000,0.001000,0.001000,0.001000
1030.634615,0.040763,0.001000,0.001000,0.001000,0.001000,0.001000
1030.653846,0.041582,0.001000,0.001000,0.001000,0.001000,0.001000
1030.673077,0.042367,0.001000,0.001000,0.001000,0.001000,0.001000
1030.692308,0.043116,0.001000,0.001000,0.001000,0.001000,0.001000
1030.711538,0.043829,0.001000,0.001000,0.001000,0.001000,0.001000
1030.730769,0.044506,0.001000,0.001000,0.001000,0.001000,0.001000
1030.750000,0.045145,0.001000,0.001000,0.001000,0.001000,0.001000
1030.769231,0.045747,0.001000,0.001000,0.001000,0.001000,0.001000
1030.788462,0.046311,0.001000,0.001000,0.001000,0.001000,0.001000
1030.807692,0.046836,0.001000,0.001000,0.001000,0.001000,0.001000
1030.826923,0.047322,0.001000,0.001000,0.001000,0.001000,0.001000
1030.846154,0.047769,0.001000,0.001000,0.001000,0.001000,0.001000
1030.865385,0.048175,0.001000,0.001000,0.001000,0.001000,0.001000
1030.884615,0.048542,0.001000,0.001000,0.001000,0.001000,0.001000
1030.903846,0.048868,0.001000,0.001000,0.001000,0.001000,0.001000
1030.923077,0.049153,0.001000,0.001000,0.001000,0.001000,0.001000
1030.942308,0.049397,0.001000,0.001000,0.001000,0.001000,0.001000
1030.961538,0.049600,0.001000,0.001000,0.001000,0.001000,0.001000
1030.980769,0.049762,0.001000,0.001000,0.001000,0.001000,0.001000
1031.000000,0.049882,0.001000,0.001000,0.001000,0.001000,0.001000
1031.019231,0.049960,0.001000,0.001000,0.001000,0.001000,0.001000
1031.038462,0.049997,0.001000,0.001000,0.001000,0.001000,0.001000
1031.057692,0.049992,0.001000,0.001000,0.001000,0.001000,0.001000
1031.076923,0.049945,0.001000,0.001000,0.001000,0.001000,0.001000
1031.096154,0.049857,0.001000,0.001000,0.001000,0.001000,0.001000
1031.115385,0.049727,0.001000,0.001000,0.001000,0.001000,0.001000
1031.134615,0.049556,0.001000,0.001000,0.001000,0.001000,0.001000
1031.153846,0.049343,0.001000,0.001000,0.001000,0.001000,0.001000
1031.173077,0.049089,0.001000,0.001000,0.001000,0.001000,0.001000
1031.192308,0.048794,0.001000,0.001000,0.001000,0.001000,0.001000
1031.211538,0.048459,0.001000,0.001000,0.001000,0.001000,0.001000
1031.230769,0.048083,0.001000,0.001000,0.001000,0.001000,0.001000
1031.250000,0.047667,0.001000,0.001000,0.001000,0.001000,0.001000
1031.269231,0.047211,0.001000,0.001000,0.001000,0.001000,0.001000
1031.288462,0.046716,0.001000,0.001000,0.001000,0.001000,0.001000
1031.307692,0.046182,0.001000,0.001000,0.001000,0.001000,0.001000
1031.326923,0.045609,0.001000,0.001000,0.001000,0.001000,0.001000
1031.346154,0.044998,0.001000,0.001000,0.001000,0.001000,0.001000
1031.365385,0.044350,0.001000,0.001000,0.001000,0.001000,0.001000
1031.384615,0.043665,0.001000,0.001000,0.001000,0.001000,0.001000
1031.403846,0.042943,0.001000,0.001000,0.001000,0.001000,0.001000
1031.423077,0.042185,0.001000,0.001000,0.001000,0.001000,0.001000
1031.442308,0.041393,0.001000,0.001000,0.001000,0.001000,0.001000
1031.461538,0.040565,0.001000,0.001000,0.001000,0.001000,0.001000
1031.480769,0.039704,0.001000,0.001000,0.001000,0.001000,0.001000
1031.500000,0.038810,0.001000,0.001000,0.001000,0.001000,0.001000
1031.519231,0.037883,0.001000,0.001000,0.001000,0.001000,0.001000
1031.538462,0.036925,0.001000,0.001000,0.001000,0.001000,0.001000
1031.557692,0.035936,0.001000,0.001000,0.001000,0.001000,0.001000
1031.576923,0.034917,0.001000,0.001000,0.001000,0.001000,0.001000
1031.596154,0.033869,0.001000,0.001000,0.001000,0.001000,0.001000
1031.615385,0.032792,0.001000,0.001000,0.001000,0.001000,0.001000
1031.634615,0.031689,0.001000,0.001000,0.001000,0.001000,0.001000
1031.653846,0.030558,0.001000,0.001000,0.001000,0.001000,0.001000
1031.673077,0.029403,0.001000,0.001000,0.001000,0.001000,0.001000
1031.692308,0.028223,0.001000,0.001000,0.001000,0.001000,0.001000
1031.711538,0.027019,0.001000,0.001000,0.001000,0.001000,0.001000
1031.730769,0.025792,0.001000,0.001000,0.001000,0.001000,0.001000
1031.750000,0.024545,0.001000,0.001000,0.001000,0.001000,0.001000
1031.769231,0.023276,0.001000,0.001000,0.001000,0.001000,0.001000
1031.788462,0.021989,0.001000,0.001000,0.001000,0.001000,0.001000
1031.807692,0.020683,0.001000,0.001000,0.001000,0.001000,0.001000
1031.826923,0.019359,0.001000,0.001000,0.001000,0.001000,0.001000
1031.846154,0.018020,0.001000,0.001000,0.001000,0.001000,0.001000
1031.865385,0.016665,0.001000,0.001000,0.001000,0.001000,0.001000
1031.884615,0.015297,0.001000,0.001000,0.001000,0.001000,0.001000
1031.903846,0.013916,0.001000,0.001000,0.001000,0.001000,0.001000
1031.923077,0.012523,0.001000,0.001000,0.001000,0.001000,0.001000
1031.942308,0.011120,0.001000,0.001000,0.001000,0.001000,0.001000
1031.961538,0.009707,0.001000,0.001000,0.001000,0.001000,0.001000
1031.980769,0.008287,0.001000,0.001000,0.001000,0.001000,0.001000
1032.000000,0.006859,0.001000,0.001000,0.001000,0.001000,0.001000
1032.019231,0.005426,0.001000,0.001000,0.001000,0.001000,0.001000
1032.038462,0.003988,0.001000,0.001000,0.001000,0.001000,0.001000
1032.057692,0.002547,0.001000,0.001000,0.001000,0.001000,0.001000
1032.076923,0.001104,0.001000,0.001000,0.001000,0.001000,0.001000
1032.096154,-0.000340,0.001000,0.001000,0.001000,0.001000,0.001000
1032.115385,-0.001784,0.001000,0.001000,0.001000,0.001000,0.001000
1032.134615,-0.003226,0.001000,0.001000,0.001000,0.001000,0.001000
1032.153846,-0.004666,0.001000,0.001000,0.001000,0.001000,0.001000
1032.173077,-0.006102,0.001000,0.001000,0.001000,0.001000,0.001000
1032.192308,-0.007533,0.001000,0.001000,0.001000,0.001000,0.001000
1032.211538,-0.008957,0.001000,0.001000,0.001000,0.001000,0.001000
1032.230769,-0.010374,0.001000,0.001000,0.001000,0.001000,0.001000
1032.250000,-0.011782,0.001000,0.001000,0.001000,0.001000,0.001000
1032.269231,-0.013181,0.001000,0.001000,0.001000,0.001000,0.001000
1032.288462,-0.014568,0.001000,0.001000,0.001000,0.001000,0.001000
1032.307692,-0.015943,0.001000,0.001000,0.001000,0.001000,0.001000
1032.326923,-0.017305,0.001000,0.001000,0.001000,0.001000,0.001000
1032.346154,-0.018653,0.001000,0.001000,0.001000,0.001000,0.001000
1032.365385,-0.019985,0.001000,0.001000,0.001000,0.001000,0.001000
1032.384615,-0.021300,0.001000,0.001000,0.001000,0.001000,0.001000
1032.403846,-0.022598,0.001000,0.001000,0.001000,0.001000,0.001000
1032.423077,-0.023876,0.001000,0.001000,0.001000,0.001000,0.001000
1032.442308,-0.025135,0.001000,0.001000,0.001000,0.001000,0.001000
1032.461538,-0.026373,0.001000,0.001000,0.001000,0.001000,0.001000
1032.480769,-0.027589,0.001000,0.001000,0.001000,0.001000,0.001000
1032.500000,-0.028782,0.001000,0.001000,0.001000,0.001000,0.001000
1032.519231,-0.029950,0.001000,0.001000,0.001000,0.001000,0.001000
1032.538462,-0.031094,0.001000,0.001000,0.001000,0.001000,0.001000
1032.557692,-0.032212,0.001000,0.001000,0.001000,0.001000,0.001000
1032.576923,-0.033303,0.001000,0.001000,0.001000,0.001000,0.001000
1032.596154,-0.034366,0.001000,0.001000,0.001000,0.001000,0.001000
1032.615385,-0.035401,0.001000,0.001000,0.001000,0.001000,0.001000
1032.634615,-0.036406,0.001000,0.001000,0.001000,0.001000,0.001000
1032.653846,-0.037380,0.001000,0.001000,0.001000,0.001000,0.001000
1032.673077,-0.038324,0.001000,0.001000,0.001000,0.001000,0.001000
1032.692308,-0.039235,0.001000,0.001000,0.001000,0.001000,0.001000
1032.711538,-0.040114,0.001000,0.001000,0.001000,0.001000,0.001000
1032.730769,-0.040959,0.001000,0.001000,0.001000,0.001000,0.001000
1032.750000,-0.041770,0.001000,0.001000,0.001000,0.001000,0.001000
1032.769231,-0.042547,0.001000,0.001000,0.001000,0.001000,0.001000
1032.788462,-0.043287,0.001000,0.001000,0.001000,0.001000,0.001000
1032.807692,-0.043992,0.001000,0.001000,0.001000,0.001000,0.001000
1032.826923,-0.044660,0.001000,0.001000,0.001000,0.001000,0.001000
1032.846154,-0.045291,0.001000,0.001000,0.001000,0.001000,0.001000
1032.865385,-0.045884,0.001000,0.001000,0.001000,0.001000,0.001000
1032.884615,-0.046438,0.001000,0.001000,0.001000,0.001000,0.001000
1032.903846,-0.046954,0.001000,0.001000,0.001000,0.001000,0.001000
1032.923077,-0.047431,0.001000,0.001000,0.001000,0.001000,0.001000
1032.942308,-0.047868,0.001000,0.001000,0.001000,0.001000,0.001000
1032.961538,-0.048265,0.001000,0.001000,0.001000,0.001000,0.001000
1032.980769,-0.048622,0.001000,0.001000,0.001000,0.001000,0.001000
1033.000000,-0.048938,0.001000,0.001000,0.001000,0.001000,0.001000
1033.019231,-0.049214,0.001000,0.001000,0.001000,0.001000,0.001000
1033.038462,-0.049449,0.001000,0.001000,0.001000,0.001000,0.001000
1033.057692,-0.049642,0.001000,0.001000,0.001000,0.001000,0.001000
1033.076923,-0.049794,0.001000,0.001000,0.001000,0.001000,0.001000
1033.096154,-0.049904,0.001000,0.001000,0.001000,0.001000,0.001000
1033.115385,-0.049973,0.001000,0.001000,0.001000,0.001000,0.001000
1033.134615,-0.050000,0.001000,0.001000,0.001000,0.001000,0.001000
1033.153846,-0.049985,0.001000,0.001000,0.001000,0.001000,0.001000
1033.173077,-0.049928,0.001000,0.001000,0.001000,0.001000,0.001000
1033.192308,-0.049830,0.001000,0.001000,0.001000,0.001000,0.001000
1033.211538,-0.049691,0.001000,0.001000,0.001000,0.001000,0.001000
1033.230769,-0.049510,0.001000,0.001000,0.001000,0.001000,0.001000
1033.250000,-0.049287,0.001000,0.001000,0.001000,0.001000,0.001000
1033.269231,-0.049024,0.001000,0.001000,0.001000,0.001000,0.001000
1033.288462,-0.048719,0.001000,0.001000,0.001000,0.001000,0.001000
1033.307692,-0.048374,0.001000,0.001000,0.001000,0.001000,0.001000
1033.326923,-0.047989,0.001000,0.001000,0.001000,0.001000,0.001000
1033.346154,-0.047563,0.001000,0.001000,0.001000,0.001000,0.001000
1033.365385,-0.047098,0.001000,0.001000,0.001000,0.001000,0.001000
1033.384615,-0.046594,0.001000,0.001000,0.001000,0.001000,0.001000
1033.403846,-0.046050,0.001000,0.001000,0.001000,0.001000,0.001000
1033.423077,-0.045468,0.001000,0.001000,0.001000,0.001000,0.001000
1033.442308,-0.044849,0.001000,0.001000,0.001000,0.001000,0.001000
1033.461538,-0.044192,0.001000,0.001000,0.001000,0.001000,0.001000
1033.480769,-0.043498,0.001000,0.001000,0.001000,0.001000,0.001000
1033.500000,-0.042768,0.001000,0.001000,0.001000,0.001000,0.001000
1033.519231,-0.042002,0.001000,0.001000,0.001000,0.001000,0.001000
1033.538462,-0.041201,0.001000,0.001000,0.001000,0.001000,0.001000
1033.557692,-0.040365,0.001000,0.001000,0.001000,0.001000,0.001000
1033.576923,-0.039496,0.001000,0.001000,0.001000,0.001000,0.001000
1033.596154,-0.038594,0.001000,0.001000,0.001000,0.001000,0.001000
1033.615385,-0.037660,0.001000,0.001000,0.001000,0.001000,0.001000
1033.634615,-0.036695,0.001000,0.001000,0.001000,0.001000,0.001000
1033.653846,-0.035699,0.001000,0.001000,0.001000,0.001000,0.001000
1033.673077,-0.034673,0.001000,0.001000,0.001000,0.001000,0.001000
1033.692308,-0.033618,0.001000,0.001000,0.001000,0.001000,0.001000
1033.711538,-0.032535,0.001000,0.001000,0.001000,0.001000,0.001000
1033.730769,-0.031425,0.001000,0.001000,0.001000,0.001000,0.001000
1033.750000,-0.030288,0.001000,0.001000,0.001000,0.001000,0.001000
1033.769231,-0.029127,0.001000,0.001000,0.001000,0.001000,0.001000
1033.788462,-0.027941,0.001000,0.001000,0.001000,0.001000,0.001000
1033.807692,-0.026732,0.001000,0.001000,0.001000,0.001000,0.001000
1033.826923,-0.025500,0.001000,0.001000,0.001000,0.001000,0.001000
1033.846154,-0.024248,0.001000,0.001000,0.001000,0.001000,0.001000
1033.865385,-0.022975,0.001000,0.001000,0.001000,0.001000,0.001000
1033.884615,-0.021683,0.001000,0.001000,0.001000,0.001000,0.001000
1033.903846,-0.020372,0.001000,0.001000,0.001000,0.001000,0.001000
1033.923077,-0.019045,0.001000,0.001000,0.001000,0.001000,0.001000
1033.942308,-0.017702,0.001000,0.001000,0.001000,0.001000,0.001000
1033.961538,-0.016344,0.001000,0.001000,0.001000,0.001000,0.001000
1033.980769,-0.014973,0.001000,0.001000,0.001000,0.001000,0.001000
1034.000000,-0.013589,0.001000,0.001000,0.001000,0.001000,0.001000
1034.019231,-0.012193,0.001000,0.001000,0.001000,0.001000,0.001000
1034.038462,-0.010788,0.001000,0.001000,0.001000,0.001000,0.001000
1034.057692,-0.009373,0.001000,0.001000,0.001000,0.001000,0.001000
1034.076923,-0.007951,0.001000,0.001000,0.001000,0.001000,0.001000
1034.096154,-0.006522,0.001000,0.001000,0.001000,0.001000,0.001000
1034.115385,-0.005088,0.001000,0.001000,0.001000,0.001000,0.001000
1034.134615,-0.003649,0.001000,0.001000,0.001000,0.001000,0.001000
1034.153846,-0.002207,0.001000,0.001000,0.001000,0.001000,0.001000
1034.173077,-0.000764,0.001000,0.001000,0.001000,0.001000,0.001000
1034.192308,0.000680,0.001000,0.001000,0.001000,0.001000,0.001000
1034.211538,0.002124,0.001000,0.001000,0.001000,0.001000,0.001000
1034.230769,0.003566,0.001000,0.001000,0.001000,0.001000,0.001000
1034.250000,0.005005,0.001000,0.001000,0.001000,0.001000,0.001000
1034.269231,0.006439,0.001000,0.001000,0.001000,0.001000,0.001000
1034.288462,0.007869,0.001000,0.001000,0.001000,0.001000,0.001000
1034.307692,0.009291,0.001000,0.001000,0.001000,0.001000,0.001000
1034.326923,0.010706,0.001000,0.001000,0.001000,0.001000,0.001000
1034.346154,0.012112,0.001000,0.001000,0.001000,0.001000,0.001000
1034.365385,0.013508,0.001000,0.001000,0.001000,0.001000,0.001000
1034.384615,0.014893,0.001000,0.001000,0.001000,0.001000,0.001000
1034.403846,0.016265,0.001000,0.001000,0.001000,0.001000,0.001000
1034.423077,0.017624,0.001000,0.001000,0.001000,0.001000,0.001000
1034.442308,0.018968,0.001000,0.001000,0.001000,0.001000,0.001000
1034.461538,0.020296,0.001000,0.001000,0.001000,0.001000,0.001000
1034.480769,0.021607,0.001000,0.001000,0.001000,0.001000,0.001000
1034.500000,0.022901,0.001000,0.001000,0.001000,0.001000,0.001000
1034.519231,0.024175,0.001000,0.001000,0.001000,0.001000,0.001000
1034.538462,0.025429,0.001000,0.001000,0.001000,0.001000,0.001000
1034.557692,0.026661,0.001000,0.001000,0.001000,0.001000,0.001000
1034.576923,0.027872,0.001000,0.001000,0.001000,0.001000,0.001000
1034.596154,0.029059,0.001000,0.001000,0.001000,0.001000,0.001000
1034.615385,0.030222,0.001000,0.001000,0.001000,0.001000,0.001000
1034.634615,0.031360,0.001000,0.001000,0.001000,0.001000,0.001000
1034.653846,0.032471,0.001000,0.001000,0.001000,0.001000,0.001000
1034.673077,0.033556,0.001000,0.001000,0.001000,0.001000,0.001000
