timestamp,ax,ay,az,gx,gy,gz
1000.000000,0.000000,0.001000,0.001000,0.001000,0.001000,0.001000
1000.019231,0.001206,0.001000,0.001000,0.001000,0.001000,0.001000
1000.038462,0.002412,0.001000,0.001000,0.001000,0.001000,0.001000
1000.057692,0.003616,0.001000,0.001000,0.001000,0.001000,0.001000
1000.076923,0.004818,0.001000,0.001000,0.001000,0.001000,0.001000
1000.096154,0.006017,0.001000,0.001000,0.001000,0.001000,0.001000
1000.115385,0.007212,0.001000,0.001000,0.001000,0.001000,0.001000
1000.134615,0.008404,0.001000,0.001000,0.001000,0.001000,0.001000
1000.153846,0.009590,0.001000,0.001000,0.001000,0.001000,0.001000
1000.173077,0.010771,0.001000,0.001000,0.001000,0.001000,0.001000
1000.192308,0.011946,0.001000,0.001000,0.001000,0.001000,0.001000
1000.211538,0.013114,0.001000,0.001000,0.001000,0.001000,0.001000
1000.230769,0.014274,0.001000,0.001000,0.001000,0.001000,0.001000
1000.250000,0.015426,0.001000,0.001000,0.001000,0.001000,0.001000
1000.269231,0.016569,0.001000,0.001000,0.001000,0.001000,0.001000
1000.288462,0.017702,0.001000,0.001000,0.001000,0.001000,0.001000
1000.307692,0.018825,0.001000,0.001000,0.001000,0.001000,0.001000
1000.326923,0.019936,0.001000,0.001000,0.001000,0.001000,0.001000
1000.346154,0.021037,0.001000,0.001000,0.001000,0.001000,0.001000
1000.365385,0.022125,0.001000,0.001000,0.001000,0.001000,0.001000
1000.384615,0.023200,0.001000,0.001000,0.001000,0.001000,0.001000
1000.403846,0.024262,0.001000,0.001000,0.001000,0.001000,0.001000
1000.423077,0.025309,0.001000,0.001000,0.001000,0.001000,0.001000
1000.442308,0.026342,0.001000,0.001000,0.001000,0.001000,0.001000
1000.461538,0.027360,0.001000,0.001000,0.001000,0.001000,0.001000
1000.480769,0.028361,0.001000,0.001000,0.001000,0.001000,0.001000
1000.500000,0.029346,0.001000,0.001000,0.001000,0.001000,0.001000
1000.519231,0.030314,0.001000,0.001000,0.001000,0.001000,0.001000
1000.538462,0.031265,0.001000,0.001000,0.001000,0.001000,0.001000
1000.557692,0.032197,0.001000,0.001000,0.001000,0.001000,0.001000
1000.576923,0.033110,0.001000,0.001000,0.001000,0.001000,0.001000
1000.596154,0.034005,0.001000,0.001000,0.001000,0.001000,0.001000
1000.615385,0.034879,0.001000,0.001000,0.001000,0.001000,0.001000
1000.634615,0.035733,0.001000,0.001000,0.001000,0.001000,0.001000
1000.653846,0.036566,0.001000,0.001000,0.001000,0.001000,0.001000
1000.673077,0.037378,0.001000,0.001000,0.001000,0.001000,0.001000
1000.692308,0.038168,0.001000,0.001000,0.001000,0.001000,0.001000
1000.711538,0.038937,0.001000,0.001000,0.001000,0.001000,0.001000
1000.730769,0.039682,0.001000,0.001000,0.001000,0.001000,0.001000
1000.750000,0.040404,0.001000,0.001000,0.001000,0.001000,0.001000
1000.769231,0.041103,0.001000,0.001000,0.001000,0.001000,0.001000
1000.788462,0.041778,0.001000,0.001000,0.001000,0.001000,0.001000
1000.807692,0.042428,0.001000,0.001000,0.001000,0.001000,0.001000
1000.826923,0.043054,0.001000,0.001000,0.001000,0.001000,0.001000
1000.846154,0.043655,0.001000,0.001000,0.001000,0.001000,0.001000
1000.865385,0.044230,0.001000,0.001000,0.001000,0.001000,0.001000
1000.884615,0.044780,0.001000,0.001000,0.001000,0.001000,0.001000
1000.903846,0.045303,0.001000,0.001000,0.001000,0.001000,0.001000
1000.923077,0.045800,0.001000,0.001000,0.001000,0.001000,0.001000
1000.942308,0.046271,0.001000,0.001000,0.001000,0.001000,0.001000
1000.961538,0.046715,0.001000,0.001000,0.001000,0.001000,0.001000
1000.980769,0.047131,0.001000,0.001000,0.001000,0.001000,0.001000
1001.000000,0.047520,0.001000,0.001000,0.001000,0.001000,0.001000
1001.019231,0.047881,0.001000,0.001000,0.001000,0.001000,0.001000
1001.038462,0.048215,0.001000,0.001000,0.001000,0.001000,0.001000
1001.057692,0.048520,0.001000,0.001000,0.001000,0.001000,0.001000
1001.076923,0.048797,0.001000,0.001000,0.001000,0.001000,0.001000
1001.096154,0.049046,0.001000,0.001000,0.001000,0.001000,0.001000
1001.115385,0.049266,0.001000,0.001000,0.001000,0.001000,0.001000
1001.134615,0.049458,0.001000,0.001000,0.001000,0.001000,0.001000
1001.153846,0.049621,0.001000,0.001000,0.001000,0.001000,0.001000
1001.173077,0.049754,0.001000,0.001000,0.001000,0.001000,0.001000
1001.192308,0.049859,0.001000,0.001000,0.001000,0.001000,0.001000
1001.211538,0.049935,0.001000,0.001000,0.001000,0.001000,0.001000
1001.230769,0.049982,0.001000,0.001000,0.001000,0.001000,0.001000
1001.250000,0.050000,0.001000,0.001000,0.001000,0.001000,0.001000
1001.269231,0.049988,0.001000,0.001000,0.001000,0.001000,0.001000
1001.288462,0.049948,0.001000,0.001000,0.001000,0.001000,0.001000
1001.307692,0.049878,0.001000,0.001000,0.001000,0.001000,0.001000
1001.326923,0.049780,0.001000,0.001000,0.001000,0.001000,0.001000
1001.346154,0.049652,0.001000,0.001000,0.001000,0.001000,0.001000
1001.365385,0.049496,0.001000,0.001000,0.001000,0.001000,0.001000
1001.384615,0.049311,0.001000,0.001000,0.001000,0.001000,0.001000
1001.403846,0.049097,0.001000,0.001000,0.001000,0.001000,0.001000
1001.423077,0.048854,0.001000,0.001000,0.001000,0.001000,0.001000
1001.442308,0.048583,0.001000,0.001000,0.001000,0.001000,0.001000
1001.461538,0.048284,0.001000,0.001000,0.001000,0.001000,0.001000
1001.480769,0.047957,0.001000,0.001000,0.001000,0.001000,0.001000
1001.500000,0.047602,0.001000,0.001000,0.001000,0.001000,0.001000
1001.519231,0.047219,0.001000,0.001000,0.001000,0.001000,0.001000
1001.538462,0.046808,0.001000,0.001000,0.001000,0.001000,0.001000
1001.557692,0.046371,0.001000,0.001000,0.001000,0.001000,0.001000
1001.576923,0.045906,0.001000,0.001000,0.001000,0.001000,0.001000
1001.596154,0.045415,0.001000,0.001000,0.001000,0.001000,0.001000
1001.615385,0.044897,0.001000,0.001000,0.001000,0.001000,0.001000
1001.634615,0.044353,0.001000,0.001000,0.001000,0.001000,0.001000
1001.653846,0.043783,0.001000,0.001000,0.001000,0.001000,0.001000
1001.673077,0.043188,0.001000,0.001000,0.001000,0.001000,0.001000
1001.692308,0.042568,0.001000,0.001000,0.001000,0.001000,0.001000
1001.711538,0.041923,0.001000,0.001000,0.001000,0.001000,0.001000
1001.730769,0.041253,0.001000,0.001000,0.001000,0.001000,0.001000
1001.750000,0.040559,0.001000,0.001000,0.001000,0.001000,0.001000
1001.769231,0.039842,0.001000,0.001000,0.001000,0.001000,0.001000
1001.788462,0.039102,0.001000,0.001000,0.001000,0.001000,0.001000
1001.807692,0.038339,0.001000,0.001000,0.001000,0.001000,0.001000
1001.826923,0.037554,0.001000,0.001000,0.001000,0.001000,0.001000
1001.846154,0.036746,0.001000,0.001000,0.001000,0.001000,0.001000
1001.865385,0.035918,0.001000,0.001000,0.001000,0.001000,0.001000
1001.884615,0.035068,0.001000,0.001000,0.001000,0.001000,0.001000
1001.903846,0.034198,0.001000,0.001000,0.001000,0.001000,0.001000
1001.923077,0.033308,0.001000,0.001000,0.001000,0.001000,0.001000
1001.942308,0.032399,0.001000,0.001000,0.001000,0.001000,0.001000
1001.961538,0.031471,0.001000,0.001000,0.001000,0.001000,0.001000
1001.980769,0.030524,0.001000,0.001000,0.001000,0.001000,0.001000
1002.000000,0.029560,0.001000,0.001000,0.001000,0.001000,0.001000
1002.019231,0.028579,0.001000,0.001000,0.001000,0.001000,0.001000
1002.038462,0.027581,0.001000,0.001000,0.001000,0.001000,0.001000
1002.057692,0.026567,0.001000,0.001000,0.001000,0.001000,0.001000
1002.076923,0.025537,0.001000,0.001000,0.001000,0.001000,0.001000
1002.096154,0.024493,0.001000,0.001000,0.001000,0.001000,0.001000
1002.115385,0.023434,0.001000,0.001000,0.001000,0.001000,0.001000
1002.134615,0.022362,0.001000,0.001000,0.001000,0.001000,0.001000
1002.153846,0.021277,0.001000,0.001000,0.001000,0.001000,0.001000
1002.173077,0.020179,0.001000,0.001000,0.001000,0.001000,0.001000
1002.192308,0.019069,0.001000,0.001000,0.001000,0.001000,0.001000
1002.211538,0.017949,0.001000,0.001000,0.001000,0.001000,0.001000
1002.230769,0.016818,0.001000,0.001000,0.001000,0.001000,0.001000
1002.250000,0.015677,0.001000,0.001000,0.001000,0.001000,0.001000
1002.269231,0.014527,0.001000,0.001000,0.001000,0.001000,0.001000
1002.288462,0.013369,0.001000,0.001000,0.001000,0.001000,0.001000
1002.307692,0.012203,0.001000,0.001000,0.001000,0.001000,0.001000
1002.326923,0.011030,0.001000,0.001000,0.001000,0.001000,0.001000
1002.346154,0.009850,0.001000,0.001000,0.001000,0.001000,0.001000
1002.365385,0.008665,0.001000,0.001000,0.001000,0.001000,0.001000
1002.384615,0.007474,0.001000,0.001000,0.001000,0.001000,0.001000
1002.403846,0.006279,0.001000,0.001000,0.001000,0.001000,0.001000
1002.423077,0.005081,0.001000,0.001000,0.001000,0.001000,0.001000
1002.442308,0.003880,0.001000,0.001000,0.001000,0.001000,0.001000
1002.461538,0.002676,0.001000,0.001000,0.001000,0.001000,0.001000
1002.480769,0.001471,0.001000,0.001000,0.001000,0.001000,0.001000
1002.500000,0.000265,0.001000,0.001000,0.001000,0.001000,0.001000
1002.519231,-0.000942,0.001000,0.001000,0.001000,0.001000,0.001000
1002.538462,-0.002147,0.001000,0.001000,0.001000,0.001000,0.001000
1002.557692,-0.003352,0.001000,0.001000,0.001000,0.001000,0.001000
1002.576923,-0.004554,0.001000,0.001000,0.001000,0.001000,0.001000
1002.596154,-0.005754,0.001000,0.001000,0.001000,0.001000,0.001000
1002.615385,-0.006950,0.001000,0.001000,0.001000,0.001000,0.001000
1002.634615,-0.008143,0.001000,0.001000,0.001000,0.001000,0.001000
1002.653846,-0.009330,0.001000,0.001000,0.001000,0.001000,0.001000
1002.673077,-0.010513,0.001000,0.001000,0.001000,0.001000,0.001000
1002.692308,-0.011689,0.001000,0.001000,0.001000,0.001000,0.001000
1002.711538,-0.012858,0.001000,0.001000,0.001000,0.001000,0.001000
1002.730769,-0.014020,0.001000,0.001000,0.001000,0.001000,0.001000
1002.750000,-0.015174,0.001000,0.001000,0.001000,0.001000,0.001000
1002.769231,-0.016319,0.001000,0.001000,0.001000,0.001000,0.001000
1002.788462,-0.017454,0.001000,0.001000,0.001000,0.001000,0.001000
1002.807692,-0.018579,0.001000,0.001000,0.001000,0.001000,0.001000
1002.826923,-0.019694,0.001000,0.001000,0.001000,0.001000,0.001000
1002.846154,-0.020796,0.001000,0.001000,0.001000,0.001000,0.001000
1002.865385,-0.021887,0.001000,0.001000,0.001000,0.001000,0.001000
1002.884615,-0.022965,0.001000,0.001000,0.001000,0.001000,0.001000
1002.903846,-0.024030,0.001000,0.001000,0.001000,0.001000,0.001000
1002.923077,-0.025081,0.001000,0.001000,0.001000,0.001000,0.001000
1002.942308,-0.026117,0.001000,0.001000,0.001000,0.001000,0.001000
1002.961538,-0.027138,0.001000,0.001000,0.001000,0.001000,0.001000
1002.980769,-0.028143,0.001000,0.001000,0.001000,0.001000,0.001000
1003.000000,-0.029132,0.001000,0.001000,0.001000,0.001000,0.001000
1003.019231,-0.030104,0.001000,0.001000,0.001000,0.001000,0.001000
1003.038462,-0.031058,0.001000,0.001000,0.001000,0.001000,0.001000
1003.057692,-0.031994,0.001000,0.001000,0.001000,0.001000,0.001000
1003.076923,-0.032912,0.001000,0.001000,0.001000,0.001000,0.001000
1003.096154,-0.033810,0.001000,0.001000,0.001000,0.001000,0.001000
1003.115385,-0.034689,0.001000,0.001000,0.001000,0.001000,0.001000
1003.134615,-0.035547,0.001000,0.001000,0.001000,0.001000,0.001000
1003.153846,-0.036385,0.001000,0.001000,0.001000,0.001000,0.001000
1003.173077,-0.037202,0.001000,0.001000,0.001000,0.001000,0.001000
1003.192308,-0.037997,0.001000,0.001000,0.001000,0.001000,0.001000
1003.211538,-0.038770,0.001000,0.001000,0.001000,0.001000,0.001000
1003.230769,-0.039520,0.001000,0.001000,0.001000,0.001000,0.001000
1003.250000,-0.040248,0.001000,0.001000,0.001000,0.001000,0.001000
1003.269231,-0.040952,0.001000,0.001000,0.001000,0.001000,0.001000
1003.288462,-0.041632,0.001000,0.001000,0.001000,0.001000,0.001000
1003.307692,-0.042288,0.001000,0.001000,0.001000,0.001000,0.001000
1003.326923,-0.042919,0.001000,0.001000,0.001000,0.001000,0.001000
1003.346154,-0.043525,0.001000,0.001000,0.001000,0.001000,0.001000
1003.365385,-0.044106,0.001000,0.001000,0.001000,0.001000,0.001000
1003.384615,-0.044661,0.001000,0.001000,0.001000,0.001000,0.001000
1003.403846,-0.045191,0.001000,0.001000,0.001000,0.001000,0.001000
1003.423077,-0.045694,0.001000,0.001000,0.001000,0.001000,0.001000
1003.442308,-0.046170,0.001000,0.001000,0.001000,0.001000,0.001000
1003.461538,-0.046620,0.001000,0.001000,0.001000,0.001000,0.001000
1003.480769,-0.047042,0.001000,0.001000,0.001000,0.001000,0.001000
1003.500000,-0.047437,0.001000,0.001000,0.001000,0.001000,0.001000
1003.519231,-0.047804,0.001000,0.001000,0.001000,0.001000,0.001000
1003.538462,-0.048144,0.001000,0.001000,0.001000,0.001000,0.001000
1003.557692,-0.048456,0.001000,0.001000,0.001000,0.001000,0.001000
1003.576923,-0.048739,0.001000,0.001000,0.001000,0.001000,0.001000
1003.596154,-0.048994,0.001000,0.001000,0.001000,0.001000,0.001000
1003.615385,-0.049220,0.001000,0.001000,0.001000,0.001000,0.001000
1003.634615,-0.049418,0.001000,0.001000,0.001000,0.001000,0.001000
1003.653846,-0.049587,0.001000,0.001000,0.001000,0.001000,0.001000
1003.673077,-0.049728,0.001000,0.001000,0.001000,0.001000,0.001000
1003.692308,-0.049839,0.001000,0.001000,0.001000,0.001000,0.001000
1003.711538,-0.049921,0.001000,0.001000,0.001000,0.001000,0.001000
1003.730769,-0.049974,0.001000,0.001000,0.001000,0.001000,0.001000
1003.750000,-0.049998,0.001000,0.001000,0.001000,0.001000,0.001000
1003.769231,-0.049993,0.001000,0.001000,0.001000,0.001000,0.001000
1003.788462,-0.049959,0.001000,0.001000,0.001000,0.001000,0.001000
1003.807692,-0.049896,0.001000,0.001000,0.001000,0.001000,0.001000
1003.826923,-0.049804,0.001000,0.001000,0.001000,0.001000,0.001000
1003.846154,-0.049683,0.001000,0.001000,0.001000,0.001000,0.001000
1003.865385,-0.049533,0.001000,0.001000,0.001000,0.001000,0.001000
1003.884615,-0.049354,0.001000,0.001000,0.001000,0.001000,0.001000
1003.903846,-0.049146,0.001000,0.001000,0.001000,0.001000,0.001000
1003.923077,-0.048910,0.001000,0.001000,0.001000,0.001000,0.001000
1003.942308,-0.048645,0.001000,0.001000,0.001000,0.001000,0.001000
1003.961538,-0.048352,0.001000,0.001000,0.001000,0.001000,0.001000
1003.980769,-0.048031,0.001000,0.001000,0.001000,0.001000,0.001000
1004.000000,-0.047682,0.001000,0.001000,0.001000,0.001000,0.001000
1004.019231,-0.047305,0.001000,0.001000,0.001000,0.001000,0.001000
1004.038462,-0.046901,0.001000,0.001000,0.001000,0.001000,0.001000
1004.057692,-0.046469,0.001000,0.001000,0.001000,0.001000,0.001000
1004.076923,-0.046010,0.001000,0.001000,0.001000,0.001000,0.001000
1004.096154,-0.045525,0.001000,0.001000,0.001000,0.001000,0.001000
1004.115385,-0.045013,0.001000,0.001000,0.001000,0.001000,0.001000
1004.134615,-0.044475,0.001000,0.001000,0.001000,0.001000,0.001000
1004.153846,-0.043910,0.001000,0.001000,0.001000,0.001000,0.001000
1004.173077,-0.043321,0.001000,0.001000,0.001000,0.001000,0.001000
1004.192308,-0.042706,0.001000,0.001000,0.001000,0.001000,0.001000
1004.211538,-0.042066,0.001000,0.001000,0.001000,0.001000,0.001000
1004.230769,-0.041402,0.001000,0.001000,0.001000,0.001000,0.001000
1004.250000,-0.040714,0.001000,0.001000,0.001000,0.001000,0.001000
1004.269231,-0.040002,0.001000,0.001000,0.001000,0.001000,0.001000
1004.288462,-0.039266,0.001000,0.001000,0.001000,0.001000,0.001000
1004.307692,-0.038508,0.001000,0.001000,0.001000,0.001000,0.001000
1004.326923,-0.037728,0.001000,0.001000,0.001000,0.001000,0.001000
1004.346154,-0.036925,0.001000,0.001000,0.001000,0.001000,0.001000
1004.365385,-0.036101,0.001000,0.001000,0.001000,0.001000,0.001000
1004.384615,-0.035256,0.001000,0.001000,0.001000,0.001000,0.001000
1004.403846,-0.034391,0.001000,0.001000,0.001000,0.001000,0.001000
1004.423077,-0.033505,0.001000,0.001000,0.001000,0.001000,0.001000
1004.442308,-0.032600,0.001000,0.001000,0.001000,0.001000,0.001000
1004.461538,-0.031676,0.001000,0.001000,0.001000,0.001000,0.001000
1004.480769,-0.030734,0.001000,0.001000,0.001000,0.001000,0.001000
1004.500000,-0.029773,0.001000,0.001000,0.001000,0.001000,0.001000
1004.519231,-0.028796,0.001000,0.001000,0.001000,0.001000,0.001000
1004.538462,-0.027801,0.001000,0.001000,0.001000,0.001000,0.001000
1004.557692,-0.026791,0.001000,0.001000,0.001000,0.001000,0.001000
1004.576923,-0.025764,0.001000,0.001000,0.001000,0.001000,0.001000
1004.596154,-0.024723,0.001000,0.001000,0.001000,0.001000,0.001000
1004.615385,-0.023668,0.001000,0.001000,0.001000,0.001000,0.001000
1004.634615,-0.022598,0.001000,0.001000,0.001000,0.001000,0.001000
1004.653846,-0.021516,0.001000,0.001000,0.001000,0.001000,0.001000
1004.673077,-0.020421,0.001000,0.001000,0.001000,0.001000,0.001000
1004.692308,-0.019314,0.001000,0.001000,0.001000,0.001000,0.001000
1004.711538,-0.018196,0.001000,0.001000,0.001000,0.001000,0.001000
1004.730769,-0.017067,0.001000,0.001000,0.001000,0.001000,0.001000
1004.750000,-0.015928,0.001000,0.001000,0.001000,0.001000,0.001000
1004.769231,-0.014780,0.001000,0.001000,0.001000,0.001000,0.001000
1004.788462,-0.013624,0.001000,0.001000,0.001000,0.001000,0.001000
1004.807692,-0.012459,0.001000,0.001000,0.001000,0.001000,0.001000
1004.826923,-0.011288,0.001000,0.001000,0.001000,0.001000,0.001000
1004.846154,-0.010109,0.001000,0.001000,0.001000,0.001000,0.001000
1004.865385,-0.008925,0.001000,0.001000,0.001000,0.001000,0.001000
1004.884615,-0.007736,0.001000,0.001000,0.001000,0.001000,0.001000
1004.903846,-0.006542,0.001000,0.001000,0.001000,0.001000,0.001000
1004.923077,-0.005344,0.001000,0.001000,0.001000,0.001000,0.001000
1004.942308,-0.004143,0.001000,0.001000,0.001000,0.001000,0.001000
1004.961538,-0.002940,0.001000,0.001000,0.001000,0.001000,0.001000
1004.980769,-0.001735,0.001000,0.001000,0.001000,0.001000,0.001000
1005.000000,-0.000529,0.001000,0.001000,0.001000,0.001000,0.001000
1005.019231,0.000677,0.001000,0.001000,0.001000,0.001000,0.001000
1005.038462,0.001883,0.001000,0.001000,0.001000,0.001000,0.001000
1005.057692,0.003088,0.001000,0.001000,0.001000,0.001000,0.001000
1005.076923,0.004291,0.001000,0.001000,0.001000,0.001000,0.001000
1005.096154,0.005491,0.001000,0.001000,0.001000,0.001000,0.001000
1005.115385,0.006688,0.001000,0.001000,0.001000,0.001000,0.001000
1005.134615,0.007882,0.001000,0.001000,0.001000,0.001000,0.001000
1005.153846,0.009070,0.001000,0.001000,0.001000,0.001000,0.001000
1005.173077,0.010254,0.001000,0.001000,0.001000,0.001000,0.001000
1005.192308,0.011431,0.001000,0.001000,0.001000,0.001000,0.001000
1005.211538,0.012602,0.001000,0.001000,0.001000,0.001000,0.001000
1005.230769,0.013766,0.001000,0.001000,0.001000,0.001000,0.001000
1005.250000,0.014921,0.001000,0.001000,0.001000,0.001000,0.001000
1005.269231,0.016068,0.001000,0.001000,0.001000,0.001000,0.001000
1005.288462,0.017206,0.001000,0.001000,0.001000,0.001000,0.001000
1005.307692,0.018333,0.001000,0.001000,0.001000,0.001000,0.001000
1005.326923,0.019450,0.001000,0.001000,0.001000,0.001000,0.001000
1005.346154,0.020555,0.001000,0.001000,0.001000,0.001000,0.001000
1005.365385,0.021649,0.001000,0.001000,0.001000,0.001000,0.001000
1005.384615,0.022730,0.001000,0.001000,0.001000,0.001000,0.001000
1005.403846,0.023798,0.001000,0.001000,0.001000,0.001000,0.001000
1005.423077,0.024851,0.001000,0.001000,0.001000,0.001000,0.001000
1005.442308,0.025891,0.001000,0.001000,0.001000,0.001000,0.001000
1005.461538,0.026915,0.001000,0.001000,0.001000,0.001000,0.001000
1005.480769,0.027924,0.001000,0.001000,0.001000,0.001000,0.001000
1005.500000,0.028916,0.001000,0.001000,0.001000,0.001000,0.001000
1005.519231,0.029892,0.001000,0.001000,0.001000,0.001000,0.001000
1005.538462,0.030850,0.001000,0.001000,0.001000,0.001000,0.001000
1005.557692,0.031790,0.001000,0.001000,0.001000,0.001000,0.001000
1005.576923,0.032712,0.001000,0.001000,0.001000,0.001000,0.001000
1005.596154,0.033615,0.001000,0.001000,0.001000,0.001000,0.001000
1005.615385,0.034498,0.001000,0.001000,0.001000,0.001000,0.001000
1005.634615,0.035361,0.001000,0.001000,0.001000,0.001000,0.001000
1005.653846,0.036203,0.001000,0.001000,0.001000,0.001000,0.001000
1005.673077,0.037025,0.001000,0.001000,0.001000,0.001000,0.001000
1005.692308,0.037824,0.001000,0.001000,0.001000,0.001000,0.001000
1005.711538,0.038602,0.001000,0.001000,0.001000,0.001000,0.001000
1005.730769,0.039358,0.001000,0.001000,0.001000,0.001000,0.001000
1005.750000,0.040090,0.001000,0.001000,0.001000,0.001000,0.001000
1005.769231,0.040799,0.001000,0.001000,0.001000,0.001000,0.001000
1005.788462,0.041485,0.001000,0.001000,0.001000,0.001000,0.001000
1005.807692,0.042146,0.001000,0.001000,0.001000,0.001000,0.001000
1005.826923,0.042783,0.001000,0.001000,0.001000,0.001000,0.001000
1005.846154,0.043394,0.001000,0.001000,0.001000,0.001000,0.001000
1005.865385,0.043981,0.001000,0.001000,0.001000,0.001000,0.001000
1005.884615,0.044542,0.001000,0.001000,0.001000,0.001000,0.001000
1005.903846,0.045077,0.001000,0.001000,0.001000,0.001000,0.001000
1005.923077,0.045586,0.001000,0.001000,0.001000,0.001000,0.001000
1005.942308,0.046068,0.001000,0.001000,0.001000,0.001000,0.001000
1005.961538,0.046523,0.001000,0.001000,0.001000,0.001000,0.001000
1005.980769,0.046952,0.001000,0.001000,0.001000,0.001000,0.001000
1006.000000,0.047353,0.001000,0.001000,0.001000,0.001000,0.001000
1006.019231,0.047726,0.001000,0.001000,0.001000,0.001000,0.001000
1006.038462,0.048072,0.001000,0.001000,0.001000,0.001000,0.001000
1006.057692,0.048390,0.001000,0.001000,0.001000,0.001000,0.001000
1006.076923,0.048679,0.001000,0.001000,0.001000,0.001000,0.001000
1006.096154,0.048940,0.001000,0.001000,0.001000,0.001000,0.001000
1006.115385,0.049173,0.001000,0.001000,0.001000,0.001000,0.001000
1006.134615,0.049377,0.001000,0.001000,0.001000,0.001000,0.001000
1006.153846,0.049553,0.001000,0.001000,0.001000,0.001000,0.001000
1006.173077,0.049699,0.001000,0.001000,0.001000,0.001000,0.001000
1006.192308,0.049817,0.001000,0.001000,0.001000,0.001000,0.001000
1006.211538,0.049906,0.001000,0.001000,0.001000,0.001000,0.001000
1006.230769,0.049965,0.001000,0.001000,0.001000,0.001000,0.001000
1006.250000,0.049996,0.001000,0.001000,0.001000,0.001000,0.001000
1006.269231,0.049997,0.001000,0.001000,0.001000,0.001000,0.001000
1006.288462,0.049969,0.001000,0.001000,0.001000,0.001000,0.001000
1006.307692,0.049913,0.001000,0.001000,0.001000,0.001000,0.001000
1006.326923,0.049827,0.001000,0.001000,0.001000,0.001000,0.001000
1006.346154,0.049712,0.001000,0.001000,0.001000,0.001000,0.001000
1006.365385,0.049568,0.001000,0.001000,0.001000,0.001000,0.001000
1006.384615,0.049396,0.001000,0.001000,0.001000,0.001000,0.001000
1006.403846,0.049194,0.001000,0.001000,0.001000,0.001000,0.001000
1006.423077,0.048964,0.001000,0.001000,0.001000,0.001000,0.001000
1006.442308,0.048706,0.001000,0.001000,0.001000,0.001000,0.001000
1006.461538,0.048419,0.001000,0.001000,0.001000,0.001000,0.001000
1006.480769,0.048104,0.001000,0.001000,0.001000,0.001000,0.001000
1006.500000,0.047761,0.001000,0.001000,0.001000,0.001000,0.001000
1006.519231,0.047390,0.001000,0.001000,0.001000,0.001000,0.001000
1006.538462,0.046992,0.001000,0.001000,0.001000,0.001000,0.001000
1006.557692,0.046566,0.001000,0.001000,0.001000,0.001000,0.001000
1006.576923,0.046113,0.001000,0.001000,0.001000,0.001000,0.001000
1006.596154,0.045634,0.001000,0.001000,0.001000,0.001000,0.001000
1006.615385,0.045127,0.001000,0.001000,0.001000,0.001000,0.001000
1006.634615,0.044595,0.001000,0.001000,0.001000,0.001000,0.001000
1006.653846,0.044036,0.001000,0.001000,0.001000,0.001000,0.001000
1006.673077,0.043452,0.001000,0.001000,0.001000,0.001000,0.001000
1006.692308,0.042843,0.001000,0.001000,0.001000,0.001000,0.001000
1006.711538,0.042209,0.001000,0.001000,0.001000,0.001000,0.001000
1006.730769,0.041550,0.001000,0.001000,0.001000,0.001000,0.001000
1006.750000,0.040867,0.001000,0.001000,0.001000,0.001000,0.001000
1006.769231,0.040160,0.001000,0.001000,0.001000,0.001000,0.001000
1006.788462,0.039430,0.001000,0.001000,0.001000,0.001000,0.001000
1006.807692,0.038677,0.001000,0.001000,0.001000,0.001000,0.001000
1006.826923,0.037901,0.001000,0.001000,0.001000,0.001000,0.001000
1006.846154,0.037103,0.001000,0.001000,0.001000,0.001000,0.001000
1006.865385,0.036284,0.001000,0.001000,0.001000,0.001000,0.001000
1006.884615,0.035443,0.001000,0.001000,0.001000,0.001000,0.001000
1006.903846,0.034582,0.001000,0.001000,0.001000,0.001000,0.001000
1006.923077,0.033701,0.001000,0.001000,0.001000,0.001000,0.001000
1006.942308,0.032800,0.001000,0.001000,0.001000,0.001000,0.001000
1006.961538,0.031880,0.001000,0.001000,0.001000,0.001000,0.001000
1006.980769,0.030942,0.001000,0.001000,0.001000,0.001000,0.001000
1007.000000,0.029985,0.001000,0.001000,0.001000,0.001000,0.001000
1007.019231,0.029012,0.001000,0.001000,0.001000,0.001000,0.001000
1007.038462,0.028021,0.001000,0.001000,0.001000,0.001000,0.001000
1007.057692,0.027014,0.001000,0.001000,0.001000,0.001000,0.001000
1007.076923,0.025991,0.001000,0.001000,0.001000,0.001000,0.001000
1007.096154,0.024953,0.001000,0.001000,0.001000,0.001000,0.001000
1007.115385,0.023900,0.001000,0.001000,0.001000,0.001000,0.001000
1007.134615,0.022834,0.001000,0.001000,0.001000,0.001000,0.001000
1007.153846,0.021754,0.001000,0.001000,0.001000,0.001000,0.001000
1007.173077,0.020662,0.001000,0.001000,0.001000,0.001000,0.001000
1007.192308,0.019558,0.001000,0.001000,0.001000,0.001000,0.001000
1007.211538,0.018442,0.001000,0.001000,0.001000,0.001000,0.001000
1007.230769,0.017315,0.001000,0.001000,0.001000,0.001000,0.001000
1007.250000,0.016179,0.001000,0.001000,0.001000,0.001000,0.001000
1007.269231,0.015033,0.001000,0.001000,0.001000,0.001000,0.001000
1007.288462,0.013878,0.001000,0.001000,0.001000,0.001000,0.001000
1007.307692,0.012715,0.001000,0.001000,0.001000,0.001000,0.001000
1007.326923,0.011545,0.001000,0.001000,0.001000,0.001000,0.001000
1007.346154,0.010368,0.001000,0.001000,0.001000,0.001000,0.001000
1007.365385,0.009185,0.001000,0.001000,0.001000,0.001000,0.001000
1007.384615,0.007997,0.001000,0.001000,0.001000,0.001000,0.001000
1007.403846,0.006804,0.001000,0.001000,0.001000,0.001000,0.001000
1007.423077,0.005607,0.001000,0.001000,0.001000,0.001000,0.001000
1007.442308,0.004407,0.001000,0.001000,0.001000,0.001000,0.001000
1007.461538,0.003204,0.001000,0.001000,0.001000,0.001000,0.001000
1007.480769,0.002000,0.001000,0.001000,0.001000,0.001000,0.001000
1007.500000,0.000794,0.001000,0.001000,0.001000,0.001000,0.001000
1007.519231,-0.000412,0.001000,0.001000,0.001000,0.001000,0.001000
1007.538462,-0.001618,0.001000,0.001000,0.001000,0.001000,0.001000
1007.557692,-0.002823,0.001000,0.001000,0.001000,0.001000,0.001000
1007.576923,-0.004027,0.001000,0.001000,0.001000,0.001000,0.001000
1007.596154,-0.005228,0.001000,0.001000,0.001000,0.001000,0.001000
1007.615385,-0.006426,0.001000,0.001000,0.001000,0.001000,0.001000
1007.634615,-0.007620,0.001000,0.001000,0.001000,0.001000,0.001000
1007.653846,-0.008810,0.001000,0.001000,0.001000,0.001000,0.001000
1007.673077,-0.009995,0.001000,0.001000,0.001000,0.001000,0.001000
1007.692308,-0.011174,0.001000,0.001000,0.001000,0.001000,0.001000
1007.711538,-0.012346,0.001000,0.001000,0.001000,0.001000,0.001000
1007.730769,-0.013511,0.001000,0.001000,0.001000,0.001000,0.001000
1007.750000,-0.014669,0.001000,0.001000,0.001000,0.001000,0.001000
1007.769231,-0.015817,0.001000,0.001000,0.001000,0.001000,0.001000
1007.788462,-0.016957,0.001000,0.001000,0.001000,0.001000,0.001000
1007.807692,-0.018087,0.001000,0.001000,0.001000,0.001000,0.001000
1007.826923,-0.019206,0.001000,0.001000,0.001000,0.001000,0.001000
1007.846154,-0.020314,0.001000,0.001000,0.001000,0.001000,0.001000
1007.865385,-0.021410,0.001000,0.001000,0.001000,0.001000,0.001000
1007.884615,-0.022494,0.001000,0.001000,0.001000,0.001000,0.001000
1007.903846,-0.023565,0.001000,0.001000,0.001000,0.001000,0.001000
1007.923077,-0.024622,0.001000,0.001000,0.001000,0.001000,0.001000
1007.942308,-0.025664,0.001000,0.001000,0.001000,0.001000,0.001000
1007.961538,-0.026692,0.001000,0.001000,0.001000,0.001000,0.001000
1007.980769,-0.027704,0.001000,0.001000,0.001000,0.001000,0.001000
1008.000000,-0.028700,0.001000,0.001000,0.001000,0.001000,0.001000
1008.019231,-0.029679,0.001000,0.001000,0.001000,0.001000,0.001000
1008.038462,-0.030641,0.001000,0.001000,0.001000,0.001000,0.001000
1008.057692,-0.031586,0.001000,0.001000,0.001000,0.001000,0.001000
1008.076923,-0.032511,0.001000,0.001000,0.001000,0.001000,0.001000
1008.096154,-0.033418,0.001000,0.001000,0.001000,0.001000,0.001000
1008.115385,-0.034306,0.001000,0.001000,0.001000,0.001000,0.001000
1008.134615,-0.035173,0.001000,0.001000,0.001000,0.001000,0.001000
1008.153846,-0.036020,0.001000,0.001000,0.001000,0.001000,0.001000
1008.173077,-0.036846,0.001000,0.001000,0.001000,0.001000,0.001000
1008.192308,-0.037651,0.001000,0.001000,0.001000,0.001000,0.001000
1008.211538,-0.038434,0.001000,0.001000,0.001000,0.001000,0.001000
1008.230769,-0.039194,0.001000,0.001000,0.001000,0.001000,0.001000
1008.250000,-0.039931,0.001000,0.001000,0.001000,0.001000,0.001000
1008.269231,-0.040646,0.001000,0.001000,0.001000,0.001000,0.001000
1008.288462,-0.041336,0.001000,0.001000,0.001000,0.001000,0.001000
1008.307692,-0.042003,0.001000,0.001000,0.001000,0.001000,0.001000
1008.326923,-0.042645,0.001000,0.001000,0.001000,0.001000,0.001000
1008.346154,-0.043262,0.001000,0.001000,0.001000,0.001000,0.001000
1008.365385,-0.043854,0.001000,0.001000,0.001000,0.001000,0.001000
1008.384615,-0.044421,0.001000,0.001000,0.001000,0.001000,0.001000
1008.403846,-0.044962,0.001000,0.001000,0.001000,0.001000,0.001000
1008.423077,-0.045476,0.001000,0.001000,0.001000,0.001000,0.001000
1008.442308,-0.045964,0.001000,0.001000,0.001000,0.001000,0.001000
1008.461538,-0.046426,0.001000,0.001000,0.001000,0.001000,0.001000
1008.480769,-0.046860,0.001000,0.001000,0.001000,0.001000,0.001000
1008.500000,-0.047267,0.001000,0.001000,0.001000,0.001000,0.001000
1008.519231,-0.047647,0.001000,0.001000,0.001000,0.001000,0.001000
1008.538462,-0.047998,0.001000,0.001000,0.001000,0.001000,0.001000
1008.557692,-0.048322,0.001000,0.001000,0.001000,0.001000,0.001000
1008.576923,-0.048618,0.001000,0.001000,0.001000,0.001000,0.001000
1008.596154,-0.048886,0.001000,0.001000,0.001000,0.001000,0.001000
1008.615385,-0.049125,0.001000,0.001000,0.001000,0.001000,0.001000
1008.634615,-0.049335,0.001000,0.001000,0.001000,0.001000,0.001000
1008.653846,-0.049517,0.001000,0.001000,0.001000,0.001000,0.001000
1008.673077,-0.049670,0.001000,0.001000,0.001000,0.001000,0.001000
1008.692308,-0.049794,0.001000,0.001000,0.001000,0.001000,0.001000
1008.711538,-0.049889,0.001000,0.001000,0.001000,0.001000,0.001000
1008.730769,-0.049955,0.001000,0.001000,0.001000,0.001000,0.001000
1008.750000,-0.049991,0.001000,0.001000,0.001000,0.001000,0.001000
1008.769231,-0.049999,0.001000,0.001000,0.001000,0.001000,0.001000
1008.788462,-0.049978,0.001000,0.001000,0.001000,0.001000,0.001000
1008.807692,-0.049928,0.001000,0.001000,0.001000,0.001000,0.001000
1008.826923,-0.049848,0.001000,0.001000,0.001000,0.001000,0.001000
1008.846154,-0.049740,0.001000,0.001000,0.001000,0.001000,0.001000
1008.865385,-0.049602,0.001000,0.001000,0.001000,0.001000,0.001000
1008.884615,-0.049436,0.001000,0.001000,0.001000,0.001000,0.001000
1008.903846,-0.049241,0.001000,0.001000,0.001000,0.001000,0.001000
1008.923077,-0.049017,0.001000,0.001000,0.001000,0.001000,0.001000
1008.942308,-0.048765,0.001000,0.001000,0.001000,0.001000,0.001000
1008.961538,-0.048484,0.001000,0.001000,0.001000,0.001000,0.001000
1008.980769,-0.048175,0.001000,0.001000,0.001000,0.001000,0.001000
1009.000000,-0.047839,0.001000,0.001000,0.001000,0.001000,0.001000
1009.019231,-0.047474,0.001000,0.001000,0.001000,0.001000,0.001000
1009.038462,-0.047082,0.001000,0.001000,0.001000,0.001000,0.001000
1009.057692,-0.046662,0.001000,0.001000,0.001000,0.001000,0.001000
1009.076923,-0.046215,0.001000,0.001000,0.001000,0.001000,0.001000
1009.096154,-0.045741,0.001000,0.001000,0.001000,0.001000,0.001000
1009.115385,-0.045241,0.001000,0.001000,0.001000,0.001000,0.001000
1009.134615,-0.044714,0.001000,0.001000,0.001000,0.001000,0.001000
1009.153846,-0.044161,0.001000,0.001000,0.001000,0.001000,0.001000
1009.173077,-0.043583,0.001000,0.001000,0.001000,0.001000,0.001000
1009.192308,-0.042979,0.001000,0.001000,0.001000,0.001000,0.001000
1009.211538,-0.042350,0.001000,0.001000,0.001000,0.001000,0.001000
1009.230769,-0.041696,0.001000,0.001000,0.001000,0.001000,0.001000
1009.250000,-0.041019,0.001000,0.001000,0.001000,0.001000,0.001000
1009.269231,-0.040317,0.001000,0.001000,0.001000,0.001000,0.001000
1009.288462,-0.039592,0.001000,0.001000,0.001000,0.001000,0.001000
1009.307692,-0.038844,0.001000,0.001000,0.001000,0.001000,0.001000
1009.326923,-0.038073,0.001000,0.001000,0.001000,0.001000,0.001000
1009.346154,-0.037280,0.001000,0.001000,0.001000,0.001000,0.001000
1009.365385,-0.036465,0.001000,0.001000,0.001000,0.001000,0.001000
1009.384615,-0.035630,0.001000,0.001000,0.001000,0.001000,0.001000
1009.403846,-0.034773,0.001000,0.001000,0.001000,0.001000,0.001000
1009.423077,-0.033896,0.001000,0.001000,0.001000,0.001000,0.001000
1009.442308,-0.033000,0.001000,0.001000,0.001000,0.001000,0.001000
1009.461538,-0.032084,0.001000,0.001000,0.001000,0.001000,0.001000
1009.480769,-0.031149,0.001000,0.001000,0.001000,0.001000,0.001000
1009.500000,-0.030197,0.001000,0.001000,0.001000,0.001000,0.001000
1009.519231,-0.029227,0.001000,0.001000,0.001000,0.001000,0.001000
1009.538462,-0.028240,0.001000,0.001000,0.001000,0.001000,0.001000
1009.557692,-0.027236,0.001000,0.001000,0.001000,0.001000,0.001000
1009.576923,-0.026217,0.001000,0.001000,0.001000,0.001000,0.001000
1009.596154,-0.025182,0.001000,0.001000,0.001000,0.001000,0.001000
1009.615385,-0.024133,0.001000,0.001000,0.001000,0.001000,0.001000
1009.634615,-0.023069,0.001000,0.001000,0.001000,0.001000,0.001000
1009.653846,-0.021992,0.001000,0.001000,0.001000,0.001000,0.001000
1009.673077,-0.020903,0.001000,0.001000,0.001000,0.001000,0.001000
1009.692308,-0.019801,0.001000,0.001000,0.001000,0.001000,0.001000
1009.711538,-0.018688,0.001000,0.001000,0.001000,0.001000,0.001000
1009.730769,-0.017563,0.001000,0.001000,0.001000,0.001000,0.001000
1009.750000,-0.016429,0.001000,0.001000,0.001000,0.001000,0.001000
1009.769231,-0.015285,0.001000,0.001000,0.001000,0.001000,0.001000
1009.788462,-0.014132,0.001000,0.001000,0.001000,0.001000,0.001000
1009.807692,-0.012971,0.001000,0.001000,0.001000,0.001000,0.001000
1009.826923,-0.011803,0.001000,0.001000,0.001000,0.001000,0.001000
1009.846154,-0.010627,0.001000,0.001000,0.001000,0.001000,0.001000
1009.865385,-0.009445,0.001000,0.001000,0.001000,0.001000,0.001000
1009.884615,-0.008258,0.001000,0.001000,0.001000,0.001000,0.001000
1009.903846,-0.007066,0.001000,0.001000,0.001000,0.001000,0.001000
1009.923077,-0.005870,0.001000,0.001000,0.001000,0.001000,0.001000
1009.942308,-0.004671,0.001000,0.001000,0.001000,0.001000,0.001000
1009.961538,-0.003468,0.001000,0.001000,0.001000,0.001000,0.001000
1009.980769,-0.002264,0.001000,0.001000,0.001000,0.001000,0.001000
1010.000000,-0.001058,0.001000,0.001000,0.001000,0.001000,0.001000
1010.019231,0.000148,0.001000,0.001000,0.001000,0.001000,0.001000
1010.038462,0.001354,0.001000,0.001000,0.001000,0.001000,0.001000
1010.057692,0.002559,0.001000,0.001000,0.001000,0.001000,0.001000
1010.076923,0.003763,0.001000,0.001000,0.001000,0.001000,0.001000
1010.096154,0.004965,0.001000,0.001000,0.001000,0.001000,0.001000
1010.115385,0.006163,0.001000,0.001000,0.001000,0.001000,0.001000
1010.134615,0.007358,0.001000,0.001000,0.001000,0.001000,0.001000
1010.153846,0.008549,0.001000,0.001000,0.001000,0.001000,0.001000
1010.173077,0.009735,0.001000,0.001000,0.001000,0.001000,0.001000
1010.192308,0.010915,0.001000,0.001000,0.001000,0.001000,0.001000
1010.211538,0.012089,0.001000,0.001000,0.001000,0.001000,0.001000
1010.230769,0.013256,0.001000,0.001000,0.001000,0.001000,0.001000
1010.250000,0.014415,0.001000,0.001000,0.001000,0.001000,0.001000
1010.269231,0.015566,0.001000,0.001000,0.001000,0.001000,0.001000
1010.288462,0.016708,0.001000,0.001000,0.001000,0.001000,0.001000
1010.307692,0.017840,0.001000,0.001000,0.001000,0.001000,0.001000
1010.326923,0.018961,0.001000,0.001000,0.001000,0.001000,0.001000
1010.346154,0.020072,0.001000,0.001000,0.001000,0.001000,0.001000
1010.365385,0.021171,0.001000,0.001000,0.001000,0.001000,0.001000
1010.384615,0.022257,0.001000,0.001000,0.001000,0.001000,0.001000
1010.403846,0.023331,0.001000,0.001000,0.001000,0.001000,0.001000
1010.423077,0.024391,0.001000,0.001000,0.001000,0.001000,0.001000
1010.442308,0.025437,0.001000,0.001000,0.001000,0.001000,0.001000
1010.461538,0.026468,0.001000,0.001000,0.001000,0.001000,0.001000
1010.480769,0.027483,0.001000,0.001000,0.001000,0.001000,0.001000
1010.500000,0.028483,0.001000,0.001000,0.001000,0.001000,0.001000
1010.519231,0.029466,0.001000,0.001000,0.001000,0.001000,0.001000
1010.538462,0.030432,0.001000,0.001000,0.001000,0.001000,0.001000
1010.557692,0.031380,0.001000,0.001000,0.001000,0.001000,0.001000
1010.576923,0.032310,0.001000,0.001000,0.001000,0.001000,0.001000
1010.596154,0.033221,0.001000,0.001000,0.001000,0.001000,0.001000
1010.615385,0.034113,0.001000,0.001000,0.001000,0.001000,0.001000
1010.634615,0.034985,0.001000,0.001000,0.001000,0.001000,0.001000
1010.653846,0.035836,0.001000,0.001000,0.001000,0.001000,0.001000
1010.673077,0.036667,0.001000,0.001000,0.001000,0.001000,0.001000
1010.692308,0.037476,0.001000,0.001000,0.001000,0.001000,0.001000
1010.711538,0.038264,0.001000,0.001000,0.001000,0.001000,0.001000
1010.730769,0.039029,0.001000,0.001000,0.001000,0.001000,0.001000
1010.750000,0.039772,0.001000,0.001000,0.001000,0.001000,0.001000
1010.769231,0.040491,0.001000,0.001000,0.001000,0.001000,0.001000
1010.788462,0.041187,0.001000,0.001000,0.001000,0.001000,0.001000
1010.807692,0.041859,0.001000,0.001000,0.001000,0.001000,0.001000
1010.826923,0.042506,0.001000,0.001000,0.001000,0.001000,0.001000
1010.846154,0.043129,0.001000,0.001000,0.001000,0.001000,0.001000
1010.865385,0.043727,0.001000,0.001000,0.001000,0.001000,0.001000
1010.884615,0.044299,0.001000,0.001000,0.001000,0.001000,0.001000
1010.903846,0.044845,0.001000,0.001000,0.001000,0.001000,0.001000
1010.923077,0.045366,0.001000,0.001000,0.001000,0.001000,0.001000
1010.942308,0.045860,0.001000,0.001000,0.001000,0.001000,0.001000
1010.961538,0.046327,0.001000,0.001000,0.001000,0.001000,0.001000
1010.980769,0.046767,0.001000,0.001000,0.001000,0.001000,0.001000
1011.000000,0.047180,0.001000,0.001000,0.001000,0.001000,0.001000
1011.019231,0.047566,0.001000,0.001000,0.001000,0.001000,0.001000
1011.038462,0.047924,0.001000,0.001000,0.001000,0.001000,0.001000
1011.057692,0.048254,0.001000,0.001000,0.001000,0.001000,0.001000
1011.076923,0.048556,0.001000,0.001000,0.001000,0.001000,0.001000
1011.096154,0.048829,0.001000,0.001000,0.001000,0.001000,0.001000
1011.115385,0.049075,0.001000,0.001000,0.001000,0.001000,0.001000
1011.134615,0.049291,0.001000,0.001000,0.001000,0.001000,0.001000
1011.153846,0.049479,0.001000,0.001000,0.001000,0.001000,0.001000
1011.173077,0.049639,0.001000,0.001000,0.001000,0.001000,0.001000
1011.192308,0.049769,0.001000,0.001000,0.001000,0.001000,0.001000
1011.211538,0.049870,0.001000,0.001000,0.001000,0.001000,0.001000
1011.230769,0.049943,0.001000,0.001000,0.001000,0.001000,0.001000
1011.250000,0.049986,0.001000,0.001000,0.001000,0.001000,0.001000
1011.269231,0.050000,0.001000,0.001000,0.001000,0.001000,0.001000
1011.288462,0.049985,0.001000,0.001000,0.001000,0.001000,0.001000
1011.307692,0.049941,0.001000,0.001000,0.001000,0.001000,0.001000
1011.326923,0.049868,0.001000,0.001000,0.001000,0.001000,0.001000
1011.346154,0.049766,0.001000,0.001000,0.001000,0.001000,0.001000
1011.365385,0.049635,0.001000,0.001000,0.001000,0.001000,0.001000
1011.384615,0.049475,0.001000,0.001000,0.001000,0.001000,0.001000
1011.403846,0.049286,0.001000,0.001000,0.001000,0.001000,0.001000
1011.423077,0.049069,0.001000,0.001000,0.001000,0.001000,0.001000
1011.442308,0.048823,0.001000,0.001000,0.001000,0.001000,0.001000
1011.461538,0.048548,0.001000,0.001000,0.001000,0.001000,0.001000
1011.480769,0.048246,0.001000,0.001000,0.001000,0.001000,0.001000
1011.500000,0.047915,0.001000,0.001000,0.001000,0.001000,0.001000
1011.519231,0.047556,0.001000,0.001000,0.001000,0.001000,0.001000
1011.538462,0.047170,0.001000,0.001000,0.001000,0.001000,0.001000
1011.557692,0.046756,0.001000,0.001000,0.001000,0.001000,0.001000
1011.576923,0.046315,0.001000,0.001000,0.001000,0.001000,0.001000
1011.596154,0.045847,0.001000,0.001000,0.001000,0.001000,0.001000
1011.615385,0.045353,0.001000,0.001000,0.001000,0.001000,0.001000
1011.634615,0.044832,0.001000,0.001000,0.001000,0.001000,0.001000
1011.653846,0.044285,0.001000,0.001000,0.001000,0.001000,0.001000
1011.673077,0.043712,0.001000,0.001000,0.001000,0.001000,0.001000
1011.692308,0.043113,0.001000,0.001000,0.001000,0.001000,0.001000
1011.711538,0.042490,0.001000,0.001000,0.001000,0.001000,0.001000
1011.730769,0.041842,0.001000,0.001000,0.001000,0.001000,0.001000
1011.750000,0.041169,0.001000,0.001000,0.001000,0.001000,0.001000
1011.769231,0.040473,0.001000,0.001000,0.001000,0.001000,0.001000
1011.788462,0.039753,0.001000,0.001000,0.001000,0.001000,0.001000
1011.807692,0.039010,0.001000,0.001000,0.001000,0.001000,0.001000
1011.826923,0.038244,0.001000,0.001000,0.001000,0.001000,0.001000
1011.846154,0.037456,0.001000,0.001000,0.001000,0.001000,0.001000
1011.865385,0.036646,0.001000,0.001000,0.001000,0.001000,0.001000
1011.884615,0.035815,0.001000,0.001000,0.001000,0.001000,0.001000
1011.903846,0.034963,0.001000,0.001000,0.001000,0.001000,0.001000
1011.923077,0.034090,0.001000,0.001000,0.001000,0.001000,0.001000
1011.942308,0.033198,0.001000,0.001000,0.001000,0.001000,0.001000
1011.961538,0.032286,0.001000,0.001000,0.001000,0.001000,0.001000
1011.980769,0.031356,0.001000,0.001000,0.001000,0.001000,0.001000
1012.000000,0.030407,0.001000,0.001000,0.001000,0.001000,0.001000
1012.019231,0.029441,0.001000,0.001000,0.001000,0.001000,0.001000
1012.038462,0.028458,0.001000,0.001000,0.001000,0.001000,0.001000
1012.057692,0.027458,0.001000,0.001000,0.001000,0.001000,0.001000
1012.076923,0.026442,0.001000,0.001000,0.001000,0.001000,0.001000
1012.096154,0.025410,0.001000,0.001000,0.001000,0.001000,0.001000
1012.115385,0.024364,0.001000,0.001000,0.001000,0.001000,0.001000
1012.134615,0.023304,0.001000,0.001000,0.001000,0.001000,0.001000
1012.153846,0.022230,0.001000,0.001000,0.001000,0.001000,0.001000
1012.173077,0.021143,0.001000,0.001000,0.001000,0.001000,0.001000
1012.192308,0.020044,0.001000,0.001000,0.001000,0.001000,0.001000
1012.211538,0.018933,0.001000,0.001000,0.001000,0.001000,0.001000
1012.230769,0.017811,0.001000,0.001000,0.001000,0.001000,0.001000
1012.250000,0.016679,0.001000,0.001000,0.001000,0.001000,0.001000
1012.269231,0.015537,0.001000,0.001000,0.001000,0.001000,0.001000
1012.288462,0.014386,0.001000,0.001000,0.001000,0.001000,0.001000
1012.307692,0.013227,0.001000,0.001000,0.001000,0.001000,0.001000
1012.326923,0.012060,0.001000,0.001000,0.001000,0.001000,0.001000
1012.346154,0.010885,0.001000,0.001000,0.001000,0.001000,0.001000
1012.365385,0.009705,0.001000,0.001000,0.001000,0.001000,0.001000
1012.384615,0.008519,0.001000,0.001000,0.001000,0.001000,0.001000
1012.403846,0.007328,0.001000,0.001000,0.001000,0.001000,0.001000
1012.423077,0.006133,0.001000,0.001000,0.001000,0.001000,0.001000
1012.442308,0.004934,0.001000,0.001000,0.001000,0.001000,0.001000
1012.461538,0.003732,0.001000,0.001000,0.001000,0.001000,0.001000
1012.480769,0.002528,0.001000,0.001000,0.001000,0.001000,0.001000
1012.500000,0.001323,0.001000,0.001000,0.001000,0.001000,0.001000
1012.519231,0.000117,0.001000,0.001000,0.001000,0.001000,0.001000
1012.538462,-0.001089,0.001000,0.001000,0.001000,0.001000,0.001000
1012.557692,-0.002295,0.001000,0.001000,0.001000,0.001000,0.001000
1012.576923,-0.003499,0.001000,0.001000,0.001000,0.001000,0.001000
1012.596154,-0.004701,0.001000,0.001000,0.001000,0.001000,0.001000
1012.615385,-0.005901,0.001000,0.001000,0.001000,0.001000,0.001000
1012.634615,-0.007097,0.001000,0.001000,0.001000,0.001000,0.001000
1012.653846,-0.008288,0.001000,0.001000,0.001000,0.001000,0.001000
1012.673077,-0.009476,0.001000,0.001000,0.001000,0.001000,0.001000
1012.692308,-0.010657,0.001000,0.001000,0.001000,0.001000,0.001000
1012.711538,-0.011832,0.001000,0.001000,0.001000,0.001000,0.001000
1012.730769,-0.013001,0.001000,0.001000,0.001000,0.001000,0.001000
1012.750000,-0.014162,0.001000,0.001000,0.001000,0.001000,0.001000
1012.769231,-0.015314,0.001000,0.001000,0.001000,0.001000,0.001000
1012.788462,-0.016458,0.001000,0.001000,0.001000,0.001000,0.001000
1012.807692,-0.017592,0.001000,0.001000,0.001000,0.001000,0.001000
1012.826923,-0.018716,0.001000,0.001000,0.001000,0.001000,0.001000
1012.846154,-0.019829,0.001000,0.001000,0.001000,0.001000,0.001000
1012.865385,-0.020931,0.001000,0.001000,0.001000,0.001000,0.001000
1012.884615,-0.022020,0.001000,0.001000,0.001000,0.001000,0.001000
1012.903846,-0.023096,0.001000,0.001000,0.001000,0.001000,0.001000
1012.923077,-0.024159,0.001000,0.001000,0.001000,0.001000,0.001000
1012.942308,-0.025208,0.001000,0.001000,0.001000,0.001000,0.001000
1012.961538,-0.026243,0.001000,0.001000,0.001000,0.001000,0.001000
1012.980769,-0.027262,0.001000,0.001000,0.001000,0.001000,0.001000
1013.000000,-0.028265,0.001000,0.001000,0.001000,0.001000,0.001000
1013.019231,-0.029252,0.001000,0.001000,0.001000,0.001000,0.001000
1013.038462,-0.030221,0.001000,0.001000,0.001000,0.001000,0.001000
1013.057692,-0.031173,0.001000,0.001000,0.001000,0.001000,0.001000
1013.076923,-0.032107,0.001000,0.001000,0.001000,0.001000,0.001000
1013.096154,-0.033023,0.001000,0.001000,0.001000,0.001000,0.001000
1013.115385,-0.033919,0.001000,0.001000,0.001000,0.001000,0.001000
1013.134615,-0.034795,0.001000,0.001000,0.001000,0.001000,0.001000
1013.153846,-0.035651,0.001000,0.001000,0.001000,0.001000,0.001000
1013.173077,-0.036486,0.001000,0.001000,0.001000,0.001000,0.001000
1013.192308,-0.037300,0.001000,0.001000,0.001000,0.001000,0.001000
1013.211538,-0.038093,0.001000,0.001000,0.001000,0.001000,0.001000
1013.230769,-0.038863,0.001000,0.001000,0.001000,0.001000,0.001000
1013.250000,-0.039611,0.001000,0.001000,0.001000,0.001000,0.001000
1013.269231,-0.040335,0.001000,0.001000,0.001000,0.001000,0.001000
1013.288462,-0.041036,0.001000,0.001000,0.001000,0.001000,0.001000
1013.307692,-0.041713,0.001000,0.001000,0.001000,0.001000,0.001000
1013.326923,-0.042366,0.001000,0.001000,0.001000,0.001000,0.001000
1013.346154,-0.042994,0.001000,0.001000,0.001000,0.001000,0.001000
1013.365385,-0.043598,0.001000,0.001000,0.001000,0.001000,0.001000
1013.384615,-0.044175,0.001000,0.001000,0.001000,0.001000,0.001000
1013.403846,-0.044728,0.001000,0.001000,0.001000,0.001000,0.001000
1013.423077,-0.045254,0.001000,0.001000,0.001000,0.001000,0.001000
1013.442308,-0.045753,0.001000,0.001000,0.001000,0.001000,0.001000
1013.461538,-0.046227,0.001000,0.001000,0.001000,0.001000,0.001000
1013.480769,-0.046673,0.001000,0.001000,0.001000,0.001000,0.001000
1013.500000,-0.047092,0.001000,0.001000,0.001000,0.001000,0.001000
1013.519231,-0.047484,0.001000,0.001000,0.001000,0.001000,0.001000
1013.538462,-0.047848,0.001000,0.001000,0.001000,0.001000,0.001000
1013.557692,-0.048184,0.001000,0.001000,0.001000,0.001000,0.001000
1013.576923,-0.048492,0.001000,0.001000,0.001000,0.001000,0.001000
1013.596154,-0.048772,0.001000,0.001000,0.001000,0.001000,0.001000
1013.615385,-0.049023,0.001000,0.001000,0.001000,0.001000,0.001000
1013.634615,-0.049246,0.001000,0.001000,0.001000,0.001000,0.001000
1013.653846,-0.049441,0.001000,0.001000,0.001000,0.001000,0.001000
1013.673077,-0.049606,0.001000,0.001000,0.001000,0.001000,0.001000
1013.692308,-0.049743,0.001000,0.001000,0.001000,0.001000,0.001000
1013.711538,-0.049850,0.001000,0.001000,0.001000,0.001000,0.001000
1013.730769,-0.049929,0.001000,0.001000,0.001000,0.001000,0.001000
1013.750000,-0.049979,0.001000,0.001000,0.001000,0.001000,0.001000
1013.769231,-0.049999,0.001000,0.001000,0.001000,0.001000,0.001000
1013.788462,-0.049991,0.001000,0.001000,0.001000,0.001000,0.001000
1013.807692,-0.049953,0.001000,0.001000,0.001000,0.001000,0.001000
1013.826923,-0.049887,0.001000,0.001000,0.001000,0.001000,0.001000
1013.846154,-0.049791,0.001000,0.001000,0.001000,0.001000,0.001000
1013.865385,-0.049666,0.001000,0.001000,0.001000,0.001000,0.001000
1013.884615,-0.049512,0.001000,0.001000,0.001000,0.001000,0.001000
1013.903846,-0.049330,0.001000,0.001000,0.001000,0.001000,0.001000
1013.923077,-0.049119,0.001000,0.001000,0.001000,0.001000,0.001000
1013.942308,-0.048879,0.001000,0.001000,0.001000,0.001000,0.001000
1013.961538,-0.048611,0.001000,0.001000,0.001000,0.001000,0.001000
1013.980769,-0.048314,0.001000,0.001000,0.001000,0.001000,0.001000
1014.000000,-0.047990,0.001000,0.001000,0.001000,0.001000,0.001000
1014.019231,-0.047637,0.001000,0.001000,0.001000,0.001000,0.001000
1014.038462,-0.047257,0.001000,0.001000,0.001000,0.001000,0.001000
1014.057692,-0.046849,0.001000,0.001000,0.001000,0.001000,0.001000
1014.076923,-0.046414,0.001000,0.001000,0.001000,0.001000,0.001000
1014.096154,-0.045952,0.001000,0.001000,0.001000,0.001000,0.001000
1014.115385,-0.045463,0.001000,0.001000,0.001000,0.001000,0.001000
1014.134615,-0.044948,0.001000,0.001000,0.001000,0.001000,0.001000
1014.153846,-0.044407,0.001000,0.001000,0.001000,0.001000,0.001000
1014.173077,-0.043840,0.001000,0.001000,0.001000,0.001000,0.001000
1014.192308,-0.043247,0.001000,0.001000,0.001000,0.001000,0.001000
1014.211538,-0.042629,0.001000,0.001000,0.001000,0.001000,0.001000
1014.230769,-0.041986,0.001000,0.001000,0.001000,0.001000,0.001000
1014.250000,-0.041319,0.001000,0.001000,0.001000,0.001000,0.001000
1014.269231,-0.040628,0.001000,0.001000,0.001000,0.001000,0.001000
1014.288462,-0.039913,0.001000,0.001000,0.001000,0.001000,0.001000
1014.307692,-0.039175,0.001000,0.001000,0.001000,0.001000,0.001000
1014.326923,-0.038414,0.001000,0.001000,0.001000,0.001000,0.001000
1014.346154,-0.037631,0.001000,0.001000,0.001000,0.001000,0.001000
1014.365385,-0.036825,0.001000,0.001000,0.001000,0.001000,0.001000
1014.384615,-0.035999,0.001000,0.001000,0.001000,0.001000,0.001000
1014.403846,-0.035151,0.001000,0.001000,0.001000,0.001000,0.001000
1014.423077,-0.034283,0.001000,0.001000,0.001000,0.001000,0.001000
1014.442308,-0.033395,0.001000,0.001000,0.001000,0.001000,0.001000
1014.461538,-0.032488,0.001000,0.001000,0.001000,0.001000,0.001000
1014.480769,-0.031562,0.001000,0.001000,0.001000,0.001000,0.001000
1014.500000,-0.030617,0.001000,0.001000,0.001000,0.001000,0.001000
1014.519231,-0.029655,0.001000,0.001000,0.001000,0.001000,0.001000
1014.538462,-0.028675,0.001000,0.001000,0.001000,0.001000,0.001000
1014.557692,-0.027678,0.001000,0.001000,0.001000,0.001000,0.001000
1014.576923,-0.026666,0.001000,0.001000,0.001000,0.001000,0.001000
1014.596154,-0.025638,0.001000,0.001000,0.001000,0.001000,0.001000
1014.615385,-0.024595,0.001000,0.001000,0.001000,0.001000,0.001000
1014.634615,-0.023537,0.001000,0.001000,0.001000,0.001000,0.001000
1014.653846,-0.022466,0.001000,0.001000,0.001000,0.001000,0.001000
1014.673077,-0.021382,0.001000,0.001000,0.001000,0.001000,0.001000
1014.692308,-0.020286,0.001000,0.001000,0.001000,0.001000,0.001000
1014.711538,-0.019178,0.001000,0.001000,0.001000,0.001000,0.001000
1014.730769,-0.018058,0.001000,0.001000,0.001000,0.001000,0.001000
1014.750000,-0.016928,0.001000,0.001000,0.001000,0.001000,0.001000
1014.769231,-0.015788,0.001000,0.001000,0.001000,0.001000,0.001000
1014.788462,-0.014639,0.001000,0.001000,0.001000,0.001000,0.001000
1014.807692,-0.013482,0.001000,0.001000,0.001000,0.001000,0.001000
1014.826923,-0.012316,0.001000,0.001000,0.001000,0.001000,0.001000
1014.846154,-0.011144,0.001000,0.001000,0.001000,0.001000,0.001000
1014.865385,-0.009965,0.001000,0.001000,0.001000,0.001000,0.001000
1014.884615,-0.008780,0.001000,0.001000,0.001000,0.001000,0.001000
1014.903846,-0.007590,0.001000,0.001000,0.001000,0.001000,0.001000
1014.923077,-0.006395,0.001000,0.001000,0.001000,0.001000,0.001000
1014.942308,-0.005197,0.001000,0.001000,0.001000,0.001000,0.001000
1014.961538,-0.003996,0.001000,0.001000,0.001000,0.001000,0.001000
1014.980769,-0.002793,0.001000,0.001000,0.001000,0.001000,0.001000
1015.000000,-0.001588,0.001000,0.001000,0.001000,0.001000,0.001000
1015.019231,-0.000382,0.001000,0.001000,0.001000,0.001000,0.001000
1015.038462,0.000825,0.001000,0.001000,0.001000,0.001000,0.001000
1015.057692,0.002030,0.001000,0.001000,0.001000,0.001000,0.001000
1015.076923,0.003235,0.001000,0.001000,0.001000,0.001000,0.001000
1015.096154,0.004438,0.001000,0.001000,0.001000,0.001000,0.001000
1015.115385,0.005638,0.001000,0.001000,0.001000,0.001000,0.001000
1015.134615,0.006835,0.001000,0.001000,0.001000,0.001000,0.001000
1015.153846,0.008027,0.001000,0.001000,0.001000,0.001000,0.001000
1015.173077,0.009216,0.001000,0.001000,0.001000,0.001000,0.001000
1015.192308,0.010398,0.001000,0.001000,0.001000,0.001000,0.001000
1015.211538,0.011575,0.001000,0.001000,0.001000,0.001000,0.001000
1015.230769,0.012745,0.001000,0.001000,0.001000,0.001000,0.001000
1015.250000,0.013908,0.001000,0.001000,0.001000,0.001000,0.001000
1015.269231,0.015062,0.001000,0.001000,0.001000,0.001000,0.001000
1015.288462,0.016208,0.001000,0.001000,0.001000,0.001000,0.001000
1015.307692,0.017344,0.001000,0.001000,0.001000,0.001000,0.001000
1015.326923,0.018471,0.001000,0.001000,0.001000,0.001000,0.001000
1015.346154,0.019586,0.001000,0.001000,0.001000,0.001000,0.001000
1015.365385,0.020690,0.001000,0.001000,0.001000,0.001000,0.001000
1015.384615,0.021782,0.001000,0.001000,0.001000,0.001000,0.001000
1015.403846,0.022861,0.001000,0.001000,0.001000,0.001000,0.001000
1015.423077,0.023927,0.001000,0.001000,0.001000,0.001000,0.001000
1015.442308,0.024980,0.001000,0.001000,0.001000,0.001000,0.001000
1015.461538,0.026017,0.001000,0.001000,0.001000,0.001000,0.001000
1015.480769,0.027040,0.001000,0.001000,0.001000,0.001000,0.001000
1015.500000,0.028046,0.001000,0.001000,0.001000,0.001000,0.001000
1015.519231,0.029037,0.001000,0.001000,0.001000,0.001000,0.001000
1015.538462,0.030010,0.001000,0.001000,0.001000,0.001000,0.001000
1015.557692,0.030966,0.001000,0.001000,0.001000,0.001000,0.001000
1015.576923,0.031904,0.001000,0.001000,0.001000,0.001000,0.001000
1015.596154,0.032823,0.001000,0.001000,0.001000,0.001000,0.001000
1015.615385,0.033724,0.001000,0.001000,0.001000,0.001000,0.001000
1015.634615,0.034604,0.001000,0.001000,0.001000,0.001000,0.001000
1015.653846,0.035465,0.001000,0.001000,0.001000,0.001000,0.001000
1015.673077,0.036305,0.001000,0.001000,0.001000,0.001000,0.001000
1015.692308,0.037124,0.001000,0.001000,0.001000,0.001000,0.001000
1015.711538,0.037921,0.001000,0.001000,0.001000,0.001000,0.001000
1015.730769,0.038696,0.001000,0.001000,0.001000,0.001000,0.001000
1015.750000,0.039449,0.001000,0.001000,0.001000,0.001000,0.001000
1015.769231,0.040178,0.001000,0.001000,0.001000,0.001000,0.001000
1015.788462,0.040884,0.001000,0.001000,0.001000,0.001000,0.001000
1015.807692,0.041567,0.001000,0.001000,0.001000,0.001000,0.001000
1015.826923,0.042225,0.001000,0.001000,0.001000,0.001000,0.001000
1015.846154,0.042859,0.001000,0.001000,0.001000,0.001000,0.001000
1015.865385,0.043467,0.001000,0.001000,0.001000,0.001000,0.001000
1015.884615,0.044051,0.001000,0.001000,0.001000,0.001000,0.001000
1015.903846,0.044609,0.001000,0.001000,0.001000,0.001000,0.001000
1015.923077,0.045141,0.001000,0.001000,0.001000,0.001000,0.001000
1015.942308,0.045646,0.001000,0.001000,0.001000,0.001000,0.001000
1015.961538,0.046125,0.001000,0.001000,0.001000,0.001000,0.001000
1015.980769,0.046577,0.001000,0.001000,0.001000,0.001000,0.001000
1016.000000,0.047002,0.001000,0.001000,0.001000,0.001000,0.001000
1016.019231,0.047400,0.001000,0.001000,0.001000,0.001000,0.001000
1016.038462,0.047770,0.001000,0.001000,0.001000,0.001000,0.001000
1016.057692,0.048112,0.001000,0.001000,0.001000,0.001000,0.001000
1016.076923,0.048427,0.001000,0.001000,0.001000,0.001000,0.001000
1016.096154,0.048713,0.001000,0.001000,0.001000,0.001000,0.001000
1016.115385,0.048970,0.001000,0.001000,0.001000,0.001000,0.001000
1016.134615,0.049200,0.001000,0.001000,0.001000,0.001000,0.001000
1016.153846,0.049400,0.001000,0.001000,0.001000,0.001000,0.001000
1016.173077,0.049572,0.001000,0.001000,0.001000,0.001000,0.001000
1016.192308,0.049715,0.001000,0.001000,0.001000,0.001000,0.001000
1016.211538,0.049829,0.001000,0.001000,0.001000,0.001000,0.001000
1016.230769,0.049914,0.001000,0.001000,0.001000,0.001000,0.001000
1016.250000,0.049970,0.001000,0.001000,0.001000,0.001000,0.001000
1016.269231,0.049997,0.001000,0.001000,0.001000,0.001000,0.001000
1016.288462,0.049995,0.001000,0.001000,0.001000,0.001000,0.001000
1016.307692,0.049964,0.001000,0.001000,0.001000,0.001000,0.001000
1016.326923,0.049904,0.001000,0.001000,0.001000,0.001000,0.001000
1016.346154,0.049814,0.001000,0.001000,0.001000,0.001000,0.001000
1016.365385,0.049696,0.001000,0.001000,0.001000,0.001000,0.001000
1016.384615,0.049549,0.001000,0.001000,0.001000,0.001000,0.001000
1016.403846,0.049372,0.001000,0.001000,0.001000,0.001000,0.001000
1016.423077,0.049168,0.001000,0.001000,0.001000,0.001000,0.001000
1016.442308,0.048934,0.001000,0.001000,0.001000,0.001000,0.001000
1016.461538,0.048672,0.001000,0.001000,0.001000,0.001000,0.001000
1016.480769,0.048382,0.001000,0.001000,0.001000,0.001000,0.001000
1016.500000,0.048063,0.001000,0.001000,0.001000,0.001000,0.001000
1016.519231,0.047717,0.001000,0.001000,0.001000,0.001000,0.001000
1016.538462,0.047343,0.001000,0.001000,0.001000,0.001000,0.001000
1016.557692,0.046941,0.001000,0.001000,0.001000,0.001000,0.001000
1016.576923,0.046512,0.001000,0.001000,0.001000,0.001000,0.001000
1016.596154,0.046056,0.001000,0.001000,0.001000,0.001000,0.001000
1016.615385,0.045573,0.001000,0.001000,0.001000,0.001000,0.001000
1016.634615,0.045064,0.001000,0.001000,0.001000,0.001000,0.001000
1016.653846,0.044528,0.001000,0.001000,0.001000,0.001000,0.001000
1016.673077,0.043966,0.001000,0.001000,0.001000,0.001000,0.001000
1016.692308,0.043379,0.001000,0.001000,0.001000,0.001000,0.001000
1016.711538,0.042767,0.001000,0.001000,0.001000,0.001000,0.001000
1016.730769,0.042129,0.001000,0.001000,0.001000,0.001000,0.001000
1016.750000,0.041467,0.001000,0.001000,0.001000,0.001000,0.001000
1016.769231,0.040781,0.001000,0.001000,0.001000,0.001000,0.001000
1016.788462,0.040072,0.001000,0.001000,0.001000,0.001000,0.001000
1016.807692,0.039339,0.001000,0.001000,0.001000,0.001000,0.001000
1016.826923,0.038583,0.001000,0.001000,0.001000,0.001000,0.001000
1016.846154,0.037804,0.001000,0.001000,0.001000,0.001000,0.001000
1016.865385,0.037004,0.001000,0.001000,0.001000,0.001000,0.001000
1016.884615,0.036182,0.001000,0.001000,0.001000,0.001000,0.001000
1016.903846,0.035339,0.001000,0.001000,0.001000,0.001000,0.001000
1016.923077,0.034475,0.001000,0.001000,0.001000,0.001000,0.001000
1016.942308,0.033592,0.001000,0.001000,0.001000,0.001000,0.001000
1016.961538,0.032689,0.001000,0.001000,0.001000,0.001000,0.001000
1016.980769,0.031766,0.001000,0.001000,0.001000,0.001000,0.001000
1017.000000,0.030826,0.001000,0.001000,0.001000,0.001000,0.001000
1017.019231,0.029867,0.001000,0.001000,0.001000,0.001000,0.001000
1017.038462,0.028891,0.001000,0.001000,0.001000,0.001000,0.001000
1017.057692,0.027898,0.001000,0.001000,0.001000,0.001000,0.001000
1017.076923,0.026889,0.001000,0.001000,0.001000,0.001000,0.001000
1017.096154,0.025865,0.001000,0.001000,0.001000,0.001000,0.001000
1017.115385,0.024825,0.001000,0.001000,0.001000,0.001000,0.001000
1017.134615,0.023771,0.001000,0.001000,0.001000,0.001000,0.001000
1017.153846,0.022703,0.001000,0.001000,0.001000,0.001000,0.001000
1017.173077,0.021621,0.001000,0.001000,0.001000,0.001000,0.001000
1017.192308,0.020527,0.001000,0.001000,0.001000,0.001000,0.001000
1017.211538,0.019422,0.001000,0.001000,0.001000,0.001000,0.001000
1017.230769,0.018305,0.001000,0.001000,0.001000,0.001000,0.001000
1017.250000,0.017177,0.001000,0.001000,0.001000,0.001000,0.001000
1017.269231,0.016039,0.001000,0.001000,0.001000,0.001000,0.001000
1017.288462,0.014892,0.001000,0.001000,0.001000,0.001000,0.001000
1017.307692,0.013736,0.001000,0.001000,0.001000,0.001000,0.001000
1017.326923,0.012573,0.001000,0.001000,0.001000,0.001000,0.001000
1017.346154,0.011401,0.001000,0.001000,0.001000,0.001000,0.001000
1017.365385,0.010224,0.001000,0.001000,0.001000,0.001000,0.001000
1017.384615,0.009040,0.001000,0.001000,0.001000,0.001000,0.001000
1017.403846,0.007851,0.001000,0.001000,0.001000,0.001000,0.001000
1017.423077,0.006658,0.001000,0.001000,0.001000,0.001000,0.001000
1017.442308,0.005460,0.001000,0.001000,0.001000,0.001000,0.001000
1017.461538,0.004260,0.001000,0.001000,0.001000,0.001000,0.001000
1017.480769,0.003057,0.001000,0.001000,0.001000,0.001000,0.001000
1017.500000,0.001852,0.001000,0.001000,0.001000,0.001000,0.001000
1017.519231,0.000646,0.001000,0.001000,0.001000,0.001000,0.001000
1017.538462,-0.000560,0.001000,0.001000,0.001000,0.001000,0.001000
1017.557692,-0.001766,0.001000,0.001000,0.001000,0.001000,0.001000
1017.576923,-0.002971,0.001000,0.001000,0.001000,0.001000,0.001000
1017.596154,-0.004174,0.001000,0.001000,0.001000,0.001000,0.001000
1017.615385,-0.005375,0.001000,0.001000,0.001000,0.001000,0.001000
1017.634615,-0.006572,0.001000,0.001000,0.001000,0.001000,0.001000
1017.653846,-0.007766,0.001000,0.001000,0.001000,0.001000,0.001000
1017.673077,-0.008955,0.001000,0.001000,0.001000,0.001000,0.001000
1017.692308,-0.010139,0.001000,0.001000,0.001000,0.001000,0.001000
1017.711538,-0.011318,0.001000,0.001000,0.001000,0.001000,0.001000
1017.730769,-0.012489,0.001000,0.001000,0.001000,0.001000,0.001000
1017.750000,-0.013653,0.001000,0.001000,0.001000,0.001000,0.001000
1017.769231,-0.014810,0.001000,0.001000,0.001000,0.001000,0.001000
1017.788462,-0.015957,0.001000,0.001000,0.001000,0.001000,0.001000
1017.807692,-0.017096,0.001000,0.001000,0.001000,0.001000,0.001000
1017.826923,-0.018224,0.001000,0.001000,0.001000,0.001000,0.001000
1017.846154,-0.019342,0.001000,0.001000,0.001000,0.001000,0.001000
1017.865385,-0.020449,0.001000,0.001000,0.001000,0.001000,0.001000
1017.884615,-0.021544,0.001000,0.001000,0.001000,0.001000,0.001000
1017.903846,-0.022626,0.001000,0.001000,0.001000,0.001000,0.001000
1017.923077,-0.023695,0.001000,0.001000,0.001000,0.001000,0.001000
1017.942308,-0.024750,0.001000,0.001000,0.001000,0.001000,0.001000
1017.961538,-0.025791,0.001000,0.001000,0.001000,0.001000,0.001000
1017.980769,-0.026817,0.001000,0.001000,0.001000,0.001000,0.001000
1018.000000,-0.027827,0.001000,0.001000,0.001000,0.001000,0.001000
1018.019231,-0.028821,0.001000,0.001000,0.001000,0.001000,0.001000
1018.038462,-0.029798,0.001000,0.001000,0.001000,0.001000,0.001000
1018.057692,-0.030758,0.001000,0.001000,0.001000,0.001000,0.001000
1018.076923,-0.031700,0.001000,0.001000,0.001000,0.001000,0.001000
1018.096154,-0.032623,0.001000,0.001000,0.001000,0.001000,0.001000
1018.115385,-0.033528,0.001000,0.001000,0.001000,0.001000,0.001000
1018.134615,-0.034413,0.001000,0.001000,0.001000,0.001000,0.001000
1018.153846,-0.035278,0.001000,0.001000,0.001000,0.001000,0.001000
1018.173077,-0.036122,0.001000,0.001000,0.001000,0.001000,0.001000
1018.192308,-0.036946,0.001000,0.001000,0.001000,0.001000,0.001000
1018.211538,-0.037748,0.001000,0.001000,0.001000,0.001000,0.001000
1018.230769,-0.038528,0.001000,0.001000,0.001000,0.001000,0.001000
1018.250000,-0.039285,0.001000,0.001000,0.001000,0.001000,0.001000
1018.269231,-0.040020,0.001000,0.001000,0.001000,0.001000,0.001000
1018.288462,-0.040731,0.001000,0.001000,0.001000,0.001000,0.001000
1018.307692,-0.041419,0.001000,0.001000,0.001000,0.001000,0.001000
1018.326923,-0.042083,0.001000,0.001000,0.001000,0.001000,0.001000
1018.346154,-0.042722,0.001000,0.001000,0.001000,0.001000,0.001000
1018.365385,-0.043336,0.001000,0.001000,0.001000,0.001000,0.001000
1018.384615,-0.043925,0.001000,0.001000,0.001000,0.001000,0.001000
1018.403846,-0.044489,0.001000,0.001000,0.001000,0.001000,0.001000
1018.423077,-0.045026,0.001000,0.001000,0.001000,0.001000,0.001000
1018.442308,-0.045537,0.001000,0.001000,0.001000,0.001000,0.001000
1018.461538,-0.046022,0.001000,0.001000,0.001000,0.001000,0.001000
1018.480769,-0.046480,0.001000,0.001000,0.001000,0.001000,0.001000
1018.500000,-0.046911,0.001000,0.001000,0.001000,0.001000,0.001000
1018.519231,-0.047315,0.001000,0.001000,0.001000,0.001000,0.001000
1018.538462,-0.047691,0.001000,0.001000,0.001000,0.001000,0.001000
1018.557692,-0.048040,0.001000,0.001000,0.001000,0.001000,0.001000
1018.576923,-0.048360,0.001000,0.001000,0.001000,0.001000,0.001000
1018.596154,-0.048652,0.001000,0.001000,0.001000,0.001000,0.001000
1018.615385,-0.048916,0.001000,0.001000,0.001000,0.001000,0.001000
1018.634615,-0.049152,0.001000,0.001000,0.001000,0.001000,0.001000
1018.653846,-0.049359,0.001000,0.001000,0.001000,0.001000,0.001000
1018.673077,-0.049537,0.001000,0.001000,0.001000,0.001000,0.001000
1018.692308,-0.049686,0.001000,0.001000,0.001000,0.001000,0.001000
1018.711538,-0.049807,0.001000,0.001000,0.001000,0.001000,0.001000
1018.730769,-0.049898,0.001000,0.001000,0.001000,0.001000,0.001000
1018.750000,-0.049961,0.001000,0.001000,0.001000,0.001000,0.001000
1018.769231,-0.049994,0.001000,0.001000,0.001000,0.001000,0.001000
1018.788462,-0.049998,0.001000,0.001000,0.001000,0.001000,0.001000
1018.807692,-0.049973,0.001000,0.001000,0.001000,0.001000,0.001000
1018.826923,-0.049919,0.001000,0.001000,0.001000,0.001000,0.001000
1018.846154,-0.049836,0.001000,0.001000,0.001000,0.001000,0.001000
1018.865385,-0.049724,0.001000,0.001000,0.001000,0.001000,0.001000
1018.884615,-0.049583,0.001000,0.001000,0.001000,0.001000,0.001000
1018.903846,-0.049414,0.001000,0.001000,0.001000,0.001000,0.001000
1018.923077,-0.049215,0.001000,0.001000,0.001000,0.001000,0.001000
1018.942308,-0.048988,0.001000,0.001000,0.001000,0.001000,0.001000
1018.961538,-0.048732,0.001000,0.001000,0.001000,0.001000,0.001000
1018.980769,-0.048448,0.001000,0.001000,0.001000,0.001000,0.001000
1019.000000,-0.048136,0.001000,0.001000,0.001000,0.001000,0.001000
1019.019231,-0.047795,0.001000,0.001000,0.001000,0.001000,0.001000
1019.038462,-0.047427,0.001000,0.001000,0.001000,0.001000,0.001000
1019.057692,-0.047032,0.001000,0.001000,0.001000,0.001000,0.001000
1019.076923,-0.046608,0.001000,0.001000,0.001000,0.001000,0.001000
1019.096154,-0.046158,0.001000,0.001000,0.001000,0.001000,0.001000
1019.115385,-0.045681,0.001000,0.001000,0.001000,0.001000,0.001000
1019.134615,-0.045178,0.001000,0.001000,0.001000,0.001000,0.001000
1019.153846,-0.044648,0.001000,0.001000,0.001000,0.001000,0.001000
1019.173077,-0.044092,0.001000,0.001000,0.001000,0.001000,0.001000
1019.192308,-0.043510,0.001000,0.001000,0.001000,0.001000,0.001000
1019.211538,-0.042903,0.001000,0.001000,0.001000,0.001000,0.001000
1019.230769,-0.042271,0.001000,0.001000,0.001000,0.001000,0.001000
1019.250000,-0.041615,0.001000,0.001000,0.001000,0.001000,0.001000
1019.269231,-0.040934,0.001000,0.001000,0.001000,0.001000,0.001000
1019.288462,-0.040229,0.001000,0.001000,0.001000,0.001000,0.001000
1019.307692,-0.039501,0.001000,0.001000,0.001000,0.001000,0.001000
1019.326923,-0.038751,0.001000,0.001000,0.001000,0.001000,0.001000
1019.346154,-0.037977,0.001000,0.001000,0.001000,0.001000,0.001000
1019.365385,-0.037181,0.001000,0.001000,0.001000,0.001000,0.001000
1019.384615,-0.036364,0.001000,0.001000,0.001000,0.001000,0.001000
1019.403846,-0.035526,0.001000,0.001000,0.001000,0.001000,0.001000
1019.423077,-0.034667,0.001000,0.001000,0.001000,0.001000,0.001000
1019.442308,-0.033787,0.001000,0.001000,0.001000,0.001000,0.001000
1019.461538,-0.032888,0.001000,0.001000,0.001000,0.001000,0.001000
1019.480769,-0.031970,0.001000,0.001000,0.001000,0.001000,0.001000
1019.500000,-0.031034,0.001000,0.001000,0.001000,0.001000,0.001000
1019.519231,-0.030079,0.001000,0.001000,0.001000,0.001000,0.001000
1019.538462,-0.029107,0.001000,0.001000,0.001000,0.001000,0.001000
1019.557692,-0.028118,0.001000,0.001000,0.001000,0.001000,0.001000
1019.576923,-0.027112,0.001000,0.001000,0.001000,0.001000,0.001000
1019.596154,-0.026091,0.001000,0.001000,0.001000,0.001000,0.001000
1019.615385,-0.025054,0.001000,0.001000,0.001000,0.001000,0.001000
1019.634615,-0.024003,0.001000,0.001000,0.001000,0.001000,0.001000
1019.653846,-0.022938,0.001000,0.001000,0.001000,0.001000,0.001000
1019.673077,-0.021860,0.001000,0.001000,0.001000,0.001000,0.001000
1019.692308,-0.020768,0.001000,0.001000,0.001000,0.001000,0.001000
1019.711538,-0.019665,0.001000,0.001000,0.001000,0.001000,0.001000
1019.730769,-0.018551,0.001000,0.001000,0.001000,0.001000,0.001000
1019.750000,-0.017425,0.001000,0.001000,0.001000,0.001000,0.001000
1019.769231,-0.016290,0.001000,0.001000,0.001000,0.001000,0.001000
1019.788462,-0.015144,0.001000,0.001000,0.001000,0.001000,0.001000
1019.807692,-0.013991,0.001000,0.001000,0.001000,0.001000,0.001000
1019.826923,-0.012828,0.001000,0.001000,0.001000,0.001000,0.001000
1019.846154,-0.011659,0.001000,0.001000,0.001000,0.001000,0.001000
1019.865385,-0.010483,0.001000,0.001000,0.001000,0.001000,0.001000
1019.884615,-0.009300,0.001000,0.001000,0.001000,0.001000,0.001000
1019.903846,-0.008112,0.001000,0.001000,0.001000,0.001000,0.001000
1019.923077,-0.006920,0.001000,0.001000,0.001000,0.001000,0.001000
1019.942308,-0.005723,0.001000,0.001000,0.001000,0.001000,0.001000
1019.961538,-0.004523,0.001000,0.001000,0.001000,0.001000,0.001000
1019.980769,-0.003321,0.001000,0.001000,0.001000,0.001000,0.001000
1020.000000,-0.002117,0.001000,0.001000,0.001000,0.001000,0.001000
1020.019231,-0.000911,0.001000,0.001000,0.001000,0.001000,0.001000
1020.038462,0.000295,0.001000,0.001000,0.001000,0.001000,0.001000
1020.057692,0.001501,0.001000,0.001000,0.001000,0.001000,0.001000
1020.076923,0.002707,0.001000,0.001000,0.001000,0.001000,0.001000
1020.096154,0.003910,0.001000,0.001000,0.001000,0.001000,0.001000
1020.115385,0.005112,0.001000,0.001000,0.001000,0.001000,0.001000
1020.134615,0.006310,0.001000,0.001000,0.001000,0.001000,0.001000
1020.153846,0.007505,0.001000,0.001000,0.001000,0.001000,0.001000
1020.173077,0.008695,0.001000,0.001000,0.001000,0.001000,0.001000
1020.192308,0.009880,0.001000,0.001000,0.001000,0.001000,0.001000
1020.211538,0.011060,0.001000,0.001000,0.001000,0.001000,0.001000
1020.230769,0.012233,0.001000,0.001000,0.001000,0.001000,0.001000
1020.250000,0.013399,0.001000,0.001000,0.001000,0.001000,0.001000
1020.269231,0.014557,0.001000,0.001000,0.001000,0.001000,0.001000
1020.288462,0.015706,0.001000,0.001000,0.001000,0.001000,0.001000
1020.307692,0.016847,0.001000,0.001000,0.001000,0.001000,0.001000
1020.326923,0.017978,0.001000,0.001000,0.001000,0.001000,0.001000
1020.346154,0.019098,0.001000,0.001000,0.001000,0.001000,0.001000
1020.365385,0.020207,0.001000,0.001000,0.001000,0.001000,0.001000
1020.384615,0.021304,0.001000,0.001000,0.001000,0.001000,0.001000
1020.403846,0.022389,0.001000,0.001000,0.001000,0.001000,0.001000
1020.423077,0.023461,0.001000,0.001000,0.001000,0.001000,0.001000
1020.442308,0.024520,0.001000,0.001000,0.001000,0.001000,0.001000
1020.461538,0.025564,0.001000,0.001000,0.001000,0.001000,0.001000
1020.480769,0.026593,0.001000,0.001000,0.001000,0.001000,0.001000
1020.500000,0.027607,0.001000,0.001000,0.001000,0.001000,0.001000
1020.519231,0.028604,0.001000,0.001000,0.001000,0.001000,0.001000
1020.538462,0.029585,0.001000,0.001000,0.001000,0.001000,0.001000
1020.557692,0.030549,0.001000,0.001000,0.001000,0.001000,0.001000
1020.576923,0.031495,0.001000,0.001000,0.001000,0.001000,0.001000
1020.596154,0.032422,0.001000,0.001000,0.001000,0.001000,0.001000
1020.615385,0.033331,0.001000,0.001000,0.001000,0.001000,0.001000
1020.634615,0.034221,0.001000,0.001000,0.001000,0.001000,0.001000
1020.653846,0.035090,0.001000,0.001000,0.001000,0.001000,0.001000
1020.673077,0.035939,0.001000,0.001000,0.001000,0.001000,0.001000
1020.692308,0.036767,0.001000,0.001000,0.001000,0.001000,0.001000
1020.711538,0.037574,0.001000,0.001000,0.001000,0.001000,0.001000
1020.730769,0.038359,0.001000,0.001000,0.001000,0.001000,0.001000
1020.750000,0.039121,0.001000,0.001000,0.001000,0.001000,0.001000
1020.769231,0.039861,0.001000,0.001000,0.001000,0.001000,0.001000
1020.788462,0.040577,0.001000,0.001000,0.001000,0.001000,0.001000
1020.807692,0.041270,0.001000,0.001000,0.001000,0.001000,0.001000
1020.826923,0.041939,0.001000,0.001000,0.001000,0.001000,0.001000
1020.846154,0.042584,0.001000,0.001000,0.001000,0.001000,0.001000
1020.865385,0.043203,0.001000,0.001000,0.001000,0.001000,0.001000
1020.884615,0.043798,0.001000,0.001000,0.001000,0.001000,0.001000
1020.903846,0.044367,0.001000,0.001000,0.001000,0.001000,0.001000
1020.923077,0.044910,0.001000,0.001000,0.001000,0.001000,0.001000
1020.942308,0.045428,0.001000,0.001000,0.001000,0.001000,0.001000
1020.961538,0.045918,0.001000,0.001000,0.001000,0.001000,0.001000
1020.980769,0.046382,0.001000,0.001000,0.001000,0.001000,0.001000
1021.000000,0.046819,0.001000,0.001000,0.001000,0.001000,0.001000
1021.019231,0.047229,0.001000,0.001000,0.001000,0.001000,0.001000
1021.038462,0.047611,0.001000,0.001000,0.001000,0.001000,0.001000
1021.057692,0.047966,0.001000,0.001000,0.001000,0.001000,0.001000
1021.076923,0.048292,0.001000,0.001000,0.001000,0.001000,0.001000
1021.096154,0.048591,0.001000,0.001000,0.001000,0.001000,0.001000
1021.115385,0.048861,0.001000,0.001000,0.001000,0.001000,0.001000
1021.134615,0.049103,0.001000,0.001000,0.001000,0.001000,0.001000
1021.153846,0.049316,0.001000,0.001000,0.001000,0.001000,0.001000
1021.173077,0.049500,0.001000,0.001000,0.001000,0.001000,0.001000
1021.192308,0.049656,0.001000,0.001000,0.001000,0.001000,0.001000
1021.211538,0.049783,0.001000,0.001000,0.001000,0.001000,0.001000
1021.230769,0.049881,0.001000,0.001000,0.001000,0.001000,0.001000
1021.250000,0.049949,0.001000,0.001000,0.001000,0.001000,0.001000
1021.269231,0.049989,0.001000,0.001000,0.001000,0.001000,0.001000
1021.288462,0.050000,0.001000,0.001000,0.001000,0.001000,0.001000
1021.307692,0.049981,0.001000,0.001000,0.001000,0.001000,0.001000
1021.326923,0.049934,0.001000,0.001000,0.001000,0.001000,0.001000
1021.346154,0.049857,0.001000,0.001000,0.001000,0.001000,0.001000
1021.365385,0.049751,0.001000,0.001000,0.001000,0.001000,0.001000
1021.384615,0.049617,0.001000,0.001000,0.001000,0.001000,0.001000
1021.403846,0.049453,0.001000,0.001000,0.001000,0.001000,0.001000
1021.423077,0.049261,0.001000,0.001000,0.001000,0.001000,0.001000
1021.442308,0.049040,0.001000,0.001000,0.001000,0.001000,0.001000
1021.461538,0.048791,0.001000,0.001000,0.001000,0.001000,0.001000
1021.480769,0.048513,0.001000,0.001000,0.001000,0.001000,0.001000
1021.500000,0.048207,0.001000,0.001000,0.001000,0.001000,0.001000
1021.519231,0.047872,0.001000,0.001000,0.001000,0.001000,0.001000
1021.538462,0.047510,0.001000,0.001000,0.001000,0.001000,0.001000
1021.557692,0.047121,0.001000,0.001000,0.001000,0.001000,0.001000
1021.576923,0.046704,0.001000,0.001000,0.001000,0.001000,0.001000
1021.596154,0.046259,0.001000,0.001000,0.001000,0.001000,0.001000
1021.615385,0.045788,0.001000,0.001000,0.001000,0.001000,0.001000
1021.634615,0.045290,0.001000,0.001000,0.001000,0.001000,0.001000
1021.653846,0.044766,0.001000,0.001000,0.001000,0.001000,0.001000
1021.673077,0.044216,0.001000,0.001000,0.001000,0.001000,0.001000
1021.692308,0.043640,0.001000,0.001000,0.001000,0.001000,0.001000
1021.711538,0.043038,0.001000,0.001000,0.001000,0.001000,0.001000
1021.730769,0.042412,0.001000,0.001000,0.001000,0.001000,0.001000
1021.750000,0.041761,0.001000,0.001000,0.001000,0.001000,0.001000
1021.769231,0.041085,0.001000,0.001000,0.001000,0.001000,0.001000
1021.788462,0.040386,0.001000,0.001000,0.001000,0.001000,0.001000
1021.807692,0.039663,0.001000,0.001000,0.001000,0.001000,0.001000
1021.826923,0.038917,0.001000,0.001000,0.001000,0.001000,0.001000
1021.846154,0.038149,0.001000,0.001000,0.001000,0.001000,0.001000
1021.865385,0.037358,0.001000,0.001000,0.001000,0.001000,0.001000
1021.884615,0.036545,0.001000,0.001000,0.001000,0.001000,0.001000
1021.903846,0.035711,0.001000,0.001000,0.001000,0.001000,0.001000
1021.923077,0.034857,0.001000,0.001000,0.001000,0.001000,0.001000
1021.942308,0.033982,0.001000,0.001000,0.001000,0.001000,0.001000
1021.961538,0.033087,0.001000,0.001000,0.001000,0.001000,0.001000
1021.980769,0.032173,0.001000,0.001000,0.001000,0.001000,0.001000
1022.000000,0.031241,0.001000,0.001000,0.001000,0.001000,0.001000
1022.019231,0.030290,0.001000,0.001000,0.001000,0.001000,0.001000
1022.038462,0.029322,0.001000,0.001000,0.001000,0.001000,0.001000
1022.057692,0.028336,0.001000,0.001000,0.001000,0.001000,0.001000
1022.076923,0.027334,0.001000,0.001000,0.001000,0.001000,0.001000
1022.096154,0.026316,0.001000,0.001000,0.001000,0.001000,0.001000
1022.115385,0.025283,0.001000,0.001000,0.001000,0.001000,0.001000
1022.134615,0.024235,0.001000,0.001000,0.001000,0.001000,0.001000
1022.153846,0.023173,0.001000,0.001000,0.001000,0.001000,0.001000
1022.173077,0.022097,0.001000,0.001000,0.001000,0.001000,0.001000
1022.192308,0.021009,0.001000,0.001000,0.001000,0.001000,0.001000
1022.211538,0.019908,0.001000,0.001000,0.001000,0.001000,0.001000
1022.230769,0.018796,0.001000,0.001000,0.001000,0.001000,0.001000
1022.250000,0.017673,0.001000,0.001000,0.001000,0.001000,0.001000
1022.269231,0.016539,0.001000,0.001000,0.001000,0.001000,0.001000
1022.288462,0.015396,0.001000,0.001000,0.001000,0.001000,0.001000
1022.307692,0.014244,0.001000,0.001000,0.001000,0.001000,0.001000
1022.326923,0.013084,0.001000,0.001000,0.001000,0.001000,0.001000
1022.346154,0.011916,0.001000,0.001000,0.001000,0.001000,0.001000
1022.365385,0.010741,0.001000,0.001000,0.001000,0.001000,0.001000
1022.384615,0.009560,0.001000,0.001000,0.001000,0.001000,0.001000
1022.403846,0.008373,0.001000,0.001000,0.001000,0.001000,0.001000
1022.423077,0.007182,0.001000,0.001000,0.001000,0.001000,0.001000
1022.442308,0.005986,0.001000,0.001000,0.001000,0.001000,0.001000
1022.461538,0.004787,0.001000,0.001000,0.001000,0.001000,0.001000
1022.480769,0.003585,0.001000,0.001000,0.001000,0.001000,0.001000
1022.500000,0.002381,0.001000,0.001000,0.001000,0.001000,0.001000
1022.519231,0.001175,0.001000,0.001000,0.001000,0.001000,0.001000
1022.538462,-0.000031,0.001000,0.001000,0.001000,0.001000,0.001000
1022.557692,-0.001237,0.001000,0.001000,0.001000,0.001000,0.001000
1022.576923,-0.002442,0.001000,0.001000,0.001000,0.001000,0.001000
1022.596154,-0.003646,0.001000,0.001000,0.001000,0.001000,0.001000
1022.615385,-0.004848,0.001000,0.001000,0.001000,0.001000,0.001000
1022.634615,-0.006047,0.001000,0.001000,0.001000,0.001000,0.001000
1022.653846,-0.007243,0.001000,0.001000,0.001000,0.001000,0.001000
1022.673077,-0.008434,0.001000,0.001000,0.001000,0.001000,0.001000
1022.692308,-0.009621,0.001000,0.001000,0.001000,0.001000,0.001000
1022.711538,-0.010801,0.001000,0.001000,0.001000,0.001000,0.001000
1022.730769,-0.011976,0.001000,0.001000,0.001000,0.001000,0.001000
1022.750000,-0.013143,0.001000,0.001000,0.001000,0.001000,0.001000
1022.769231,-0.014303,0.001000,0.001000,0.001000,0.001000,0.001000
1022.788462,-0.015455,0.001000,0.001000,0.001000,0.001000,0.001000
1022.807692,-0.016598,0.001000,0.001000,0.001000,0.001000,0.001000
1022.826923,-0.017730,0.001000,0.001000,0.001000,0.001000,0.001000
1022.846154,-0.018853,0.001000,0.001000,0.001000,0.001000,0.001000
1022.865385,-0.019965,0.001000,0.001000,0.001000,0.001000,0.001000
1022.884615,-0.021065,0.001000,0.001000,0.001000,0.001000,0.001000
1022.903846,-0.022152,0.001000,0.001000,0.001000,0.001000,0.001000
1022.923077,-0.023227,0.001000,0.001000,0.001000,0.001000,0.001000
1022.942308,-0.024289,0.001000,0.001000,0.001000,0.001000,0.001000
1022.961538,-0.025336,0.001000,0.001000,0.001000,0.001000,0.001000
1022.980769,-0.026368,0.001000,0.001000,0.001000,0.001000,0.001000
1023.000000,-0.027385,0.001000,0.001000,0.001000,0.001000,0.001000
1023.019231,-0.028387,0.001000,0.001000,0.001000,0.001000,0.001000
1023.038462,-0.029371,0.001000,0.001000,0.001000,0.001000,0.001000
1023.057692,-0.030339,0.001000,0.001000,0.001000,0.001000,0.001000
1023.076923,-0.031289,0.001000,0.001000,0.001000,0.001000,0.001000
1023.096154,-0.032220,0.001000,0.001000,0.001000,0.001000,0.001000
1023.115385,-0.033133,0.001000,0.001000,0.001000,0.001000,0.001000
1023.134615,-0.034027,0.001000,0.001000,0.001000,0.001000,0.001000
1023.153846,-0.034901,0.001000,0.001000,0.001000,0.001000,0.001000
1023.173077,-0.035754,0.001000,0.001000,0.001000,0.001000,0.001000
1023.192308,-0.036587,0.001000,0.001000,0.001000,0.001000,0.001000
1023.211538,-0.037399,0.001000,0.001000,0.001000,0.001000,0.001000
1023.230769,-0.038188,0.001000,0.001000,0.001000,0.001000,0.001000
1023.250000,-0.038956,0.001000,0.001000,0.001000,0.001000,0.001000
1023.269231,-0.039701,0.001000,0.001000,0.001000,0.001000,0.001000
1023.288462,-0.040422,0.001000,0.001000,0.001000,0.001000,0.001000
1023.307692,-0.041120,0.001000,0.001000,0.001000,0.001000,0.001000
1023.326923,-0.041795,0.001000,0.001000,0.001000,0.001000,0.001000
1023.346154,-0.042444,0.001000,0.001000,0.001000,0.001000,0.001000
1023.365385,-0.043070,0.001000,0.001000,0.001000,0.001000,0.001000
1023.384615,-0.043670,0.001000,0.001000,0.001000,0.001000,0.001000
1023.403846,-0.044244,0.001000,0.001000,0.001000,0.001000,0.001000
1023.423077,-0.044793,0.001000,0.001000,0.001000,0.001000,0.001000
1023.442308,-0.045316,0.001000,0.001000,0.001000,0.001000,0.001000
1023.461538,-0.045813,0.001000,0.001000,0.001000,0.001000,0.001000
1023.480769,-0.046283,0.001000,0.001000,0.001000,0.001000,0.001000
1023.500000,-0.046726,0.001000,0.001000,0.001000,0.001000,0.001000
1023.519231,-0.047141,0.001000,0.001000,0.001000,0.001000,0.001000
1023.538462,-0.047530,0.001000,0.001000,0.001000,0.001000,0.001000
1023.557692,-0.047890,0.001000,0.001000,0.001000,0.001000,0.001000
1023.576923,-0.048223,0.001000,0.001000,0.001000,0.001000,0.001000
1023.596154,-0.048528,0.001000,0.001000,0.001000,0.001000,0.001000
1023.615385,-0.048804,0.001000,0.001000,0.001000,0.001000,0.001000
1023.634615,-0.049052,0.001000,0.001000,0.001000,0.001000,0.001000
1023.653846,-0.049272,0.001000,0.001000,0.001000,0.001000,0.001000
1023.673077,-0.049462,0.001000,0.001000,0.001000,0.001000,0.001000
1023.692308,-0.049624,0.001000,0.001000,0.001000,0.001000,0.001000
1023.711538,-0.049757,0.001000,0.001000,0.001000,0.001000,0.001000
1023.730769,-0.049862,0.001000,0.001000,0.001000,0.001000,0.001000
1023.750000,-0.049937,0.001000,0.001000,0.001000,0.001000,0.001000
1023.769231,-0.049983,0.001000,0.001000,0.001000,0.001000,0.001000
1023.788462,-0.050000,0.001000,0.001000,0.001000,0.001000,0.001000
1023.807692,-0.049988,0.001000,0.001000,0.001000,0.001000,0.001000
1023.826923,-0.049947,0.001000,0.001000,0.001000,0.001000,0.001000
1023.846154,-0.049876,0.001000,0.001000,0.001000,0.001000,0.001000
1023.865385,-0.049777,0.001000,0.001000,0.001000,0.001000,0.001000
1023.884615,-0.049649,0.001000,0.001000,0.001000,0.001000,0.001000
1023.903846,-0.049492,0.001000,0.001000,0.001000,0.001000,0.001000
1023.923077,-0.049306,0.001000,0.001000,0.001000,0.001000,0.001000
1023.942308,-0.049091,0.001000,0.001000,0.001000,0.001000,0.001000
1023.961538,-0.048848,0.001000,0.001000,0.001000,0.001000,0.001000
1023.980769,-0.048576,0.001000,0.001000,0.001000,0.001000,0.001000
1024.000000,-0.048276,0.001000,0.001000,0.001000,0.001000,0.001000
1024.019231,-0.047948,0.001000,0.001000,0.001000,0.001000,0.001000
1024.038462,-0.047592,0.001000,0.001000,0.001000,0.001000,0.001000
1024.057692,-0.047209,0.001000,0.001000,0.001000,0.001000,0.001000
1024.076923,-0.046797,0.001000,0.001000,0.001000,0.001000,0.001000
1024.096154,-0.046359,0.001000,0.001000,0.001000,0.001000,0.001000
1024.115385,-0.045894,0.001000,0.001000,0.001000,0.001000,0.001000
1024.134615,-0.045402,0.001000,0.001000,0.001000,0.001000,0.001000
1024.153846,-0.044883,0.001000,0.001000,0.001000,0.001000,0.001000
1024.173077,-0.044339,0.001000,0.001000,0.001000,0.001000,0.001000
1024.192308,-0.043768,0.001000,0.001000,0.001000,0.001000,0.001000
1024.211538,-0.043172,0.001000,0.001000,0.001000,0.001000,0.001000
1024.230769,-0.042552,0.001000,0.001000,0.001000,0.001000,0.001000
1024.250000,-0.041906,0.001000,0.001000,0.001000,0.001000,0.001000
1024.269231,-0.041236,0.001000,0.001000,0.001000,0.001000,0.001000
1024.288462,-0.040541,0.001000,0.001000,0.001000,0.001000,0.001000
1024.307692,-0.039824,0.001000,0.001000,0.001000,0.001000,0.001000
1024.326923,-0.039083,0.001000,0.001000,0.001000,0.001000,0.001000
1024.346154,-0.038319,0.001000,0.001000,0.001000,0.001000,0.001000
1024.365385,-0.037533,0.001000,0.001000,0.001000,0.001000,0.001000
1024.384615,-0.036725,0.001000,0.001000,0.001000,0.001000,0.001000
1024.403846,-0.035896,0.001000,0.001000,0.001000,0.001000,0.001000
1024.423077,-0.035046,0.001000,0.001000,0.001000,0.001000,0.001000
1024.442308,-0.034176,0.001000,0.001000,0.001000,0.001000,0.001000
1024.461538,-0.033285,0.001000,0.001000,0.001000,0.001000,0.001000
1024.480769,-0.032376,0.001000,0.001000,0.001000,0.001000,0.001000
1024.500000,-0.031447,0.001000,0.001000,0.001000,0.001000,0.001000
1024.519231,-0.030500,0.001000,0.001000,0.001000,0.001000,0.001000
1024.538462,-0.029535,0.001000,0.001000,0.001000,0.001000,0.001000
1024.557692,-0.028554,0.001000,0.001000,0.001000,0.001000,0.001000
1024.576923,-0.027555,0.001000,0.001000,0.001000,0.001000,0.001000
1024.596154,-0.026541,0.001000,0.001000,0.001000,0.001000,0.001000
1024.615385,-0.025511,0.001000,0.001000,0.001000,0.001000,0.001000
1024.634615,-0.024466,0.001000,0.001000,0.001000,0.001000,0.001000
1024.653846,-0.023407,0.001000,0.001000,0.001000,0.001000,0.001000
1024.673077,-0.022334,0.001000,0.001000,0.001000,0.001000,0.001000
1024.692308,-0.021249,0.001000,0.001000,0.001000,0.001000,0.001000
1024.711538,-0.020151,0.001000,0.001000,0.001000,0.001000,0.001000
1024.730769,-0.019041,0.001000,0.001000,0.001000,0.001000,0.001000
1024.750000,-0.017920,0.001000,0.001000,0.001000,0.001000,0.001000
1024.769231,-0.016789,0.001000,0.001000,0.001000,0.001000,0.001000
1024.788462,-0.015648,0.001000,0.001000,0.001000,0.001000,0.001000
1024.807692,-0.014498,0.001000,0.001000,0.001000,0.001000,0.001000
1024.826923,-0.013339,0.001000,0.001000,0.001000,0.001000,0.001000
1024.846154,-0.012173,0.001000,0.001000,0.001000,0.001000,0.001000
1024.865385,-0.011000,0.001000,0.001000,0.001000,0.001000,0.001000
1024.884615,-0.009820,0.001000,0.001000,0.001000,0.001000,0.001000
1024.903846,-0.008634,0.001000,0.001000,0.001000,0.001000,0.001000
1024.923077,-0.007444,0.001000,0.001000,0.001000,0.001000,0.001000
1024.942308,-0.006249,0.001000,0.001000,0.001000,0.001000,0.001000
1024.961538,-0.005050,0.001000,0.001000,0.001000,0.001000,0.001000
1024.980769,-0.003849,0.001000,0.001000,0.001000,0.001000,0.001000
1025.000000,-0.002645,0.001000,0.001000,0.001000,0.001000,0.001000
1025.019231,-0.001440,0.001000,0.001000,0.001000,0.001000,0.001000
1025.038462,-0.000234,0.001000,0.001000,0.001000,0.001000,0.001000
1025.057692,0.000972,0.001000,0.001000,0.001000,0.001000,0.001000
1025.076923,0.002178,0.001000,0.001000,0.001000,0.001000,0.001000
1025.096154,0.003382,0.001000,0.001000,0.001000,0.001000,0.001000
1025.115385,0.004585,0.001000,0.001000,0.001000,0.001000,0.001000
1025.134615,0.005784,0.001000,0.001000,0.001000,0.001000,0.001000
1025.153846,0.006981,0.001000,0.001000,0.001000,0.001000,0.001000
1025.173077,0.008173,0.001000,0.001000,0.001000,0.001000,0.001000
1025.192308,0.009361,0.001000,0.001000,0.001000,0.001000,0.001000
1025.211538,0.010543,0.001000,0.001000,0.001000,0.001000,0.001000
1025.230769,0.011719,0.001000,0.001000,0.001000,0.001000,0.001000
1025.250000,0.012888,0.001000,0.001000,0.001000,0.001000,0.001000
1025.269231,0.014050,0.001000,0.001000,0.001000,0.001000,0.001000
1025.288462,0.015203,0.001000,0.001000,0.001000,0.001000,0.001000
1025.307692,0.016348,0.001000,0.001000,0.001000,0.001000,0.001000
1025.326923,0.017483,0.001000,0.001000,0.001000,0.001000,0.001000
1025.346154,0.018608,0.001000,0.001000,0.001000,0.001000,0.001000
1025.365385,0.019722,0.001000,0.001000,0.001000,0.001000,0.001000
1025.384615,0.020824,0.001000,0.001000,0.001000,0.001000,0.001000
1025.403846,0.021915,0.001000,0.001000,0.001000,0.001000,0.001000
1025.423077,0.022993,0.001000,0.001000,0.001000,0.001000,0.001000
1025.442308,0.024057,0.001000,0.001000,0.001000,0.001000,0.001000
1025.461538,0.025107,0.001000,0.001000,0.001000,0.001000,0.001000
1025.480769,0.026143,0.001000,0.001000,0.001000,0.001000,0.001000
1025.500000,0.027164,0.001000,0.001000,0.001000,0.001000,0.001000
1025.519231,0.028168,0.001000,0.001000,0.001000,0.001000,0.001000
1025.538462,0.029157,0.001000,0.001000,0.001000,0.001000,0.001000
1025.557692,0.030128,0.001000,0.001000,0.001000,0.001000,0.001000
1025.576923,0.031082,0.001000,0.001000,0.001000,0.001000,0.001000
1025.596154,0.032018,0.001000,0.001000,0.001000,0.001000,0.001000
1025.615385,0.032935,0.001000,0.001000,0.001000,0.001000,0.001000
1025.634615,0.033833,0.001000,0.001000,0.001000,0.001000,0.001000
1025.653846,0.034711,0.001000,0.001000,0.001000,0.001000,0.001000
1025.673077,0.035569,0.001000,0.001000,0.001000,0.001000,0.001000
1025.692308,0.036406,0.001000,0.001000,0.001000,0.001000,0.001000
1025.711538,0.037222,0.001000,0.001000,0.001000,0.001000,0.001000
1025.730769,0.038017,0.001000,0.001000,0.001000,0.001000,0.001000
1025.750000,0.038789,0.001000,0.001000,0.001000,0.001000,0.001000
1025.769231,0.039539,0.001000,0.001000,0.001000,0.001000,0.001000
1025.788462,0.040266,0.001000,0.001000,0.001000,0.001000,0.001000
1025.807692,0.040969,0.001000,0.001000,0.001000,0.001000,0.001000
1025.826923,0.041649,0.001000,0.001000,0.001000,0.001000,0.001000
1025.846154,0.042304,0.001000,0.001000,0.001000,0.001000,0.001000
1025.865385,0.042935,0.001000,0.001000,0.001000,0.001000,0.001000
1025.884615,0.043540,0.001000,0.001000,0.001000,0.001000,0.001000
1025.903846,0.044121,0.001000,0.001000,0.001000,0.001000,0.001000
1025.923077,0.044675,0.001000,0.001000,0.001000,0.001000,0.001000
1025.942308,0.045204,0.001000,0.001000,0.001000,0.001000,0.001000
1025.961538,0.045706,0.001000,0.001000,0.001000,0.001000,0.001000
1025.980769,0.046182,0.001000,0.001000,0.001000,0.001000,0.001000
1026.000000,0.046631,0.001000,0.001000,0.001000,0.001000,0.001000
1026.019231,0.047052,0.001000,0.001000,0.001000,0.001000,0.001000
1026.038462,0.047447,0.001000,0.001000,0.001000,0.001000,0.001000
1026.057692,0.047813,0.001000,0.001000,0.001000,0.001000,0.001000
1026.076923,0.048152,0.001000,0.001000,0.001000,0.001000,0.001000
1026.096154,0.048463,0.001000,0.001000,0.001000,0.001000,0.001000
1026.115385,0.048746,0.001000,0.001000,0.001000,0.001000,0.001000
1026.134615,0.049000,0.001000,0.001000,0.001000,0.001000,0.001000
1026.153846,0.049226,0.001000,0.001000,0.001000,0.001000,0.001000
1026.173077,0.049423,0.001000,0.001000,0.001000,0.001000,0.001000
1026.192308,0.049591,0.001000,0.001000,0.001000,0.001000,0.001000
1026.211538,0.049731,0.001000,0.001000,0.001000,0.001000,0.001000
1026.230769,0.049841,0.001000,0.001000,0.001000,0.001000,0.001000
1026.250000,0.049923,0.001000,0.001000,0.001000,0.001000,0.001000
1026.269231,0.049975,0.001000,0.001000,0.001000,0.001000,0.001000
1026.288462,0.049999,0.001000,0.001000,0.001000,0.001000,0.001000
1026.307692,0.049993,0.001000,0.001000,0.001000,0.001000,0.001000
1026.326923,0.049958,0.001000,0.001000,0.001000,0.001000,0.001000
1026.346154,0.049894,0.001000,0.001000,0.001000,0.001000,0.001000
1026.365385,0.049801,0.001000,0.001000,0.001000,0.001000,0.001000
1026.384615,0.049679,0.001000,0.001000,0.001000,0.001000,0.001000
1026.403846,0.049529,0.001000,0.001000,0.001000,0.001000,0.001000
1026.423077,0.049349,0.001000,0.001000,0.001000,0.001000,0.001000
1026.442308,0.049141,0.001000,0.001000,0.001000,0.001000,0.001000
1026.461538,0.048904,0.001000,0.001000,0.001000,0.001000,0.001000
1026.480769,0.048638,0.001000,0.001000,0.001000,0.001000,0.001000
1026.500000,0.048344,0.001000,0.001000,0.001000,0.001000,0.001000
1026.519231,0.048023,0.001000,0.001000,0.001000,0.001000,0.001000
1026.538462,0.047673,0.001000,0.001000,0.001000,0.001000,0.001000
1026.557692,0.047295,0.001000,0.001000,0.001000,0.001000,0.001000
1026.576923,0.046890,0.001000,0.001000,0.001000,0.001000,0.001000
1026.596154,0.046458,0.001000,0.001000,0.001000,0.001000,0.001000
1026.615385,0.045998,0.001000,0.001000,0.001000,0.001000,0.001000
1026.634615,0.045512,0.001000,0.001000,0.001000,0.001000,0.001000
1026.653846,0.044999,0.001000,0.001000,0.001000,0.001000,0.001000
1026.673077,0.044460,0.001000,0.001000,0.001000,0.001000,0.001000
1026.692308,0.043896,0.001000,0.001000,0.001000,0.001000,0.001000
1026.711538,0.043305,0.001000,0.001000,0.001000,0.001000,0.001000
1026.730769,0.042690,0.001000,0.001000,0.001000,0.001000,0.001000
1026.750000,0.042050,0.001000,0.001000,0.001000,0.001000,0.001000
1026.769231,0.041385,0.001000,0.001000,0.001000,0.001000,0.001000
1026.788462,0.040696,0.001000,0.001000,0.001000,0.001000,0.001000
1026.807692,0.039983,0.001000,0.001000,0.001000,0.001000,0.001000
1026.826923,0.039247,0.001000,0.001000,0.001000,0.001000,0.001000
1026.846154,0.038489,0.001000,0.001000,0.001000,0.001000,0.001000
1026.865385,0.037708,0.001000,0.001000,0.001000,0.001000,0.001000
1026.884615,0.036904,0.001000,0.001000,0.001000,0.001000,0.001000
1026.903846,0.036080,0.001000,0.001000,0.001000,0.001000,0.001000
1026.923077,0.035234,0.001000,0.001000,0.001000,0.001000,0.001000
1026.942308,0.034368,0.001000,0.001000,0.001000,0.001000,0.001000
1026.961538,0.033482,0.001000,0.001000,0.001000,0.001000,0.001000
1026.980769,0.032577,0.001000,0.001000,0.001000,0.001000,0.001000
1027.000000,0.031652,0.001000,0.001000,0.001000,0.001000,0.001000
1027.019231,0.030709,0.001000,0.001000,0.001000,0.001000,0.001000
1027.038462,0.029749,0.001000,0.001000,0.001000,0.001000,0.001000
1027.057692,0.028771,0.001000,0.001000,0.001000,0.001000,0.001000
1027.076923,0.027776,0.001000,0.001000,0.001000,0.001000,0.001000
1027.096154,0.026765,0.001000,0.001000,0.001000,0.001000,0.001000
1027.115385,0.025738,0.001000,0.001000,0.001000,0.001000,0.001000
1027.134615,0.024697,0.001000,0.001000,0.001000,0.001000,0.001000
1027.153846,0.023641,0.001000,0.001000,0.001000,0.001000,0.001000
1027.173077,0.022571,0.001000,0.001000,0.001000,0.001000,0.001000
1027.192308,0.021488,0.001000,0.001000,0.001000,0.001000,0.001000
1027.211538,0.020393,0.001000,0.001000,0.001000,0.001000,0.001000
1027.230769,0.019285,0.001000,0.001000,0.001000,0.001000,0.001000
1027.250000,0.018167,0.001000,0.001000,0.001000,0.001000,0.001000
1027.269231,0.017038,0.001000,0.001000,0.001000,0.001000,0.001000
1027.288462,0.015899,0.001000,0.001000,0.001000,0.001000,0.001000
1027.307692,0.014751,0.001000,0.001000,0.001000,0.001000,0.001000
1027.326923,0.013594,0.001000,0.001000,0.001000,0.001000,0.001000
1027.346154,0.012430,0.001000,0.001000,0.001000,0.001000,0.001000
1027.365385,0.011258,0.001000,0.001000,0.001000,0.001000,0.001000
1027.384615,0.010079,0.001000,0.001000,0.001000,0.001000,0.001000
1027.403846,0.008895,0.001000,0.001000,0.001000,0.001000,0.001000
1027.423077,0.007705,0.001000,0.001000,0.001000,0.001000,0.001000
1027.442308,0.006511,0.001000,0.001000,0.001000,0.001000,0.001000
1027.461538,0.005314,0.001000,0.001000,0.001000,0.001000,0.001000
1027.480769,0.004113,0.001000,0.001000,0.001000,0.001000,0.001000
1027.500000,0.002909,0.001000,0.001000,0.001000,0.001000,0.001000
1027.519231,0.001704,0.001000,0.001000,0.001000,0.001000,0.001000
1027.538462,0.000499,0.001000,0.001000,0.001000,0.001000,0.001000
1027.557692,-0.000708,0.001000,0.001000,0.001000,0.001000,0.001000
1027.576923,-0.001914,0.001000,0.001000,0.001000,0.001000,0.001000
1027.596154,-0.003118,0.001000,0.001000,0.001000,0.001000,0.001000
1027.615385,-0.004321,0.001000,0.001000,0.001000,0.001000,0.001000
1027.634615,-0.005522,0.001000,0.001000,0.001000,0.001000,0.001000
1027.653846,-0.006719,0.001000,0.001000,0.001000,0.001000,0.001000
1027.673077,-0.007912,0.001000,0.001000,0.001000,0.001000,0.001000
1027.692308,-0.009101,0.001000,0.001000,0.001000,0.001000,0.001000
1027.711538,-0.010284,0.001000,0.001000,0.001000,0.001000,0.001000
1027.730769,-0.011461,0.001000,0.001000,0.001000,0.001000,0.001000
1027.750000,-0.012632,0.001000,0.001000,0.001000,0.001000,0.001000
1027.769231,-0.013795,0.001000,0.001000,0.001000,0.001000,0.001000
1027.788462,-0.014951,0.001000,0.001000,0.001000,0.001000,0.001000
1027.807692,-0.016097,0.001000,0.001000,0.001000,0.001000,0.001000
1027.826923,-0.017235,0.001000,0.001000,0.001000,0.001000,0.001000
1027.846154,-0.018362,0.001000,0.001000,0.001000,0.001000,0.001000
1027.865385,-0.019478,0.001000,0.001000,0.001000,0.001000,0.001000
1027.884615,-0.020584,0.001000,0.001000,0.001000,0.001000,0.001000
1027.903846,-0.021677,0.001000,0.001000,0.001000,0.001000,0.001000
1027.923077,-0.022757,0.001000,0.001000,0.001000,0.001000,0.001000
1027.942308,-0.023825,0.001000,0.001000,0.001000,0.001000,0.001000
1027.961538,-0.024878,0.001000,0.001000,0.001000,0.001000,0.001000
1027.980769,-0.025917,0.001000,0.001000,0.001000,0.001000,0.001000
1028.000000,-0.026941,0.001000,0.001000,0.001000,0.001000,0.001000
1028.019231,-0.027949,0.001000,0.001000,0.001000,0.001000,0.001000
1028.038462,-0.028941,0.001000,0.001000,0.001000,0.001000,0.001000
1028.057692,-0.029916,0.001000,0.001000,0.001000,0.001000,0.001000
1028.076923,-0.030874,0.001000,0.001000,0.001000,0.001000,0.001000
1028.096154,-0.031814,0.001000,0.001000,0.001000,0.001000,0.001000
1028.115385,-0.032735,0.001000,0.001000,0.001000,0.001000,0.001000
1028.134615,-0.033637,0.001000,0.001000,0.001000,0.001000,0.001000
1028.153846,-0.034520,0.001000,0.001000,0.001000,0.001000,0.001000
1028.173077,-0.035383,0.001000,0.001000,0.001000,0.001000,0.001000
1028.192308,-0.036224,0.001000,0.001000,0.001000,0.001000,0.001000
1028.211538,-0.037045,0.001000,0.001000,0.001000,0.001000,0.001000
1028.230769,-0.037845,0.001000,0.001000,0.001000,0.001000,0.001000
1028.250000,-0.038622,0.001000,0.001000,0.001000,0.001000,0.001000
1028.269231,-0.039377,0.001000,0.001000,0.001000,0.001000,0.001000
1028.288462,-0.040108,0.001000,0.001000,0.001000,0.001000,0.001000
1028.307692,-0.040817,0.001000,0.001000,0.001000,0.001000,0.001000
1028.326923,-0.041502,0.001000,0.001000,0.001000,0.001000,0.001000
1028.346154,-0.042162,0.001000,0.001000,0.001000,0.001000,0.001000
1028.365385,-0.042798,0.001000,0.001000,0.001000,0.001000,0.001000
1028.384615,-0.043410,0.001000,0.001000,0.001000,0.001000,0.001000
1028.403846,-0.043995,0.001000,0.001000,0.001000,0.001000,0.001000
1028.423077,-0.044556,0.001000,0.001000,0.001000,0.001000,0.001000
1028.442308,-0.045090,0.001000,0.001000,0.001000,0.001000,0.001000
1028.461538,-0.045598,0.001000,0.001000,0.001000,0.001000,0.001000
1028.480769,-0.046080,0.001000,0.001000,0.001000,0.001000,0.001000
1028.500000,-0.046535,0.001000,0.001000,0.001000,0.001000,0.001000
1028.519231,-0.046962,0.001000,0.001000,0.001000,0.001000,0.001000
1028.538462,-0.047363,0.001000,0.001000,0.001000,0.001000,0.001000
1028.557692,-0.047735,0.001000,0.001000,0.001000,0.001000,0.001000
1028.576923,-0.048080,0.001000,0.001000,0.001000,0.001000,0.001000
1028.596154,-0.048397,0.001000,0.001000,0.001000,0.001000,0.001000
1028.615385,-0.048686,0.001000,0.001000,0.001000,0.001000,0.001000
1028.634615,-0.048947,0.001000,0.001000,0.001000,0.001000,0.001000
1028.653846,-0.049179,0.001000,0.001000,0.001000,0.001000,0.001000
1028.673077,-0.049382,0.001000,0.001000,0.001000,0.001000,0.001000
1028.692308,-0.049557,0.001000,0.001000,0.001000,0.001000,0.001000
1028.711538,-0.049703,0.001000,0.001000,0.001000,0.001000,0.001000
1028.730769,-0.049820,0.001000,0.001000,0.001000,0.001000,0.001000
1028.750000,-0.049907,0.001000,0.001000,0.001000,0.001000,0.001000
1028.769231,-0.049966,0.001000,0.001000,0.001000,0.001000,0.001000
1028.788462,-0.049996,0.001000,0.001000,0.001000,0.001000,0.001000
1028.807692,-0.049997,0.001000,0.001000,0.001000,0.001000,0.001000
1028.826923,-0.049968,0.001000,0.001000,0.001000,0.001000,0.001000
1028.846154,-0.049911,0.001000,0.001000,0.001000,0.001000,0.001000
1028.865385,-0.049824,0.001000,0.001000,0.001000,0.001000,0.001000
1028.884615,-0.049709,0.001000,0.001000,0.001000,0.001000,0.001000
1028.903846,-0.049564,0.001000,0.001000,0.001000,0.001000,0.001000
1028.923077,-0.049391,0.001000,0.001000,0.001000,0.001000,0.001000
1028.942308,-0.049189,0.001000,0.001000,0.001000,0.001000,0.001000
1028.961538,-0.048958,0.001000,0.001000,0.001000,0.001000,0.001000
1028.980769,-0.048699,0.001000,0.001000,0.001000,0.001000,0.001000
1029.000000,-0.048411,0.001000,0.001000,0.001000,0.001000,0.001000
1029.019231,-0.048096,0.001000,0.001000,0.001000,0.001000,0.001000
1029.038462,-0.047752,0.001000,0.001000,0.001000,0.001000,0.001000
1029.057692,-0.047380,0.001000,0.001000,0.001000,0.001000,0.001000
1029.076923,-0.046981,0.001000,0.001000,0.001000,0.001000,0.001000
1029.096154,-0.046555,0.001000,0.001000,0.001000,0.001000,0.001000
1029.115385,-0.046101,0.001000,0.001000,0.001000,0.001000,0.001000
1029.134615,-0.045621,0.001000,0.001000,0.001000,0.001000,0.001000
1029.153846,-0.045114,0.001000,0.001000,0.001000,0.001000,0.001000
1029.173077,-0.044581,0.001000,0.001000,0.001000,0.001000,0.001000
1029.192308,-0.044022,0.001000,0.001000,0.001000,0.001000,0.001000
1029.211538,-0.043437,0.001000,0.001000,0.001000,0.001000,0.001000
1029.230769,-0.042827,0.001000,0.001000,0.001000,0.001000,0.001000
1029.250000,-0.042192,0.001000,0.001000,0.001000,0.001000,0.001000
1029.269231,-0.041533,0.001000,0.001000,0.001000,0.001000,0.001000
1029.288462,-0.040849,0.001000,0.001000,0.001000,0.001000,0.001000
1029.307692,-0.040142,0.001000,0.001000,0.001000,0.001000,0.001000
1029.326923,-0.039411,0.001000,0.001000,0.001000,0.001000,0.001000
1029.346154,-0.038657,0.001000,0.001000,0.001000,0.001000,0.001000
1029.365385,-0.037881,0.001000,0.001000,0.001000,0.001000,0.001000
1029.384615,-0.037082,0.001000,0.001000,0.001000,0.001000,0.001000
1029.403846,-0.036263,0.001000,0.001000,0.001000,0.001000,0.001000
1029.423077,-0.035422,0.001000,0.001000,0.001000,0.001000,0.001000
1029.442308,-0.034560,0.001000,0.001000,0.001000,0.001000,0.001000
1029.461538,-0.033678,0.001000,0.001000,0.001000,0.001000,0.001000
1029.480769,-0.032777,0.001000,0.001000,0.001000,0.001000,0.001000
1029.500000,-0.031857,0.001000,0.001000,0.001000,0.001000,0.001000
1029.519231,-0.030918,0.001000,0.001000,0.001000,0.001000,0.001000
1029.538462,-0.029961,0.001000,0.001000,0.001000,0.001000,0.001000
1029.557692,-0.028987,0.001000,0.001000,0.001000,0.001000,0.001000
1029.576923,-0.027995,0.001000,0.001000,0.001000,0.001000,0.001000
1029.596154,-0.026988,0.001000,0.001000,0.001000,0.001000,0.001000
1029.615385,-0.025965,0.001000,0.001000,0.001000,0.001000,0.001000
1029.634615,-0.024926,0.001000,0.001000,0.001000,0.001000,0.001000
1029.653846,-0.023873,0.001000,0.001000,0.001000,0.001000,0.001000
1029.673077,-0.022807,0.001000,0.001000,0.001000,0.001000,0.001000
1029.692308,-0.021727,0.001000,0.001000,0.001000,0.001000,0.001000
1029.711538,-0.020634,0.001000,0.001000,0.001000,0.001000,0.001000
1029.730769,-0.019529,0.001000,0.001000,0.001000,0.001000,0.001000
1029.750000,-0.018413,0.001000,0.001000,0.001000,0.001000,0.001000
1029.769231,-0.017287,0.001000,0.001000,0.001000,0.001000,0.001000
1029.788462,-0.016150,0.001000,0.001000,0.001000,0.001000,0.001000
1029.807692,-0.015004,0.001000,0.001000,0.001000,0.001000,0.001000
1029.826923,-0.013849,0.001000,0.001000,0.001000,0.001000,0.001000
1029.846154,-0.012686,0.001000,0.001000,0.001000,0.001000,0.001000
1029.865385,-0.011515,0.001000,0.001000,0.001000,0.001000,0.001000
1029.884615,-0.010338,0.001000,0.001000,0.001000,0.001000,0.001000
1029.903846,-0.009155,0.001000,0.001000,0.001000,0.001000,0.001000
1029.923077,-0.007967,0.001000,0.001000,0.001000,0.001000,0.001000
1029.942308,-0.006774,0.001000,0.001000,0.001000,0.001000,0.001000
1029.961538,-0.005577,0.001000,0.001000,0.001000,0.001000,0.001000
1029.980769,-0.004376,0.001000,0.001000,0.001000,0.001000,0.001000
1030.000000,0.000000,0.001000,0.001000,0.001000,0.001000,0.001000
1030.019231,0.001242,0.001000,0.001000,0.001000,0.001000,0.001000
1030.038462,0.002483,0.001000,0.001000,0.001000,0.001000,0.001000
1030.057692,0.003723,0.001000,0.001000,0.001000,0.001000,0.001000
1030.076923,0.004960,0.001000,0.001000,0.001000,0.001000,0.001000
1030.096154,0.006195,0.001000,0.001000,0.001000,0.001000,0.001000
1030.115385,0.007425,0.001000,0.001000,0.001000,0.001000,0.001000
1030.134615,0.008651,0.001000,0.001000,0.001000,0.001000,0.001000
1030.153846,0.009872,0.001000,0.001000,0.001000,0.001000,0.001000
1030.173077,0.011086,0.001000,0.001000,0.001000,0.001000,0.001000
1030.192308,0.012294,0.001000,0.001000,0.001000,0.001000,0.001000
1030.211538,0.013494,0.001000,0.001000,0.001000,0.001000,0.001000
1030.230769,0.014686,0.001000,0.001000,0.001000,0.001000,0.001000
1030.250000,0.015869,0.001000,0.001000,0.001000,0.001000,0.001000
1030.269231,0.017042,0.001000,0.001000,0.001000,0.001000,0.001000
1030.288462,0.018204,0.001000,0.001000,0.001000,0.001000,0.001000
1030.307692,0.019355,0.001000,0.001000,0.001000,0.001000,0.001000
1030.326923,0.020494,0.001000,0.001000,0.001000,0.001000,0.001000
1030.346154,0.021621,0.001000,0.001000,0.001000,0.001000,0.001000
1030.365385,0.022734,0.001000,0.001000,0.001000,0.001000,0.001000
1030.384615,0.023833,0.001000,0.001000,0.001000,0.001000,0.001000
1030.403846,0.024918,0.001000,0.001000,0.001000,0.001000,0.001000
1030.423077,0.025987,0.001000,0.001000,0.001000,0.001000,0.001000
1030.442308,0.027040,0.001000,0.001000,0.001000,0.001000,0.001000
1030.461538,0.028076,0.001000,0.001000,0.001000,0.001000,0.001000
1030.480769,0.029095,0.001000,0.001000,0.001000,0.001000,0.001000
1030.500000,0.030097,0.001000,0.001000,0.001000,0.001000,0.001000
1030.519231,0.031079,0.001000,0.001000,0.001000,0.001000,0.001000
1030.538462,0.032042,0.001000,0.001000,0.001000,0.001000,0.001000
1030.557692,0.032986,0.001000,0.001000,0.001000,0.001000,0.001000
1030.576923,0.033909,0.001000,0.001000,0.001000,0.001000,0.001000
1030.596154,0.034811,0.001000,0.001000,0.001000,0.001000,0.001000
1030.615385,0.035692,0.001000,0.001000,0.001000,0.001000,0.001000
1030.634615,0.036551,0.001000,0.001000,0.001000,0.001000,0.001000
1030.653846,0.037387,0.001000,0.001000,0.001000,0.001000,0.001000
1030.673077,0.038200,0.001000,0.001000,0.001000,0.001000,0.001000
1030.692308,0.038990,0.001000,0.001000,0.001000,0.001000,0.001000
1030.711538,0.039755,0.001000,0.001000,0.001000,0.001000,0.001000
1030.730769,0.040496,0.001000,0.001000,0.001000,0.001000,0.001000
1030.750000,0.041212,0.001000,0.001000,0.001000,0.001000,0.001000
1030.769231,0.041903,0.001000,0.001000,0.001000,0.001000,0.001000
1030.788462,0.042568,0.001000,0.001000,0.001000,0.001000,0.001000
1030.807692,0.043206,0.001000,0.001000,0.001000,0.001000,0.001000
1030.826923,0.043818,0.001000,0.001000,0.001000,0.001000,0.001000
1030.846154,0.044403,0.001000,0.001000,0.001000,0.001000,0.001000
1030.865385,0.044960,0.001000,0.001000,0.001000,0.001000,0.001000
1030.884615,0.045489,0.001000,0.001000,0.001000,0.001000,0.001000
1030.903846,0.045991,0.001000,0.001000,0.001000,0.001000,0.001000
1030.923077,0.046464,0.001000,0.001000,0.001000,0.001000,0.001000
1030.942308,0.046908,0.001000,0.001000,0.001000,0.001000,0.001000
1030.961538,0.047324,0.001000,0.001000,0.001000,0.001000,0.001000
1030.980769,0.047710,0.001000,0.001000,0.001000,0.001000,0.001000
1031.000000,0.048067,0.001000,0.001000,0.001000,0.001000,0.001000
1031.019231,0.048394,0.001000,0.001000,0.001000,0.001000,0.001000
1031.038462,0.048692,0.001000,0.001000,0.001000,0.001000,0.001000
1031.057692,0.048959,0.001000,0.001000,0.001000,0.001000,0.001000
1031.076923,0.049196,0.001000,0.001000,0.001000,0.001000,0.001000
1031.096154,0.049403,0.001000,0.001000,0.001000,0.001000,0.001000
1031.115385,0.049579,0.001000,0.001000,0.001000,0.001000,0.001000
1031.134615,0.049724,0.001000,0.001000,0.001000,0.001000,0.001000
1031.153846,0.049839,0.001000,0.001000,0.001000,0.001000,0.001000
1031.173077,0.049923,0.001000,0.001000,0.001000,0.001000,0.001000
1031.192308,0.049977,0.001000,0.001000,0.001000,0.001000,0.001000
1031.211538,0.049999,0.001000,0.001000,0.001000,0.001000,0.001000
1031.230769,0.049991,0.001000,0.001000,0.001000,0.001000,0.001000
1031.250000,0.049952,0.001000,0.001000,0.001000,0.001000,0.001000
1031.269231,0.049882,0.001000,0.001000,0.001000,0.001000,0.001000
1031.288462,0.049781,0.001000,0.001000,0.001000,0.001000,0.001000
1031.307692,0.049649,0.001000,0.001000,0.001000,0.001000,0.001000
1031.326923,0.049487,0.001000,0.001000,0.001000,0.001000,0.001000
1031.346154,0.049294,0.001000,0.001000,0.001000,0.001000,0.001000
1031.365385,0.049071,0.001000,0.001000,0.001000,0.001000,0.001000
1031.384615,0.048818,0.001000,0.001000,0.001000,0.001000,0.001000
1031.403846,0.048534,0.001000,0.001000,0.001000,0.001000,0.001000
1031.423077,0.048221,0.001000,0.001000,0.001000,0.001000,0.001000
1031.442308,0.047877,0.001000,0.001000,0.001000,0.001000,0.001000
1031.461538,0.047505,0.001000,0.001000,0.001000,0.001000,0.001000
1031.480769,0.047102,0.001000,0.001000,0.001000,0.001000,0.001000
1031.500000,0.046671,0.001000,0.001000,0.001000,0.001000,0.001000
1031.519231,0.046211,0.001000,0.001000,0.001000,0.001000,0.001000
1031.538462,0.045723,0.001000,0.001000,0.001000,0.001000,0.001000
1031.557692,0.045206,0.001000,0.001000,0.001000,0.001000,0.001000
1031.576923,0.044661,0.001000,0.001000,0.001000,0.001000,0.001000
1031.596154,0.044089,0.001000,0.001000,0.001000,0.001000,0.001000
1031.615385,0.043490,0.001000,0.001000,0.001000,0.001000,0.001000
1031.634615,0.042863,0.001000,0.001000,0.001000,0.001000,0.001000
1031.653846,0.042211,0.001000,0.001000,0.001000,0.001000,0.001000
1031.673077,0.041532,0.001000,0.001000,0.001000,0.001000,0.001000
1031.692308,0.040828,0.001000,0.001000,0.001000,0.001000,0.001000
1031.711538,0.040098,0.001000,0.001000,0.001000,0.001000,0.001000
1031.730769,0.039344,0.001000,0.001000,0.001000,0.001000,0.001000
1031.750000,0.038565,0.001000,0.001000,0.001000,0.001000,0.001000
1031.769231,0.037763,0.001000,0.001000,0.001000,0.001000,0.001000
1031.788462,0.036937,0.001000,0.001000,0.001000,0.001000,0.001000
1031.807692,0.036089,0.001000,0.001000,0.001000,0.001000,0.001000
1031.826923,0.035218,0.001000,0.001000,0.001000,0.001000,0.001000
1031.846154,0.034325,0.001000,0.001000,0.001000,0.001000,0.001000
1031.865385,0.033412,0.001000,0.001000,0.001000,0.001000,0.001000
1031.884615,0.032477,0.001000,0.001000,0.001000,0.001000,0.001000
1031.903846,0.031523,0.001000,0.001000,0.001000,0.001000,0.001000
1031.923077,0.030549,0.001000,0.001000,0.001000,0.001000,0.001000
1031.942308,0.029556,0.001000,0.001000,0.001000,0.001000,0.001000
1031.961538,0.028545,0.001000,0.001000,0.001000,0.001000,0.001000
1031.980769,0.027517,0.001000,0.001000,0.001000,0.001000,0.001000
1032.000000,0.026471,0.001000,0.001000,0.001000,0.001000,0.001000
1032.019231,0.025410,0.001000,0.001000,0.001000,0.001000,0.001000
1032.038462,0.024332,0.001000,0.001000,0.001000,0.001000,0.001000
1032.057692,0.023240,0.001000,0.001000,0.001000,0.001000,0.001000
1032.076923,0.022133,0.001000,0.001000,0.001000,0.001000,0.001000
1032.096154,0.021012,0.001000,0.001000,0.001000,0.001000,0.001000
1032.115385,0.019879,0.001000,0.001000,0.001000,0.001000,0.001000
1032.134615,0.018733,0.001000,0.001000,0.001000,0.001000,0.001000
1032.153846,0.017575,0.001000,0.001000,0.001000,0.001000,0.001000
1032.173077,0.016407,0.001000,0.001000,0.001000,0.001000,0.001000
1032.192308,0.015229,0.001000,0.001000,0.001000,0.001000,0.001000
1032.211538,0.014041,0.001000,0.001000,0.001000,0.001000,0.001000
1032.230769,0.012845,0.001000,0.001000,0.001000,0.001000,0.001000
1032.250000,0.011641,0.001000,0.001000,0.001000,0.001000,0.001000
1032.269231,0.010429,0.001000,0.001000,0.001000,0.001000,0.001000
1032.288462,0.009211,0.001000,0.001000,0.001000,0.001000,0.001000
1032.307692,0.007988,0.001000,0.001000,0.001000,0.001000,0.001000
1032.326923,0.006759,0.001000,0.001000,0.001000,0.001000,0.001000
1032.346154,0.005526,0.001000,0.001000,0.001000,0.001000,0.001000
1032.365385,0.004290,0.001000,0.001000,0.001000,0.001000,0.001000
1032.384615,0.003052,0.001000,0.001000,0.001000,0.001000,0.001000
1032.403846,0.001811,0.001000,0.001000,0.001000,0.001000,0.001000
1032.423077,0.000569,0.001000,0.001000,0.001000,0.001000,0.001000
1032.442308,-0.000673,0.001000,0.001000,0.001000,0.001000,0.001000
1032.461538,-0.001915,0.001000,0.001000,0.001000,0.001000,0.001000
1032.480769,-0.003155,0.001000,0.001000,0.001000,0.001000,0.001000
1032.500000,-0.004394,0.001000,0.001000,0.001000,0.001000,0.001000
1032.519231,-0.005630,0.001000,0.001000,0.001000,0.001000,0.001000
1032.538462,-0.006862,0.001000,0.001000,0.001000,0.001000,0.001000
1032.557692,-0.008090,0.001000,0.001000,0.001000,0.001000,0.001000
1032.576923,-0.009313,0.001000,0.001000,0.001000,0.001000,0.001000
1032.596154,-0.010531,0.001000,0.001000,0.001000,0.001000,0.001000
1032.615385,-0.011742,0.001000,0.001000,0.001000,0.001000,0.001000
1032.634615,-0.012945,0.001000,0.001000,0.001000,0.001000,0.001000
1032.653846,-0.014141,0.001000,0.001000,0.001000,0.001000,0.001000
1032.673077,-0.015328,0.001000,0.001000,0.001000,0.001000,0.001000
1032.692308,-0.016505,0.001000,0.001000,0.001000,0.001000,0.001000
1032.711538,-0.017673,0.001000,0.001000,0.001000,0.001000,0.001000
1032.730769,-0.018829,0.001000,0.001000,0.001000,0.001000,0.001000
1032.750000,-0.019974,0.001000,0.001000,0.001000,0.001000,0.001000
1032.769231,-0.021106,0.001000,0.001000,0.001000,0.001000,0.001000
1032.788462,-0.022226,0.001000,0.001000,0.001000,0.001000,0.001000
1032.807692,-0.023331,0.001000,0.001000,0.001000,0.001000,0.001000
1032.826923,-0.024423,0.001000,0.001000,0.001000,0.001000,0.001000
1032.846154,-0.025499,0.001000,0.001000,0.001000,0.001000,0.001000
1032.865385,-0.026560,0.001000,0.001000,0.001000,0.001000,0.001000
1032.884615,-0.027604,0.001000,0.001000,0.001000,0.001000,0.001000
1032.903846,-0.028631,0.001000,0.001000,0.001000,0.001000,0.001000
1032.923077,-0.029640,0.001000,0.001000,0.001000,0.001000,0.001000
1032.942308,-0.030631,0.001000,0.001000,0.001000,0.001000,0.001000
1032.961538,-0.031603,0.001000,0.001000,0.001000,0.001000,0.001000
1032.980769,-0.032556,0.001000,0.001000,0.001000,0.001000,0.001000
1033.000000,-0.033489,0.001000,0.001000,0.001000,0.001000,0.001000
1033.019231,-0.034401,0.001000,0.001000,0.001000,0.001000,0.001000
1033.038462,-0.035291,0.001000,0.001000,0.001000,0.001000,0.001000
1033.057692,-0.036160,0.001000,0.001000,0.001000,0.001000,0.001000
1033.076923,-0.037007,0.001000,0.001000,0.001000,0.001000,0.001000
1033.096154,-0.037831,0.001000,0.001000,0.001000,0.001000,0.001000
1033.115385,-0.038631,0.001000,0.001000,0.001000,0.001000,0.001000
1033.134615,-0.039408,0.001000,0.001000,0.001000,0.001000,0.001000
1033.153846,-0.040160,0.001000,0.001000,0.001000,0.001000,0.001000
1033.173077,-0.040888,0.001000,0.001000,0.001000,0.001000,0.001000
1033.192308,-0.041590,0.001000,0.001000,0.001000,0.001000,0.001000
1033.211538,-0.042266,0.001000,0.001000,0.001000,0.001000,0.001000
1033.230769,-0.042917,0.001000,0.001000,0.001000,0.001000,0.001000
1033.250000,-0.043541,0.001000,0.001000,0.001000,0.001000,0.001000
1033.269231,-0.044138,0.001000,0.001000,0.001000,0.001000,0.001000
1033.288462,-0.044708,0.001000,0.001000,0.001000,0.001000,0.001000
1033.307692,-0.045250,0.001000,0.001000,0.001000,0.001000,0.001000
1033.326923,-0.045765,0.001000,0.001000,0.001000,0.001000,0.001000
1033.346154,-0.046251,0.001000,0.001000,0.001000,0.001000,0.001000
1033.365385,-0.046708,0.001000,0.001000,0.001000,0.001000,0.001000
1033.384615,-0.047137,0.001000,0.001000,0.001000,0.001000,0.001000
1033.403846,-0.047537,0.001000,0.001000,0.001000,0.001000,0.001000
1033.423077,-0.047907,0.001000,0.001000,0.001000,0.001000,0.001000
1033.442308,-0.048248,0.001000,0.001000,0.001000,0.001000,0.001000
1033.461538,-0.048559,0.001000,0.001000,0.001000,0.001000,0.001000
1033.480769,-0.048840,0.001000,0.001000,0.001000,0.001000,0.001000
1033.500000,-0.049091,0.001000,0.001000,0.001000,0.001000,0.001000
1033.519231,-0.049312,0.001000,0.001000,0.001000,0.001000,0.001000
1033.538462,-0.049502,0.001000,0.001000,0.001000,0.001000,0.001000
1033.557692,-0.049661,0.001000,0.001000,0.001000,0.001000,0.001000
1033.576923,-0.049790,0.001000,0.001000,0.001000,0.001000,0.001000
1033.596154,-0.049889,0.001000,0.001000,0.001000,0.001000,0.001000
1033.615385,-0.049956,0.001000,0.001000,0.001000,0.001000,0.001000
1033.634615,-0.049993,0.001000,0.001000,0.001000,0.001000,0.001000
1033.653846,-0.049998,0.001000,0.001000,0.001000,0.001000,0.001000
1033.673077,-0.049973,0.001000,0.001000,0.001000,0.001000,0.001000
1033.692308,-0.049917,0.001000,0.001000,0.001000,0.001000,0.001000
1033.711538,-0.049831,0.001000,0.001000,0.001000,0.001000,0.001000
1033.730769,-0.049713,0.001000,0.001000,0.001000,0.001000,0.001000
1033.750000,-0.049565,0.001000,0.001000,0.001000,0.001000,0.001000
1033.769231,-0.049386,0.001000,0.001000,0.001000,0.001000,0.001000
1033.788462,-0.049177,0.001000,0.001000,0.001000,0.001000,0.001000
1033.807692,-0.048938,0.001000,0.001000,0.001000,0.001000,0.001000
1033.826923,-0.048668,0.001000,0.001000,0.001000,0.001000,0.001000
1033.846154,-0.048368,0.001000,0.001000,0.001000,0.001000,0.001000
1033.865385,-0.048038,0.001000,0.001000,0.001000,0.001000,0.001000
1033.884615,-0.047679,0.001000,0.001000,0.001000,0.001000,0.001000
1033.903846,-0.047290,0.001000,0.001000,0.001000,0.001000,0.001000
1033.923077,-0.046872,0.001000,0.001000,0.001000,0.001000,0.001000
1033.942308,-0.046426,0.001000,0.001000,0.001000,0.001000,0.001000
1033.961538,-0.045950,0.001000,0.001000,0.001000,0.001000,0.001000
1033.980769,-0.045446,0.001000,0.001000,0.001000,0.001000,0.001000
1034.000000,-0.044914,0.001000,0.001000,0.001000,0.001000,0.001000
1034.019231,-0.044355,0.001000,0.001000,0.001000,0.001000,0.001000
1034.038462,-0.043768,0.001000,0.001000,0.001000,0.001000,0.001000
1034.057692,-0.043154,0.001000,0.001000,0.001000,0.001000,0.001000
1034.076923,-0.042513,0.001000,0.001000,0.001000,0.001000,0.001000
1034.096154,-0.041846,0.001000,0.001000,0.001000,0.001000,0.001000
1034.115385,-0.041154,0.001000,0.001000,0.001000,0.001000,0.001000
1034.134615,-0.040435,0.001000,0.001000,0.001000,0.001000,0.001000
1034.153846,-0.039692,0.001000,0.001000,0.001000,0.001000,0.001000
1034.173077,-0.038925,0.001000,0.001000,0.001000,0.001000,0.001000
1034.192308,-0.038133,0.001000,0.001000,0.001000,0.001000,0.001000
1034.211538,-0.037318,0.001000,0.001000,0.001000,0.001000,0.001000
1034.230769,-0.036480,0.001000,0.001000,0.001000,0.001000,0.001000
1034.250000,-0.035619,0.001000,0.001000,0.001000,0.001000,0.001000
1034.269231,-0.034737,0.001000,0.001000,0.001000,0.001000,0.001000
1034.288462,-0.033833,0.001000,0.001000,0.001000,0.001000,0.001000
1034.307692,-0.032908,0.001000,0.001000,0.001000,0.001000,0.001000
1034.326923,-0.031963,0.001000,0.001000,0.001000,0.001000,0.001000
1034.346154,-0.030998,0.001000,0.001000,0.001000,0.001000,0.001000
1034.365385,-0.030013,0.001000,0.001000,0.001000,0.001000,0.001000
1034.384615,-0.029011,0.001000,0.001000,0.001000,0.001000,0.001000
1034.403846,-0.027990,0.001000,0.001000,0.001000,0.001000,0.001000
1034.423077,-0.026953,0.001000,0.001000,0.001000,0.001000,0.001000
1034.442308,-0.025898,0.001000,0.001000,0.001000,0.001000,0.001000
1034.461538,-0.024828,0.001000,0.001000,0.001000,0.001000,0.001000
1034.480769,-0.023742,0.001000,0.001000,0.001000,0.001000,0.001000
1034.500000,-0.022642,0.001000,0.001000,0.001000,0.001000,0.001000
1034.519231,-0.021527,0.001000,0.001000,0.001000,0.001000,0.001000
1034.538462,-0.020400,0.001000,0.001000,0.001000,0.001000,0.001000
1034.557692,-0.019259,0.001000,0.001000,0.001000,0.001000,0.001000
1034.576923,-0.018107,0.001000,0.001000,0.001000,0.001000,0.001000
1034.596154,-0.016944,0.001000,0.001000,0.001000,0.001000,0.001000
1034.615385,-0.015770,0.001000,0.001000,0.001000,0.001000,0.001000
1034.634615,-0.014587,0.001000,0.001000,0.001000,0.001000,0.001000
1034.653846,-0.013394,0.001000,0.001000,0.001000,0.001000,0.001000
1034.673077,-0.012193,0.001000,0.001000,0.001000,0.001000,0.001000
