timestamp,ax,ay,az,gx,gy,gz
1000.000000,0.000000,0.001000,0.001000,0.001000,0.001000,0.001000
1000.019231,0.001068,0.001000,0.001000,0.001000,0.001000,0.001000
1000.038462,0.002136,0.001000,0.001000,0.001000,0.001000,0.001000
1000.057692,0.003203,0.001000,0.001000,0.001000,0.001000,0.001000
1000.076923,0.004269,0.001000,0.001000,0.001000,0.001000,0.001000
1000.096154,0.005332,0.001000,0.001000,0.001000,0.001000,0.001000
1000.115385,0.006393,0.001000,0.001000,0.001000,0.001000,0.001000
1000.134615,0.007452,0.001000,0.001000,0.001000,0.001000,0.001000
1000.153846,0.008506,0.001000,0.001000,0.001000,0.001000,0.001000
1000.173077,0.009557,0.001000,0.001000,0.001000,0.001000,0.001000
1000.192308,0.010604,0.001000,0.001000,0.001000,0.001000,0.001000
1000.211538,0.011646,0.001000,0.001000,0.001000,0.001000,0.001000
1000.230769,0.012682,0.001000,0.001000,0.001000,0.001000,0.001000
1000.250000,0.013713,0.001000,0.001000,0.001000,0.001000,0.001000
1000.269231,0.014737,0.001000,0.001000,0.001000,0.001000,0.001000
1000.288462,0.015754,0.001000,0.001000,0.001000,0.001000,0.001000
1000.307692,0.016765,0.001000,0.001000,0.001000,0.001000,0.001000
1000.326923,0.017768,0.001000,0.001000,0.001000,0.001000,0.001000
1000.346154,0.018762,0.001000,0.001000,0.001000,0.001000,0.001000
1000.365385,0.019748,0.001000,0.001000,0.001000,0.001000,0.001000
1000.384615,0.020725,0.001000,0.001000,0.001000,0.001000,0.001000
1000.403846,0.021693,0.001000,0.001000,0.001000,0.001000,0.001000
1000.423077,0.022651,0.001000,0.001000,0.001000,0.001000,0.001000
1000.442308,0.023598,0.001000,0.001000,0.001000,0.001000,0.001000
1000.461538,0.024534,0.001000,0.001000,0.001000,0.001000,0.001000
1000.480769,0.025460,0.001000,0.001000,0.001000,0.001000,0.001000
1000.500000,0.026374,0.001000,0.001000,0.001000,0.001000,0.001000
1000.519231,0.027275,0.001000,0.001000,0.001000,0.001000,0.001000
1000.538462,0.028164,0.001000,0.001000,0.001000,0.001000,0.001000
1000.557692,0.029041,0.001000,0.001000,0.001000,0.001000,0.001000
1000.576923,0.029904,0.001000,0.001000,0.001000,0.001000,0.001000
1000.596154,0.030753,0.001000,0.001000,0.001000,0.001000,0.001000
1000.615385,0.031589,0.001000,0.001000,0.001000,0.001000,0.001000
1000.634615,0.032410,0.001000,0.001000,0.001000,0.001000,0.001000
1000.653846,0.033216,0.001000,0.001000,0.001000,0.001000,0.001000
1000.673077,0.034007,0.001000,0.001000,0.001000,0.001000,0.001000
1000.692308,0.034782,0.001000,0.001000,0.001000,0.001000,0.001000
1000.711538,0.035542,0.001000,0.001000,0.001000,0.001000,0.001000
1000.730769,0.036285,0.001000,0.001000,0.001000,0.001000,0.001000
1000.750000,0.037012,0.001000,0.001000,0.001000,0.001000,0.001000
1000.769231,0.037722,0.001000,0.001000,0.001000,0.001000,0.001000
1000.788462,0.038415,0.001000,0.001000,0.001000,0.001000,0.001000
1000.807692,0.039090,0.001000,0.001000,0.001000,0.001000,0.001000
1000.826923,0.039747,0.001000,0.001000,0.001000,0.001000,0.001000
1000.846154,0.040386,0.001000,0.001000,0.001000,0.001000,0.001000
1000.865385,0.041007,0.001000,0.001000,0.001000,0.001000,0.001000
1000.884615,0.041609,0.001000,0.001000,0.001000,0.001000,0.001000
1000.903846,0.042192,0.001000,0.001000,0.001000,0.001000,0.001000
1000.923077,0.042755,0.001000,0.001000,0.001000,0.001000,0.001000
1000.942308,0.043300,0.001000,0.001000,0.001000,0.001000,0.001000
1000.961538,0.043824,0.001000,0.001000,0.001000,0.001000,0.001000
1000.980769,0.044328,0.001000,0.001000,0.001000,0.001000,0.001000
1001.000000,0.044813,0.001000,0.001000,0.001000,0.001000,0.001000
1001.019231,0.045276,0.001000,0.001000,0.001000,0.001000,0.001000
1001.038462,0.045719,0.001000,0.001000,0.001000,0.001000,0.001000
1001.057692,0.046141,0.001000,0.001000,0.001000,0.001000,0.001000
1001.076923,0.046542,0.001000,0.001000,0.001000,0.001000,0.001000
1001.096154,0.046922,0.001000,0.001000,0.001000,0.001000,0.001000
1001.115385,0.047280,0.001000,0.001000,0.001000,0.001000,0.001000
1001.134615,0.047617,0.001000,0.001000,0.001000,0.001000,0.001000
1001.153846,0.047932,0.001000,0.001000,0.001000,0.001000,0.001000
1001.173077,0.048225,0.001000,0.001000,0.001000,0.001000,0.001000
1001.192308,0.048496,0.001000,0.001000,0.001000,0.001000,0.001000
1001.211538,0.048745,0.001000,0.001000,0.001000,0.001000,0.001000
1001.230769,0.048972,0.001000,0.001000,0.001000,0.001000,0.001000
1001.250000,0.049176,0.001000,0.001000,0.001000,0.001000,0.001000
1001.269231,0.049358,0.001000,0.001000,0.001000,0.001000,0.001000
1001.288462,0.049518,0.001000,0.001000,0.001000,0.001000,0.001000
1001.307692,0.049654,0.001000,0.001000,0.001000,0.001000,0.001000
1001.326923,0.049769,0.001000,0.001000,0.001000,0.001000,0.001000
1001.346154,0.049860,0.001000,0.001000,0.001000,0.001000,0.001000
1001.365385,0.049928,0.001000,0.001000,0.001000,0.001000,0.001000
1001.384615,0.049974,0.001000,0.001000,0.001000,0.001000,0.001000
1001.403846,0.049997,0.001000,0.001000,0.001000,0.001000,0.001000
1001.423077,0.049997,0.001000,0.001000,0.001000,0.001000,0.001000
1001.442308,0.049974,0.001000,0.001000,0.001000,0.001000,0.001000
1001.461538,0.049929,0.001000,0.001000,0.001000,0.001000,0.001000
1001.480769,0.049861,0.001000,0.001000,0.001000,0.001000,0.001000
1001.500000,0.049769,0.001000,0.001000,0.001000,0.001000,0.001000
1001.519231,0.049656,0.001000,0.001000,0.001000,0.001000,0.001000
1001.538462,0.049519,0.001000,0.001000,0.001000,0.001000,0.001000
1001.557692,0.049360,0.001000,0.001000,0.001000,0.001000,0.001000
1001.576923,0.049178,0.001000,0.001000,0.001000,0.001000,0.001000
1001.596154,0.048974,0.001000,0.001000,0.001000,0.001000,0.001000
1001.615385,0.048748,0.001000,0.001000,0.001000,0.001000,0.001000
1001.634615,0.048499,0.001000,0.001000,0.001000,0.001000,0.001000
1001.653846,0.048228,0.001000,0.001000,0.001000,0.001000,0.001000
1001.673077,0.047935,0.001000,0.001000,0.001000,0.001000,0.001000
1001.692308,0.047620,0.001000,0.001000,0.001000,0.001000,0.001000
1001.711538,0.047284,0.001000,0.001000,0.001000,0.001000,0.001000
1001.730769,0.046926,0.001000,0.001000,0.001000,0.001000,0.001000
1001.750000,0.046546,0.001000,0.001000,0.001000,0.001000,0.001000
1001.769231,0.046145,0.001000,0.001000,0.001000,0.001000,0.001000
1001.788462,0.045723,0.001000,0.001000,0.001000,0.001000,0.001000
1001.807692,0.045280,0.001000,0.001000,0.001000,0.001000,0.001000
1001.826923,0.044817,0.001000,0.001000,0.001000,0.001000,0.001000
1001.846154,0.044333,0.001000,0.001000,0.001000,0.001000,0.001000
1001.865385,0.043829,0.001000,0.001000,0.001000,0.001000,0.001000
1001.884615,0.043305,0.001000,0.001000,0.001000,0.001000,0.001000
1001.903846,0.042761,0.001000,0.001000,0.001000,0.001000,0.001000
1001.923077,0.042197,0.001000,0.001000,0.001000,0.001000,0.001000
1001.942308,0.041614,0.001000,0.001000,0.001000,0.001000,0.001000
1001.961538,0.041013,0.001000,0.001000,0.001000,0.001000,0.001000
1001.980769,0.040392,0.001000,0.001000,0.001000,0.001000,0.001000
1002.000000,0.039753,0.001000,0.001000,0.001000,0.001000,0.001000
1002.019231,0.039096,0.001000,0.001000,0.001000,0.001000,0.001000
1002.038462,0.038421,0.001000,0.001000,0.001000,0.001000,0.001000
1002.057692,0.037729,0.001000,0.001000,0.001000,0.001000,0.001000
1002.076923,0.037019,0.001000,0.001000,0.001000,0.001000,0.001000
1002.096154,0.036292,0.001000,0.001000,0.001000,0.001000,0.001000
1002.115385,0.035549,0.001000,0.001000,0.001000,0.001000,0.001000
1002.134615,0.034790,0.001000,0.001000,0.001000,0.001000,0.001000
1002.153846,0.034014,0.001000,0.001000,0.001000,0.001000,0.001000
1002.173077,0.033223,0.001000,0.001000,0.001000,0.001000,0.001000
1002.192308,0.032417,0.001000,0.001000,0.001000,0.001000,0.001000
1002.211538,0.031596,0.001000,0.001000,0.001000,0.001000,0.001000
1002.230769,0.030761,0.001000,0.001000,0.001000,0.001000,0.001000
1002.250000,0.029912,0.001000,0.001000,0.001000,0.001000,0.001000
1002.269231,0.029049,0.001000,0.001000,0.001000,0.001000,0.001000
1002.288462,0.028173,0.001000,0.001000,0.001000,0.001000,0.001000
1002.307692,0.027284,0.001000,0.001000,0.001000,0.001000,0.001000
1002.326923,0.026382,0.001000,0.001000,0.001000,0.001000,0.001000
1002.346154,0.025468,0.001000,0.001000,0.001000,0.001000,0.001000
1002.365385,0.024543,0.001000,0.001000,0.001000,0.001000,0.001000
1002.384615,0.023607,0.001000,0.001000,0.001000,0.001000,0.001000
1002.403846,0.022659,0.001000,0.001000,0.001000,0.001000,0.001000
1002.423077,0.021702,0.001000,0.001000,0.001000,0.001000,0.001000
1002.442308,0.020734,0.001000,0.001000,0.001000,0.001000,0.001000
1002.461538,0.019757,0.001000,0.001000,0.001000,0.001000,0.001000
1002.480769,0.018771,0.001000,0.001000,0.001000,0.001000,0.001000
1002.500000,0.017777,0.001000,0.001000,0.001000,0.001000,0.001000
1002.519231,0.016774,0.001000,0.001000,0.001000,0.001000,0.001000
1002.538462,0.015764,0.001000,0.001000,0.001000,0.001000,0.001000
1002.557692,0.014746,0.001000,0.001000,0.001000,0.001000,0.001000
1002.576923,0.013722,0.001000,0.001000,0.001000,0.001000,0.001000
1002.596154,0.012692,0.001000,0.001000,0.001000,0.001000,0.001000
1002.615385,0.011655,0.001000,0.001000,0.001000,0.001000,0.001000
1002.634615,0.010614,0.001000,0.001000,0.001000,0.001000,0.001000
1002.653846,0.009567,0.001000,0.001000,0.001000,0.001000,0.001000
1002.673077,0.008516,0.001000,0.001000,0.001000,0.001000,0.001000
1002.692308,0.007461,0.001000,0.001000,0.001000,0.001000,0.001000
1002.711538,0.006403,0.001000,0.001000,0.001000,0.001000,0.001000
1002.730769,0.005342,0.001000,0.001000,0.001000,0.001000,0.001000
1002.750000,0.004279,0.001000,0.001000,0.001000,0.001000,0.001000
1002.769231,0.003213,0.001000,0.001000,0.001000,0.001000,0.001000
1002.788462,0.002146,0.001000,0.001000,0.001000,0.001000,0.001000
1002.807692,0.001078,0.001000,0.001000,0.001000,0.001000,0.001000
1002.826923,0.000010,0.001000,0.001000,0.001000,0.001000,0.001000
1002.846154,-0.001059,0.001000,0.001000,0.001000,0.001000,0.001000
1002.865385,-0.002126,0.001000,0.001000,0.001000,0.001000,0.001000
1002.884615,-0.003193,0.001000,0.001000,0.001000,0.001000,0.001000
1002.903846,-0.004259,0.001000,0.001000,0.001000,0.001000,0.001000
1002.923077,-0.005322,0.001000,0.001000,0.001000,0.001000,0.001000
1002.942308,-0.006384,0.001000,0.001000,0.001000,0.001000,0.001000
1002.961538,-0.007442,0.001000,0.001000,0.001000,0.001000,0.001000
1002.980769,-0.008497,0.001000,0.001000,0.001000,0.001000,0.001000
1003.000000,-0.009548,0.001000,0.001000,0.001000,0.001000,0.001000
1003.019231,-0.010594,0.001000,0.001000,0.001000,0.001000,0.001000
1003.038462,-0.011636,0.001000,0.001000,0.001000,0.001000,0.001000
1003.057692,-0.012672,0.001000,0.001000,0.001000,0.001000,0.001000
1003.076923,-0.013703,0.001000,0.001000,0.001000,0.001000,0.001000
1003.096154,-0.014727,0.001000,0.001000,0.001000,0.001000,0.001000
1003.115385,-0.015745,0.001000,0.001000,0.001000,0.001000,0.001000
1003.134615,-0.016756,0.001000,0.001000,0.001000,0.001000,0.001000
1003.153846,-0.017758,0.001000,0.001000,0.001000,0.001000,0.001000
1003.173077,-0.018753,0.001000,0.001000,0.001000,0.001000,0.001000
1003.192308,-0.019739,0.001000,0.001000,0.001000,0.001000,0.001000
1003.211538,-0.020716,0.001000,0.001000,0.001000,0.001000,0.001000
1003.230769,-0.021684,0.001000,0.001000,0.001000,0.001000,0.001000
1003.250000,-0.022642,0.001000,0.001000,0.001000,0.001000,0.001000
1003.269231,-0.023589,0.001000,0.001000,0.001000,0.001000,0.001000
1003.288462,-0.024526,0.001000,0.001000,0.001000,0.001000,0.001000
1003.307692,-0.025451,0.001000,0.001000,0.001000,0.001000,0.001000
1003.326923,-0.026365,0.001000,0.001000,0.001000,0.001000,0.001000
1003.346154,-0.027267,0.001000,0.001000,0.001000,0.001000,0.001000
1003.365385,-0.028156,0.001000,0.001000,0.001000,0.001000,0.001000
1003.384615,-0.029033,0.001000,0.001000,0.001000,0.001000,0.001000
1003.403846,-0.029896,0.001000,0.001000,0.001000,0.001000,0.001000
1003.423077,-0.030746,0.001000,0.001000,0.001000,0.001000,0.001000
1003.442308,-0.031581,0.001000,0.001000,0.001000,0.001000,0.001000
1003.461538,-0.032402,0.001000,0.001000,0.001000,0.001000,0.001000
1003.480769,-0.033208,0.001000,0.001000,0.001000,0.001000,0.001000
1003.500000,-0.034000,0.001000,0.001000,0.001000,0.001000,0.001000
1003.519231,-0.034775,0.001000,0.001000,0.001000,0.001000,0.001000
1003.538462,-0.035535,0.001000,0.001000,0.001000,0.001000,0.001000
1003.557692,-0.036279,0.001000,0.001000,0.001000,0.001000,0.001000
1003.576923,-0.037005,0.001000,0.001000,0.001000,0.001000,0.001000
1003.596154,-0.037716,0.001000,0.001000,0.001000,0.001000,0.001000
1003.615385,-0.038408,0.001000,0.001000,0.001000,0.001000,0.001000
1003.634615,-0.039084,0.001000,0.001000,0.001000,0.001000,0.001000
1003.653846,-0.039741,0.001000,0.001000,0.001000,0.001000,0.001000
1003.673077,-0.040380,0.001000,0.001000,0.001000,0.001000,0.001000
1003.692308,-0.041001,0.001000,0.001000,0.001000,0.001000,0.001000
1003.711538,-0.041603,0.001000,0.001000,0.001000,0.001000,0.001000
1003.730769,-0.042186,0.001000,0.001000,0.001000,0.001000,0.001000
1003.750000,-0.042750,0.001000,0.001000,0.001000,0.001000,0.001000
1003.769231,-0.043295,0.001000,0.001000,0.001000,0.001000,0.001000
1003.788462,-0.043819,0.001000,0.001000,0.001000,0.001000,0.001000
1003.807692,-0.044324,0.001000,0.001000,0.001000,0.001000,0.001000
1003.826923,-0.044808,0.001000,0.001000,0.001000,0.001000,0.001000
1003.846154,-0.045272,0.001000,0.001000,0.001000,0.001000,0.001000
1003.865385,-0.045715,0.001000,0.001000,0.001000,0.001000,0.001000
1003.884615,-0.046137,0.001000,0.001000,0.001000,0.001000,0.001000
1003.903846,-0.046539,0.001000,0.001000,0.001000,0.001000,0.001000
1003.923077,-0.046919,0.001000,0.001000,0.001000,0.001000,0.001000
1003.942308,-0.047277,0.001000,0.001000,0.001000,0.001000,0.001000
1003.961538,-0.047614,0.001000,0.001000,0.001000,0.001000,0.001000
1003.980769,-0.047929,0.001000,0.001000,0.001000,0.001000,0.001000
1004.000000,-0.048223,0.001000,0.001000,0.001000,0.001000,0.001000
1004.019231,-0.048494,0.001000,0.001000,0.001000,0.001000,0.001000
1004.038462,-0.048743,0.001000,0.001000,0.001000,0.001000,0.001000
1004.057692,-0.048970,0.001000,0.001000,0.001000,0.001000,0.001000
1004.076923,-0.049175,0.001000,0.001000,0.001000,0.001000,0.001000
1004.096154,-0.049357,0.001000,0.001000,0.001000,0.001000,0.001000
1004.115385,-0.049516,0.001000,0.001000,0.001000,0.001000,0.001000
1004.134615,-0.049653,0.001000,0.001000,0.001000,0.001000,0.001000
1004.153846,-0.049768,0.001000,0.001000,0.001000,0.001000,0.001000
1004.173077,-0.049859,0.001000,0.001000,0.001000,0.001000,0.001000
1004.192308,-0.049928,0.001000,0.001000,0.001000,0.001000,0.001000
1004.211538,-0.049974,0.001000,0.001000,0.001000,0.001000,0.001000
1004.230769,-0.049997,0.001000,0.001000,0.001000,0.001000,0.001000
1004.250000,-0.049997,0.001000,0.001000,0.001000,0.001000,0.001000
1004.269231,-0.049975,0.001000,0.001000,0.001000,0.001000,0.001000
1004.288462,-0.049929,0.001000,0.001000,0.001000,0.001000,0.001000
1004.307692,-0.049861,0.001000,0.001000,0.001000,0.001000,0.001000
1004.326923,-0.049770,0.001000,0.001000,0.001000,0.001000,0.001000
1004.346154,-0.049657,0.001000,0.001000,0.001000,0.001000,0.001000
1004.365385,-0.049520,0.001000,0.001000,0.001000,0.001000,0.001000
1004.384615,-0.049362,0.001000,0.001000,0.001000,0.001000,0.001000
1004.403846,-0.049180,0.001000,0.001000,0.001000,0.001000,0.001000
1004.423077,-0.048976,0.001000,0.001000,0.001000,0.001000,0.001000
1004.442308,-0.048750,0.001000,0.001000,0.001000,0.001000,0.001000
1004.461538,-0.048501,0.001000,0.001000,0.001000,0.001000,0.001000
1004.480769,-0.048231,0.001000,0.001000,0.001000,0.001000,0.001000
1004.500000,-0.047938,0.001000,0.001000,0.001000,0.001000,0.001000
1004.519231,-0.047623,0.001000,0.001000,0.001000,0.001000,0.001000
1004.538462,-0.047287,0.001000,0.001000,0.001000,0.001000,0.001000
1004.557692,-0.046929,0.001000,0.001000,0.001000,0.001000,0.001000
1004.576923,-0.046550,0.001000,0.001000,0.001000,0.001000,0.001000
1004.596154,-0.046149,0.001000,0.001000,0.001000,0.001000,0.001000
1004.615385,-0.045727,0.001000,0.001000,0.001000,0.001000,0.001000
1004.634615,-0.045285,0.001000,0.001000,0.001000,0.001000,0.001000
1004.653846,-0.044821,0.001000,0.001000,0.001000,0.001000,0.001000
1004.673077,-0.044338,0.001000,0.001000,0.001000,0.001000,0.001000
1004.692308,-0.043834,0.001000,0.001000,0.001000,0.001000,0.001000
1004.711538,-0.043310,0.001000,0.001000,0.001000,0.001000,0.001000
1004.730769,-0.042766,0.001000,0.001000,0.001000,0.001000,0.001000
1004.750000,-0.042202,0.001000,0.001000,0.001000,0.001000,0.001000
1004.769231,-0.041620,0.001000,0.001000,0.001000,0.001000,0.001000
1004.788462,-0.041018,0.001000,0.001000,0.001000,0.001000,0.001000
1004.807692,-0.040398,0.001000,0.001000,0.001000,0.001000,0.001000
1004.826923,-0.039759,0.001000,0.001000,0.001000,0.001000,0.001000
1004.846154,-0.039102,0.001000,0.001000,0.001000,0.001000,0.001000
1004.865385,-0.038427,0.001000,0.001000,0.001000,0.001000,0.001000
1004.884615,-0.037735,0.001000,0.001000,0.001000,0.001000,0.001000
1004.903846,-0.037025,0.001000,0.001000,0.001000,0.001000,0.001000
1004.923077,-0.036299,0.001000,0.001000,0.001000,0.001000,0.001000
1004.942308,-0.035556,0.001000,0.001000,0.001000,0.001000,0.001000
1004.961538,-0.034797,0.001000,0.001000,0.001000,0.001000,0.001000
1004.980769,-0.034021,0.001000,0.001000,0.001000,0.001000,0.001000
1005.000000,-0.033231,0.001000,0.001000,0.001000,0.001000,0.001000
1005.019231,-0.032425,0.001000,0.001000,0.001000,0.001000,0.001000
1005.038462,-0.031604,0.001000,0.001000,0.001000,0.001000,0.001000
1005.057692,-0.030769,0.001000,0.001000,0.001000,0.001000,0.001000
1005.076923,-0.029920,0.001000,0.001000,0.001000,0.001000,0.001000
1005.096154,-0.029057,0.001000,0.001000,0.001000,0.001000,0.001000
1005.115385,-0.028181,0.001000,0.001000,0.001000,0.001000,0.001000
1005.134615,-0.027292,0.001000,0.001000,0.001000,0.001000,0.001000
1005.153846,-0.026390,0.001000,0.001000,0.001000,0.001000,0.001000
1005.173077,-0.025477,0.001000,0.001000,0.001000,0.001000,0.001000
1005.192308,-0.024552,0.001000,0.001000,0.001000,0.001000,0.001000
1005.211538,-0.023615,0.001000,0.001000,0.001000,0.001000,0.001000
1005.230769,-0.022668,0.001000,0.001000,0.001000,0.001000,0.001000
1005.250000,-0.021711,0.001000,0.001000,0.001000,0.001000,0.001000
1005.269231,-0.020743,0.001000,0.001000,0.001000,0.001000,0.001000
1005.288462,-0.019766,0.001000,0.001000,0.001000,0.001000,0.001000
1005.307692,-0.018781,0.001000,0.001000,0.001000,0.001000,0.001000
1005.326923,-0.017786,0.001000,0.001000,0.001000,0.001000,0.001000
1005.346154,-0.016784,0.001000,0.001000,0.001000,0.001000,0.001000
1005.365385,-0.015773,0.001000,0.001000,0.001000,0.001000,0.001000
1005.384615,-0.014756,0.001000,0.001000,0.001000,0.001000,0.001000
1005.403846,-0.013732,0.001000,0.001000,0.001000,0.001000,0.001000
1005.423077,-0.012701,0.001000,0.001000,0.001000,0.001000,0.001000
1005.442308,-0.011665,0.001000,0.001000,0.001000,0.001000,0.001000
1005.461538,-0.010623,0.001000,0.001000,0.001000,0.001000,0.001000
1005.480769,-0.009577,0.001000,0.001000,0.001000,0.001000,0.001000
1005.500000,-0.008526,0.001000,0.001000,0.001000,0.001000,0.001000
1005.519231,-0.007471,0.001000,0.001000,0.001000,0.001000,0.001000
1005.538462,-0.006413,0.001000,0.001000,0.001000,0.001000,0.001000
1005.557692,-0.005352,0.001000,0.001000,0.001000,0.001000,0.001000
1005.576923,-0.004289,0.001000,0.001000,0.001000,0.001000,0.001000
1005.596154,-0.003223,0.001000,0.001000,0.001000,0.001000,0.001000
1005.615385,-0.002156,0.001000,0.001000,0.001000,0.001000,0.001000
1005.634615,-0.001088,0.001000,0.001000,0.001000,0.001000,0.001000
1005.653846,-0.000020,0.001000,0.001000,0.001000,0.001000,0.001000
1005.673077,0.001049,0.001000,0.001000,0.001000,0.001000,0.001000
1005.692308,0.002117,0.001000,0.001000,0.001000,0.001000,0.001000
1005.711538,0.003184,0.001000,0.001000,0.001000,0.001000,0.001000
1005.730769,0.004249,0.001000,0.001000,0.001000,0.001000,0.001000
1005.750000,0.005313,0.001000,0.001000,0.001000,0.001000,0.001000
1005.769231,0.006374,0.001000,0.001000,0.001000,0.001000,0.001000
1005.788462,0.007432,0.001000,0.001000,0.001000,0.001000,0.001000
1005.807692,0.008487,0.001000,0.001000,0.001000,0.001000,0.001000
1005.826923,0.009538,0.001000,0.001000,0.001000,0.001000,0.001000
1005.846154,0.010585,0.001000,0.001000,0.001000,0.001000,0.001000
1005.865385,0.011626,0.001000,0.001000,0.001000,0.001000,0.001000
1005.884615,0.012663,0.001000,0.001000,0.001000,0.001000,0.001000
1005.903846,0.013693,0.001000,0.001000,0.001000,0.001000,0.001000
1005.923077,0.014718,0.001000,0.001000,0.001000,0.001000,0.001000
1005.942308,0.015736,0.001000,0.001000,0.001000,0.001000,0.001000
1005.961538,0.016746,0.001000,0.001000,0.001000,0.001000,0.001000
1005.980769,0.017749,0.001000,0.001000,0.001000,0.001000,0.001000
1006.000000,0.018744,0.001000,0.001000,0.001000,0.001000,0.001000
1006.019231,0.019730,0.001000,0.001000,0.001000,0.001000,0.001000
1006.038462,0.020707,0.001000,0.001000,0.001000,0.001000,0.001000
1006.057692,0.021675,0.001000,0.001000,0.001000,0.001000,0.001000
1006.076923,0.022633,0.001000,0.001000,0.001000,0.001000,0.001000
1006.096154,0.023580,0.001000,0.001000,0.001000,0.001000,0.001000
1006.115385,0.024517,0.001000,0.001000,0.001000,0.001000,0.001000
1006.134615,0.025443,0.001000,0.001000,0.001000,0.001000,0.001000
1006.153846,0.026357,0.001000,0.001000,0.001000,0.001000,0.001000
1006.173077,0.027259,0.001000,0.001000,0.001000,0.001000,0.001000
1006.192308,0.028148,0.001000,0.001000,0.001000,0.001000,0.001000
1006.211538,0.029025,0.001000,0.001000,0.001000,0.001000,0.001000
1006.230769,0.029888,0.001000,0.001000,0.001000,0.001000,0.001000
1006.250000,0.030738,0.001000,0.001000,0.001000,0.001000,0.001000
1006.269231,0.031573,0.001000,0.001000,0.001000,0.001000,0.001000
1006.288462,0.032395,0.001000,0.001000,0.001000,0.001000,0.001000
1006.307692,0.033201,0.001000,0.001000,0.001000,0.001000,0.001000
1006.326923,0.033992,0.001000,0.001000,0.001000,0.001000,0.001000
1006.346154,0.034768,0.001000,0.001000,0.001000,0.001000,0.001000
1006.365385,0.035528,0.001000,0.001000,0.001000,0.001000,0.001000
1006.384615,0.036272,0.001000,0.001000,0.001000,0.001000,0.001000
1006.403846,0.036999,0.001000,0.001000,0.001000,0.001000,0.001000
1006.423077,0.037709,0.001000,0.001000,0.001000,0.001000,0.001000
1006.442308,0.038402,0.001000,0.001000,0.001000,0.001000,0.001000
1006.461538,0.039077,0.001000,0.001000,0.001000,0.001000,0.001000
1006.480769,0.039735,0.001000,0.001000,0.001000,0.001000,0.001000
1006.500000,0.040375,0.001000,0.001000,0.001000,0.001000,0.001000
1006.519231,0.040996,0.001000,0.001000,0.001000,0.001000,0.001000
1006.538462,0.041598,0.001000,0.001000,0.001000,0.001000,0.001000
1006.557692,0.042181,0.001000,0.001000,0.001000,0.001000,0.001000
1006.576923,0.042745,0.001000,0.001000,0.001000,0.001000,0.001000
1006.596154,0.043290,0.001000,0.001000,0.001000,0.001000,0.001000
1006.615385,0.043814,0.001000,0.001000,0.001000,0.001000,0.001000
1006.634615,0.044319,0.001000,0.001000,0.001000,0.001000,0.001000
1006.653846,0.044804,0.001000,0.001000,0.001000,0.001000,0.001000
1006.673077,0.045268,0.001000,0.001000,0.001000,0.001000,0.001000
1006.692308,0.045711,0.001000,0.001000,0.001000,0.001000,0.001000
1006.711538,0.046134,0.001000,0.001000,0.001000,0.001000,0.001000
1006.730769,0.046535,0.001000,0.001000,0.001000,0.001000,0.001000
1006.750000,0.046915,0.001000,0.001000,0.001000,0.001000,0.001000
1006.769231,0.047274,0.001000,0.001000,0.001000,0.001000,0.001000
1006.788462,0.047611,0.001000,0.001000,0.001000,0.001000,0.001000
1006.807692,0.047927,0.001000,0.001000,0.001000,0.001000,0.001000
1006.826923,0.048220,0.001000,0.001000,0.001000,0.001000,0.001000
1006.846154,0.048492,0.001000,0.001000,0.001000,0.001000,0.001000
1006.865385,0.048741,0.001000,0.001000,0.001000,0.001000,0.001000
1006.884615,0.048968,0.001000,0.001000,0.001000,0.001000,0.001000
1006.903846,0.049173,0.001000,0.001000,0.001000,0.001000,0.001000
1006.923077,0.049355,0.001000,0.001000,0.001000,0.001000,0.001000
1006.942308,0.049515,0.001000,0.001000,0.001000,0.001000,0.001000
1006.961538,0.049652,0.001000,0.001000,0.001000,0.001000,0.001000
1006.980769,0.049767,0.001000,0.001000,0.001000,0.001000,0.001000
1007.000000,0.049858,0.001000,0.001000,0.001000,0.001000,0.001000
1007.019231,0.049927,0.001000,0.001000,0.001000,0.001000,0.001000
1007.038462,0.049974,0.001000,0.001000,0.001000,0.001000,0.001000
1007.057692,0.049997,0.001000,0.001000,0.001000,0.001000,0.001000
1007.076923,0.049997,0.001000,0.001000,0.001000,0.001000,0.001000
1007.096154,0.049975,0.001000,0.001000,0.001000,0.001000,0.001000
1007.115385,0.049930,0.001000,0.001000,0.001000,0.001000,0.001000
1007.134615,0.049862,0.001000,0.001000,0.001000,0.001000,0.001000
1007.153846,0.049771,0.001000,0.001000,0.001000,0.001000,0.001000
1007.173077,0.049658,0.001000,0.001000,0.001000,0.001000,0.001000
1007.192308,0.049522,0.001000,0.001000,0.001000,0.001000,0.001000
1007.211538,0.049363,0.001000,0.001000,0.001000,0.001000,0.001000
1007.230769,0.049182,0.001000,0.001000,0.001000,0.001000,0.001000
1007.250000,0.048978,0.001000,0.001000,0.001000,0.001000,0.001000
1007.269231,0.048752,0.001000,0.001000,0.001000,0.001000,0.001000
1007.288462,0.048504,0.001000,0.001000,0.001000,0.001000,0.001000
1007.307692,0.048233,0.001000,0.001000,0.001000,0.001000,0.001000
1007.326923,0.047941,0.001000,0.001000,0.001000,0.001000,0.001000
1007.346154,0.047626,0.001000,0.001000,0.001000,0.001000,0.001000
1007.365385,0.047290,0.001000,0.001000,0.001000,0.001000,0.001000
1007.384615,0.046932,0.001000,0.001000,0.001000,0.001000,0.001000
1007.403846,0.046553,0.001000,0.001000,0.001000,0.001000,0.001000
1007.423077,0.046153,0.001000,0.001000,0.001000,0.001000,0.001000
1007.442308,0.045731,0.001000,0.001000,0.001000,0.001000,0.001000
1007.461538,0.045289,0.001000,0.001000,0.001000,0.001000,0.001000
1007.480769,0.044826,0.001000,0.001000,0.001000,0.001000,0.001000
1007.500000,0.044342,0.001000,0.001000,0.001000,0.001000,0.001000
1007.519231,0.043838,0.001000,0.001000,0.001000,0.001000,0.001000
1007.538462,0.043314,0.001000,0.001000,0.001000,0.001000,0.001000
1007.557692,0.042771,0.001000,0.001000,0.001000,0.001000,0.001000
1007.576923,0.042208,0.001000,0.001000,0.001000,0.001000,0.001000
1007.596154,0.041625,0.001000,0.001000,0.001000,0.001000,0.001000
1007.615385,0.041024,0.001000,0.001000,0.001000,0.001000,0.001000
1007.634615,0.040404,0.001000,0.001000,0.001000,0.001000,0.001000
1007.653846,0.039765,0.001000,0.001000,0.001000,0.001000,0.001000
1007.673077,0.039108,0.001000,0.001000,0.001000,0.001000,0.001000
1007.692308,0.038434,0.001000,0.001000,0.001000,0.001000,0.001000
1007.711538,0.037742,0.001000,0.001000,0.001000,0.001000,0.001000
1007.730769,0.037032,0.001000,0.001000,0.001000,0.001000,0.001000
1007.750000,0.036306,0.001000,0.001000,0.001000,0.001000,0.001000
1007.769231,0.035563,0.001000,0.001000,0.001000,0.001000,0.001000
1007.788462,0.034804,0.001000,0.001000,0.001000,0.001000,0.001000
1007.807692,0.034029,0.001000,0.001000,0.001000,0.001000,0.001000
1007.826923,0.033238,0.001000,0.001000,0.001000,0.001000,0.001000
1007.846154,0.032432,0.001000,0.001000,0.001000,0.001000,0.001000
1007.865385,0.031612,0.001000,0.001000,0.001000,0.001000,0.001000
1007.884615,0.030777,0.001000,0.001000,0.001000,0.001000,0.001000
1007.903846,0.029928,0.001000,0.001000,0.001000,0.001000,0.001000
1007.923077,0.029065,0.001000,0.001000,0.001000,0.001000,0.001000
1007.942308,0.028189,0.001000,0.001000,0.001000,0.001000,0.001000
1007.961538,0.027300,0.001000,0.001000,0.001000,0.001000,0.001000
1007.980769,0.026399,0.001000,0.001000,0.001000,0.001000,0.001000
1008.000000,0.025485,0.001000,0.001000,0.001000,0.001000,0.001000
1008.019231,0.024560,0.001000,0.001000,0.001000,0.001000,0.001000
1008.038462,0.023624,0.001000,0.001000,0.001000,0.001000,0.001000
1008.057692,0.022677,0.001000,0.001000,0.001000,0.001000,0.001000
1008.076923,0.021720,0.001000,0.001000,0.001000,0.001000,0.001000
1008.096154,0.020752,0.001000,0.001000,0.001000,0.001000,0.001000
1008.115385,0.019776,0.001000,0.001000,0.001000,0.001000,0.001000
1008.134615,0.018790,0.001000,0.001000,0.001000,0.001000,0.001000
1008.153846,0.017795,0.001000,0.001000,0.001000,0.001000,0.001000
1008.173077,0.016793,0.001000,0.001000,0.001000,0.001000,0.001000
1008.192308,0.015783,0.001000,0.001000,0.001000,0.001000,0.001000
1008.211538,0.014765,0.001000,0.001000,0.001000,0.001000,0.001000
1008.230769,0.013741,0.001000,0.001000,0.001000,0.001000,0.001000
1008.250000,0.012711,0.001000,0.001000,0.001000,0.001000,0.001000
1008.269231,0.011674,0.001000,0.001000,0.001000,0.001000,0.001000
1008.288462,0.010633,0.001000,0.001000,0.001000,0.001000,0.001000
1008.307692,0.009587,0.001000,0.001000,0.001000,0.001000,0.001000
1008.326923,0.008536,0.001000,0.001000,0.001000,0.001000,0.001000
1008.346154,0.007481,0.001000,0.001000,0.001000,0.001000,0.001000
1008.365385,0.006423,0.001000,0.001000,0.001000,0.001000,0.001000
1008.384615,0.005362,0.001000,0.001000,0.001000,0.001000,0.001000
1008.403846,0.004298,0.001000,0.001000,0.001000,0.001000,0.001000
1008.423077,0.003233,0.001000,0.001000,0.001000,0.001000,0.001000
1008.442308,0.002166,0.001000,0.001000,0.001000,0.001000,0.001000
1008.461538,0.001098,0.001000,0.001000,0.001000,0.001000,0.001000
1008.480769,0.000030,0.001000,0.001000,0.001000,0.001000,0.001000
1008.500000,-0.001039,0.001000,0.001000,0.001000,0.001000,0.001000
1008.519231,-0.002107,0.001000,0.001000,0.001000,0.001000,0.001000
1008.538462,-0.003174,0.001000,0.001000,0.001000,0.001000,0.001000
1008.557692,-0.004239,0.001000,0.001000,0.001000,0.001000,0.001000
1008.576923,-0.005303,0.001000,0.001000,0.001000,0.001000,0.001000
1008.596154,-0.006364,0.001000,0.001000,0.001000,0.001000,0.001000
1008.615385,-0.007422,0.001000,0.001000,0.001000,0.001000,0.001000
1008.634615,-0.008477,0.001000,0.001000,0.001000,0.001000,0.001000
1008.653846,-0.009528,0.001000,0.001000,0.001000,0.001000,0.001000
1008.673077,-0.010575,0.001000,0.001000,0.001000,0.001000,0.001000
1008.692308,-0.011617,0.001000,0.001000,0.001000,0.001000,0.001000
1008.711538,-0.012653,0.001000,0.001000,0.001000,0.001000,0.001000
1008.730769,-0.013684,0.001000,0.001000,0.001000,0.001000,0.001000
1008.750000,-0.014708,0.001000,0.001000,0.001000,0.001000,0.001000
1008.769231,-0.015726,0.001000,0.001000,0.001000,0.001000,0.001000
1008.788462,-0.016737,0.001000,0.001000,0.001000,0.001000,0.001000
1008.807692,-0.017740,0.001000,0.001000,0.001000,0.001000,0.001000
1008.826923,-0.018735,0.001000,0.001000,0.001000,0.001000,0.001000
1008.846154,-0.019721,0.001000,0.001000,0.001000,0.001000,0.001000
1008.865385,-0.020698,0.001000,0.001000,0.001000,0.001000,0.001000
1008.884615,-0.021666,0.001000,0.001000,0.001000,0.001000,0.001000
1008.903846,-0.022624,0.001000,0.001000,0.001000,0.001000,0.001000
1008.923077,-0.023572,0.001000,0.001000,0.001000,0.001000,0.001000
1008.942308,-0.024509,0.001000,0.001000,0.001000,0.001000,0.001000
1008.961538,-0.025434,0.001000,0.001000,0.001000,0.001000,0.001000
1008.980769,-0.026348,0.001000,0.001000,0.001000,0.001000,0.001000
1009.000000,-0.027250,0.001000,0.001000,0.001000,0.001000,0.001000
1009.019231,-0.028140,0.001000,0.001000,0.001000,0.001000,0.001000
1009.038462,-0.029017,0.001000,0.001000,0.001000,0.001000,0.001000
1009.057692,-0.029880,0.001000,0.001000,0.001000,0.001000,0.001000
1009.076923,-0.030730,0.001000,0.001000,0.001000,0.001000,0.001000
1009.096154,-0.031566,0.001000,0.001000,0.001000,0.001000,0.001000
1009.115385,-0.032387,0.001000,0.001000,0.001000,0.001000,0.001000
1009.134615,-0.033194,0.001000,0.001000,0.001000,0.001000,0.001000
1009.153846,-0.033985,0.001000,0.001000,0.001000,0.001000,0.001000
1009.173077,-0.034761,0.001000,0.001000,0.001000,0.001000,0.001000
1009.192308,-0.035521,0.001000,0.001000,0.001000,0.001000,0.001000
1009.211538,-0.036265,0.001000,0.001000,0.001000,0.001000,0.001000
1009.230769,-0.036992,0.001000,0.001000,0.001000,0.001000,0.001000
1009.250000,-0.037703,0.001000,0.001000,0.001000,0.001000,0.001000
1009.269231,-0.038396,0.001000,0.001000,0.001000,0.001000,0.001000
1009.288462,-0.039071,0.001000,0.001000,0.001000,0.001000,0.001000
1009.307692,-0.039729,0.001000,0.001000,0.001000,0.001000,0.001000
1009.326923,-0.040369,0.001000,0.001000,0.001000,0.001000,0.001000
1009.346154,-0.040990,0.001000,0.001000,0.001000,0.001000,0.001000
1009.365385,-0.041592,0.001000,0.001000,0.001000,0.001000,0.001000
1009.384615,-0.042176,0.001000,0.001000,0.001000,0.001000,0.001000
1009.403846,-0.042740,0.001000,0.001000,0.001000,0.001000,0.001000
1009.423077,-0.043285,0.001000,0.001000,0.001000,0.001000,0.001000
1009.442308,-0.043810,0.001000,0.001000,0.001000,0.001000,0.001000
1009.461538,-0.044315,0.001000,0.001000,0.001000,0.001000,0.001000
1009.480769,-0.044799,0.001000,0.001000,0.001000,0.001000,0.001000
1009.500000,-0.045264,0.001000,0.001000,0.001000,0.001000,0.001000
1009.519231,-0.045707,0.001000,0.001000,0.001000,0.001000,0.001000
1009.538462,-0.046130,0.001000,0.001000,0.001000,0.001000,0.001000
1009.557692,-0.046531,0.001000,0.001000,0.001000,0.001000,0.001000
1009.576923,-0.046912,0.001000,0.001000,0.001000,0.001000,0.001000
1009.596154,-0.047271,0.001000,0.001000,0.001000,0.001000,0.001000
1009.615385,-0.047608,0.001000,0.001000,0.001000,0.001000,0.001000
1009.634615,-0.047924,0.001000,0.001000,0.001000,0.001000,0.001000
1009.653846,-0.048218,0.001000,0.001000,0.001000,0.001000,0.001000
1009.673077,-0.048489,0.001000,0.001000,0.001000,0.001000,0.001000
1009.692308,-0.048739,0.001000,0.001000,0.001000,0.001000,0.001000
1009.711538,-0.048966,0.001000,0.001000,0.001000,0.001000,0.001000
1009.730769,-0.049171,0.001000,0.001000,0.001000,0.001000,0.001000
1009.750000,-0.049354,0.001000,0.001000,0.001000,0.001000,0.001000
1009.769231,-0.049514,0.001000,0.001000,0.001000,0.001000,0.001000
1009.788462,-0.049651,0.001000,0.001000,0.001000,0.001000,0.001000
1009.807692,-0.049766,0.001000,0.001000,0.001000,0.001000,0.001000
1009.826923,-0.049858,0.001000,0.001000,0.001000,0.001000,0.001000
1009.846154,-0.049927,0.001000,0.001000,0.001000,0.001000,0.001000
1009.865385,-0.049973,0.001000,0.001000,0.001000,0.001000,0.001000
1009.884615,-0.049997,0.001000,0.001000,0.001000,0.001000,0.001000
1009.903846,-0.049998,0.001000,0.001000,0.001000,0.001000,0.001000
1009.923077,-0.049975,0.001000,0.001000,0.001000,0.001000,0.001000
1009.942308,-0.049931,0.001000,0.001000,0.001000,0.001000,0.001000
1009.961538,-0.049863,0.001000,0.001000,0.001000,0.001000,0.001000
1009.980769,-0.049772,0.001000,0.001000,0.001000,0.001000,0.001000
1010.000000,-0.049659,0.001000,0.001000,0.001000,0.001000,0.001000
1010.019231,-0.049523,0.001000,0.001000,0.001000,0.001000,0.001000
1010.038462,-0.049365,0.001000,0.001000,0.001000,0.001000,0.001000
1010.057692,-0.049184,0.001000,0.001000,0.001000,0.001000,0.001000
1010.076923,-0.048980,0.001000,0.001000,0.001000,0.001000,0.001000
1010.096154,-0.048754,0.001000,0.001000,0.001000,0.001000,0.001000
1010.115385,-0.048506,0.001000,0.001000,0.001000,0.001000,0.001000
1010.134615,-0.048236,0.001000,0.001000,0.001000,0.001000,0.001000
1010.153846,-0.047944,0.001000,0.001000,0.001000,0.001000,0.001000
1010.173077,-0.047629,0.001000,0.001000,0.001000,0.001000,0.001000
1010.192308,-0.047293,0.001000,0.001000,0.001000,0.001000,0.001000
1010.211538,-0.046936,0.001000,0.001000,0.001000,0.001000,0.001000
1010.230769,-0.046557,0.001000,0.001000,0.001000,0.001000,0.001000
1010.250000,-0.046157,0.001000,0.001000,0.001000,0.001000,0.001000
1010.269231,-0.045735,0.001000,0.001000,0.001000,0.001000,0.001000
1010.288462,-0.045293,0.001000,0.001000,0.001000,0.001000,0.001000
1010.307692,-0.044830,0.001000,0.001000,0.001000,0.001000,0.001000
1010.326923,-0.044347,0.001000,0.001000,0.001000,0.001000,0.001000
1010.346154,-0.043843,0.001000,0.001000,0.001000,0.001000,0.001000
1010.365385,-0.043319,0.001000,0.001000,0.001000,0.001000,0.001000
1010.384615,-0.042776,0.001000,0.001000,0.001000,0.001000,0.001000
1010.403846,-0.042213,0.001000,0.001000,0.001000,0.001000,0.001000
1010.423077,-0.041631,0.001000,0.001000,0.001000,0.001000,0.001000
1010.442308,-0.041030,0.001000,0.001000,0.001000,0.001000,0.001000
1010.461538,-0.040410,0.001000,0.001000,0.001000,0.001000,0.001000
1010.480769,-0.039771,0.001000,0.001000,0.001000,0.001000,0.001000
1010.500000,-0.039115,0.001000,0.001000,0.001000,0.001000,0.001000
1010.519231,-0.038440,0.001000,0.001000,0.001000,0.001000,0.001000
1010.538462,-0.037748,0.001000,0.001000,0.001000,0.001000,0.001000
1010.557692,-0.037039,0.001000,0.001000,0.001000,0.001000,0.001000
1010.576923,-0.036313,0.001000,0.001000,0.001000,0.001000,0.001000
1010.596154,-0.035570,0.001000,0.001000,0.001000,0.001000,0.001000
1010.615385,-0.034811,0.001000,0.001000,0.001000,0.001000,0.001000
1010.634615,-0.034036,0.001000,0.001000,0.001000,0.001000,0.001000
1010.653846,-0.033246,0.001000,0.001000,0.001000,0.001000,0.001000
1010.673077,-0.032440,0.001000,0.001000,0.001000,0.001000,0.001000
1010.692308,-0.031619,0.001000,0.001000,0.001000,0.001000,0.001000
1010.711538,-0.030785,0.001000,0.001000,0.001000,0.001000,0.001000
1010.730769,-0.029936,0.001000,0.001000,0.001000,0.001000,0.001000
1010.750000,-0.029073,0.001000,0.001000,0.001000,0.001000,0.001000
1010.769231,-0.028197,0.001000,0.001000,0.001000,0.001000,0.001000
1010.788462,-0.027308,0.001000,0.001000,0.001000,0.001000,0.001000
1010.807692,-0.026407,0.001000,0.001000,0.001000,0.001000,0.001000
1010.826923,-0.025494,0.001000,0.001000,0.001000,0.001000,0.001000
1010.846154,-0.024569,0.001000,0.001000,0.001000,0.001000,0.001000
1010.865385,-0.023633,0.001000,0.001000,0.001000,0.001000,0.001000
1010.884615,-0.022686,0.001000,0.001000,0.001000,0.001000,0.001000
1010.903846,-0.021729,0.001000,0.001000,0.001000,0.001000,0.001000
1010.923077,-0.020761,0.001000,0.001000,0.001000,0.001000,0.001000
1010.942308,-0.019785,0.001000,0.001000,0.001000,0.001000,0.001000
1010.961538,-0.018799,0.001000,0.001000,0.001000,0.001000,0.001000
1010.980769,-0.017805,0.001000,0.001000,0.001000,0.001000,0.001000
1011.000000,-0.016802,0.001000,0.001000,0.001000,0.001000,0.001000
1011.019231,-0.015792,0.001000,0.001000,0.001000,0.001000,0.001000
1011.038462,-0.014775,0.001000,0.001000,0.001000,0.001000,0.001000
1011.057692,-0.013751,0.001000,0.001000,0.001000,0.001000,0.001000
1011.076923,-0.012720,0.001000,0.001000,0.001000,0.001000,0.001000
1011.096154,-0.011684,0.001000,0.001000,0.001000,0.001000,0.001000
1011.115385,-0.010643,0.001000,0.001000,0.001000,0.001000,0.001000
1011.134615,-0.009596,0.001000,0.001000,0.001000,0.001000,0.001000
1011.153846,-0.008545,0.001000,0.001000,0.001000,0.001000,0.001000
1011.173077,-0.007491,0.001000,0.001000,0.001000,0.001000,0.001000
1011.192308,-0.006433,0.001000,0.001000,0.001000,0.001000,0.001000
1011.211538,-0.005372,0.001000,0.001000,0.001000,0.001000,0.001000
1011.230769,-0.004308,0.001000,0.001000,0.001000,0.001000,0.001000
1011.250000,-0.003243,0.001000,0.001000,0.001000,0.001000,0.001000
1011.269231,-0.002176,0.001000,0.001000,0.001000,0.001000,0.001000
1011.288462,-0.001108,0.001000,0.001000,0.001000,0.001000,0.001000
1011.307692,-0.000040,0.001000,0.001000,0.001000,0.001000,0.001000
1011.326923,0.001029,0.001000,0.001000,0.001000,0.001000,0.001000
1011.346154,0.002097,0.001000,0.001000,0.001000,0.001000,0.001000
1011.365385,0.003164,0.001000,0.001000,0.001000,0.001000,0.001000
1011.384615,0.004229,0.001000,0.001000,0.001000,0.001000,0.001000
1011.403846,0.005293,0.001000,0.001000,0.001000,0.001000,0.001000
1011.423077,0.006354,0.001000,0.001000,0.001000,0.001000,0.001000
1011.442308,0.007412,0.001000,0.001000,0.001000,0.001000,0.001000
1011.461538,0.008467,0.001000,0.001000,0.001000,0.001000,0.001000
1011.480769,0.009518,0.001000,0.001000,0.001000,0.001000,0.001000
1011.500000,0.010565,0.001000,0.001000,0.001000,0.001000,0.001000
1011.519231,0.011607,0.001000,0.001000,0.001000,0.001000,0.001000
1011.538462,0.012644,0.001000,0.001000,0.001000,0.001000,0.001000
1011.557692,0.013674,0.001000,0.001000,0.001000,0.001000,0.001000
1011.576923,0.014699,0.001000,0.001000,0.001000,0.001000,0.001000
1011.596154,0.015717,0.001000,0.001000,0.001000,0.001000,0.001000
1011.615385,0.016728,0.001000,0.001000,0.001000,0.001000,0.001000
1011.634615,0.017731,0.001000,0.001000,0.001000,0.001000,0.001000
1011.653846,0.018725,0.001000,0.001000,0.001000,0.001000,0.001000
1011.673077,0.019712,0.001000,0.001000,0.001000,0.001000,0.001000
1011.692308,0.020689,0.001000,0.001000,0.001000,0.001000,0.001000
1011.711538,0.021657,0.001000,0.001000,0.001000,0.001000,0.001000
1011.730769,0.022615,0.001000,0.001000,0.001000,0.001000,0.001000
1011.750000,0.023563,0.001000,0.001000,0.001000,0.001000,0.001000
1011.769231,0.024500,0.001000,0.001000,0.001000,0.001000,0.001000
1011.788462,0.025426,0.001000,0.001000,0.001000,0.001000,0.001000
1011.807692,0.026340,0.001000,0.001000,0.001000,0.001000,0.001000
1011.826923,0.027242,0.001000,0.001000,0.001000,0.001000,0.001000
1011.846154,0.028132,0.001000,0.001000,0.001000,0.001000,0.001000
1011.865385,0.029009,0.001000,0.001000,0.001000,0.001000,0.001000
1011.884615,0.029872,0.001000,0.001000,0.001000,0.001000,0.001000
1011.903846,0.030722,0.001000,0.001000,0.001000,0.001000,0.001000
1011.923077,0.031558,0.001000,0.001000,0.001000,0.001000,0.001000
1011.942308,0.032380,0.001000,0.001000,0.001000,0.001000,0.001000
1011.961538,0.033186,0.001000,0.001000,0.001000,0.001000,0.001000
1011.980769,0.033978,0.001000,0.001000,0.001000,0.001000,0.001000
1012.000000,0.034754,0.001000,0.001000,0.001000,0.001000,0.001000
1012.019231,0.035514,0.001000,0.001000,0.001000,0.001000,0.001000
1012.038462,0.036258,0.001000,0.001000,0.001000,0.001000,0.001000
1012.057692,0.036985,0.001000,0.001000,0.001000,0.001000,0.001000
1012.076923,0.037696,0.001000,0.001000,0.001000,0.001000,0.001000
1012.096154,0.038389,0.001000,0.001000,0.001000,0.001000,0.001000
1012.115385,0.039065,0.001000,0.001000,0.001000,0.001000,0.001000
1012.134615,0.039723,0.001000,0.001000,0.001000,0.001000,0.001000
1012.153846,0.040363,0.001000,0.001000,0.001000,0.001000,0.001000
1012.173077,0.040984,0.001000,0.001000,0.001000,0.001000,0.001000
1012.192308,0.041587,0.001000,0.001000,0.001000,0.001000,0.001000
1012.211538,0.042170,0.001000,0.001000,0.001000,0.001000,0.001000
1012.230769,0.042735,0.001000,0.001000,0.001000,0.001000,0.001000
1012.250000,0.043280,0.001000,0.001000,0.001000,0.001000,0.001000
1012.269231,0.043805,0.001000,0.001000,0.001000,0.001000,0.001000
1012.288462,0.044310,0.001000,0.001000,0.001000,0.001000,0.001000
1012.307692,0.044795,0.001000,0.001000,0.001000,0.001000,0.001000
1012.326923,0.045259,0.001000,0.001000,0.001000,0.001000,0.001000
1012.346154,0.045703,0.001000,0.001000,0.001000,0.001000,0.001000
1012.365385,0.046126,0.001000,0.001000,0.001000,0.001000,0.001000
1012.384615,0.046528,0.001000,0.001000,0.001000,0.001000,0.001000
1012.403846,0.046908,0.001000,0.001000,0.001000,0.001000,0.001000
1012.423077,0.047268,0.001000,0.001000,0.001000,0.001000,0.001000
1012.442308,0.047605,0.001000,0.001000,0.001000,0.001000,0.001000
1012.461538,0.047921,0.001000,0.001000,0.001000,0.001000,0.001000
1012.480769,0.048215,0.001000,0.001000,0.001000,0.001000,0.001000
1012.500000,0.048487,0.001000,0.001000,0.001000,0.001000,0.001000
1012.519231,0.048737,0.001000,0.001000,0.001000,0.001000,0.001000
1012.538462,0.048964,0.001000,0.001000,0.001000,0.001000,0.001000
1012.557692,0.049169,0.001000,0.001000,0.001000,0.001000,0.001000
1012.576923,0.049352,0.001000,0.001000,0.001000,0.001000,0.001000
1012.596154,0.049512,0.001000,0.001000,0.001000,0.001000,0.001000
1012.615385,0.049650,0.001000,0.001000,0.001000,0.001000,0.001000
1012.634615,0.049765,0.001000,0.001000,0.001000,0.001000,0.001000
1012.653846,0.049857,0.001000,0.001000,0.001000,0.001000,0.001000
1012.673077,0.049926,0.001000,0.001000,0.001000,0.001000,0.001000
1012.692308,0.049973,0.001000,0.001000,0.001000,0.001000,0.001000
1012.711538,0.049997,0.001000,0.001000,0.001000,0.001000,0.001000
1012.730769,0.049998,0.001000,0.001000,0.001000,0.001000,0.001000
1012.750000,0.049976,0.001000,0.001000,0.001000,0.001000,0.001000
1012.769231,0.049931,0.001000,0.001000,0.001000,0.001000,0.001000
1012.788462,0.049864,0.001000,0.001000,0.001000,0.001000,0.001000
1012.807692,0.049773,0.001000,0.001000,0.001000,0.001000,0.001000
1012.826923,0.049660,0.001000,0.001000,0.001000,0.001000,0.001000
1012.846154,0.049525,0.001000,0.001000,0.001000,0.001000,0.001000
1012.865385,0.049366,0.001000,0.001000,0.001000,0.001000,0.001000
1012.884615,0.049185,0.001000,0.001000,0.001000,0.001000,0.001000
1012.903846,0.048982,0.001000,0.001000,0.001000,0.001000,0.001000
1012.923077,0.048756,0.001000,0.001000,0.001000,0.001000,0.001000
1012.942308,0.048509,0.001000,0.001000,0.001000,0.001000,0.001000
1012.961538,0.048238,0.001000,0.001000,0.001000,0.001000,0.001000
1012.980769,0.047946,0.001000,0.001000,0.001000,0.001000,0.001000
1013.000000,0.047632,0.001000,0.001000,0.001000,0.001000,0.001000
1013.019231,0.047297,0.001000,0.001000,0.001000,0.001000,0.001000
1013.038462,0.046939,0.001000,0.001000,0.001000,0.001000,0.001000
1013.057692,0.046560,0.001000,0.001000,0.001000,0.001000,0.001000
1013.076923,0.046160,0.001000,0.001000,0.001000,0.001000,0.001000
1013.096154,0.045739,0.001000,0.001000,0.001000,0.001000,0.001000
1013.115385,0.045297,0.001000,0.001000,0.001000,0.001000,0.001000
1013.134615,0.044834,0.001000,0.001000,0.001000,0.001000,0.001000
1013.153846,0.044351,0.001000,0.001000,0.001000,0.001000,0.001000
1013.173077,0.043848,0.001000,0.001000,0.001000,0.001000,0.001000
1013.192308,0.043324,0.001000,0.001000,0.001000,0.001000,0.001000
1013.211538,0.042781,0.001000,0.001000,0.001000,0.001000,0.001000
1013.230769,0.042218,0.001000,0.001000,0.001000,0.001000,0.001000
1013.250000,0.041636,0.001000,0.001000,0.001000,0.001000,0.001000
1013.269231,0.041035,0.001000,0.001000,0.001000,0.001000,0.001000
1013.288462,0.040415,0.001000,0.001000,0.001000,0.001000,0.001000
1013.307692,0.039777,0.001000,0.001000,0.001000,0.001000,0.001000
1013.326923,0.039121,0.001000,0.001000,0.001000,0.001000,0.001000
1013.346154,0.038446,0.001000,0.001000,0.001000,0.001000,0.001000
1013.365385,0.037755,0.001000,0.001000,0.001000,0.001000,0.001000
1013.384615,0.037045,0.001000,0.001000,0.001000,0.001000,0.001000
1013.403846,0.036319,0.001000,0.001000,0.001000,0.001000,0.001000
1013.423077,0.035577,0.001000,0.001000,0.001000,0.001000,0.001000
1013.442308,0.034818,0.001000,0.001000,0.001000,0.001000,0.001000
1013.461538,0.034043,0.001000,0.001000,0.001000,0.001000,0.001000
1013.480769,0.033253,0.001000,0.001000,0.001000,0.001000,0.001000
1013.500000,0.032447,0.001000,0.001000,0.001000,0.001000,0.001000
1013.519231,0.031627,0.001000,0.001000,0.001000,0.001000,0.001000
1013.538462,0.030792,0.001000,0.001000,0.001000,0.001000,0.001000
1013.557692,0.029944,0.001000,0.001000,0.001000,0.001000,0.001000
1013.576923,0.029081,0.001000,0.001000,0.001000,0.001000,0.001000
1013.596154,0.028205,0.001000,0.001000,0.001000,0.001000,0.001000
1013.615385,0.027317,0.001000,0.001000,0.001000,0.001000,0.001000
1013.634615,0.026416,0.001000,0.001000,0.001000,0.001000,0.001000
1013.653846,0.025502,0.001000,0.001000,0.001000,0.001000,0.001000
1013.673077,0.024578,0.001000,0.001000,0.001000,0.001000,0.001000
1013.692308,0.023642,0.001000,0.001000,0.001000,0.001000,0.001000
1013.711538,0.022695,0.001000,0.001000,0.001000,0.001000,0.001000
1013.730769,0.021738,0.001000,0.001000,0.001000,0.001000,0.001000
1013.750000,0.020770,0.001000,0.001000,0.001000,0.001000,0.001000
1013.769231,0.019794,0.001000,0.001000,0.001000,0.001000,0.001000
1013.788462,0.018808,0.001000,0.001000,0.001000,0.001000,0.001000
1013.807692,0.017814,0.001000,0.001000,0.001000,0.001000,0.001000
1013.826923,0.016812,0.001000,0.001000,0.001000,0.001000,0.001000
1013.846154,0.015801,0.001000,0.001000,0.001000,0.001000,0.001000
1013.865385,0.014784,0.001000,0.001000,0.001000,0.001000,0.001000
1013.884615,0.013760,0.001000,0.001000,0.001000,0.001000,0.001000
1013.903846,0.012730,0.001000,0.001000,0.001000,0.001000,0.001000
1013.923077,0.011694,0.001000,0.001000,0.001000,0.001000,0.001000
1013.942308,0.010652,0.001000,0.001000,0.001000,0.001000,0.001000
1013.961538,0.009606,0.001000,0.001000,0.001000,0.001000,0.001000
1013.980769,0.008555,0.001000,0.001000,0.001000,0.001000,0.001000
1014.000000,0.007501,0.001000,0.001000,0.001000,0.001000,0.001000
1014.019231,0.006443,0.001000,0.001000,0.001000,0.001000,0.001000
1014.038462,0.005382,0.001000,0.001000,0.001000,0.001000,0.001000
1014.057692,0.004318,0.001000,0.001000,0.001000,0.001000,0.001000
1014.076923,0.003253,0.001000,0.001000,0.001000,0.001000,0.001000
1014.096154,0.002186,0.001000,0.001000,0.001000,0.001000,0.001000
1014.115385,0.001118,0.001000,0.001000,0.001000,0.001000,0.001000
1014.134615,0.000050,0.001000,0.001000,0.001000,0.001000,0.001000
1014.153846,-0.001019,0.001000,0.001000,0.001000,0.001000,0.001000
1014.173077,-0.002087,0.001000,0.001000,0.001000,0.001000,0.001000
1014.192308,-0.003154,0.001000,0.001000,0.001000,0.001000,0.001000
1014.211538,-0.004219,0.001000,0.001000,0.001000,0.001000,0.001000
1014.230769,-0.005283,0.001000,0.001000,0.001000,0.001000,0.001000
1014.250000,-0.006344,0.001000,0.001000,0.001000,0.001000,0.001000
1014.269231,-0.007403,0.001000,0.001000,0.001000,0.001000,0.001000
1014.288462,-0.008458,0.001000,0.001000,0.001000,0.001000,0.001000
1014.307692,-0.009509,0.001000,0.001000,0.001000,0.001000,0.001000
1014.326923,-0.010555,0.001000,0.001000,0.001000,0.001000,0.001000
1014.346154,-0.011597,0.001000,0.001000,0.001000,0.001000,0.001000
1014.365385,-0.012634,0.001000,0.001000,0.001000,0.001000,0.001000
1014.384615,-0.013665,0.001000,0.001000,0.001000,0.001000,0.001000
1014.403846,-0.014690,0.001000,0.001000,0.001000,0.001000,0.001000
1014.423077,-0.015707,0.001000,0.001000,0.001000,0.001000,0.001000
1014.442308,-0.016718,0.001000,0.001000,0.001000,0.001000,0.001000
1014.461538,-0.017721,0.001000,0.001000,0.001000,0.001000,0.001000
1014.480769,-0.018716,0.001000,0.001000,0.001000,0.001000,0.001000
1014.500000,-0.019703,0.001000,0.001000,0.001000,0.001000,0.001000
1014.519231,-0.020680,0.001000,0.001000,0.001000,0.001000,0.001000
1014.538462,-0.021648,0.001000,0.001000,0.001000,0.001000,0.001000
1014.557692,-0.022606,0.001000,0.001000,0.001000,0.001000,0.001000
1014.576923,-0.023554,0.001000,0.001000,0.001000,0.001000,0.001000
1014.596154,-0.024491,0.001000,0.001000,0.001000,0.001000,0.001000
1014.615385,-0.025417,0.001000,0.001000,0.001000,0.001000,0.001000
1014.634615,-0.026331,0.001000,0.001000,0.001000,0.001000,0.001000
1014.653846,-0.027234,0.001000,0.001000,0.001000,0.001000,0.001000
1014.673077,-0.028123,0.001000,0.001000,0.001000,0.001000,0.001000
1014.692308,-0.029000,0.001000,0.001000,0.001000,0.001000,0.001000
1014.711538,-0.029864,0.001000,0.001000,0.001000,0.001000,0.001000
1014.730769,-0.030714,0.001000,0.001000,0.001000,0.001000,0.001000
1014.750000,-0.031550,0.001000,0.001000,0.001000,0.001000,0.001000
1014.769231,-0.032372,0.001000,0.001000,0.001000,0.001000,0.001000
1014.788462,-0.033179,0.001000,0.001000,0.001000,0.001000,0.001000
1014.807692,-0.033971,0.001000,0.001000,0.001000,0.001000,0.001000
1014.826923,-0.034747,0.001000,0.001000,0.001000,0.001000,0.001000
1014.846154,-0.035507,0.001000,0.001000,0.001000,0.001000,0.001000
1014.865385,-0.036251,0.001000,0.001000,0.001000,0.001000,0.001000
1014.884615,-0.036979,0.001000,0.001000,0.001000,0.001000,0.001000
1014.903846,-0.037689,0.001000,0.001000,0.001000,0.001000,0.001000
1014.923077,-0.038383,0.001000,0.001000,0.001000,0.001000,0.001000
1014.942308,-0.039059,0.001000,0.001000,0.001000,0.001000,0.001000
1014.961538,-0.039717,0.001000,0.001000,0.001000,0.001000,0.001000
1014.980769,-0.040357,0.001000,0.001000,0.001000,0.001000,0.001000
1015.000000,-0.040979,0.001000,0.001000,0.001000,0.001000,0.001000
1015.019231,-0.041581,0.001000,0.001000,0.001000,0.001000,0.001000
1015.038462,-0.042165,0.001000,0.001000,0.001000,0.001000,0.001000
1015.057692,-0.042730,0.001000,0.001000,0.001000,0.001000,0.001000
1015.076923,-0.043275,0.001000,0.001000,0.001000,0.001000,0.001000
1015.096154,-0.043800,0.001000,0.001000,0.001000,0.001000,0.001000
1015.115385,-0.044305,0.001000,0.001000,0.001000,0.001000,0.001000
1015.134615,-0.044791,0.001000,0.001000,0.001000,0.001000,0.001000
1015.153846,-0.045255,0.001000,0.001000,0.001000,0.001000,0.001000
1015.173077,-0.045699,0.001000,0.001000,0.001000,0.001000,0.001000
1015.192308,-0.046122,0.001000,0.001000,0.001000,0.001000,0.001000
1015.211538,-0.046524,0.001000,0.001000,0.001000,0.001000,0.001000
1015.230769,-0.046905,0.001000,0.001000,0.001000,0.001000,0.001000
1015.250000,-0.047264,0.001000,0.001000,0.001000,0.001000,0.001000
1015.269231,-0.047602,0.001000,0.001000,0.001000,0.001000,0.001000
1015.288462,-0.047918,0.001000,0.001000,0.001000,0.001000,0.001000
1015.307692,-0.048212,0.001000,0.001000,0.001000,0.001000,0.001000
1015.326923,-0.048484,0.001000,0.001000,0.001000,0.001000,0.001000
1015.346154,-0.048734,0.001000,0.001000,0.001000,0.001000,0.001000
1015.365385,-0.048962,0.001000,0.001000,0.001000,0.001000,0.001000
1015.384615,-0.049168,0.001000,0.001000,0.001000,0.001000,0.001000
1015.403846,-0.049350,0.001000,0.001000,0.001000,0.001000,0.001000
1015.423077,-0.049511,0.001000,0.001000,0.001000,0.001000,0.001000
1015.442308,-0.049649,0.001000,0.001000,0.001000,0.001000,0.001000
1015.461538,-0.049764,0.001000,0.001000,0.001000,0.001000,0.001000
1015.480769,-0.049856,0.001000,0.001000,0.001000,0.001000,0.001000
1015.500000,-0.049926,0.001000,0.001000,0.001000,0.001000,0.001000
1015.519231,-0.049973,0.001000,0.001000,0.001000,0.001000,0.001000
1015.538462,-0.049997,0.001000,0.001000,0.001000,0.001000,0.001000
1015.557692,-0.049998,0.001000,0.001000,0.001000,0.001000,0.001000
1015.576923,-0.049976,0.001000,0.001000,0.001000,0.001000,0.001000
1015.596154,-0.049932,0.001000,0.001000,0.001000,0.001000,0.001000
1015.615385,-0.049864,0.001000,0.001000,0.001000,0.001000,0.001000
1015.634615,-0.049774,0.001000,0.001000,0.001000,0.001000,0.001000
1015.653846,-0.049661,0.001000,0.001000,0.001000,0.001000,0.001000
1015.673077,-0.049526,0.001000,0.001000,0.001000,0.001000,0.001000
1015.692308,-0.049368,0.001000,0.001000,0.001000,0.001000,0.001000
1015.711538,-0.049187,0.001000,0.001000,0.001000,0.001000,0.001000
1015.730769,-0.048984,0.001000,0.001000,0.001000,0.001000,0.001000
1015.750000,-0.048759,0.001000,0.001000,0.001000,0.001000,0.001000
1015.769231,-0.048511,0.001000,0.001000,0.001000,0.001000,0.001000
1015.788462,-0.048241,0.001000,0.001000,0.001000,0.001000,0.001000
1015.807692,-0.047949,0.001000,0.001000,0.001000,0.001000,0.001000
1015.826923,-0.047635,0.001000,0.001000,0.001000,0.001000,0.001000
1015.846154,-0.047300,0.001000,0.001000,0.001000,0.001000,0.001000
1015.865385,-0.046943,0.001000,0.001000,0.001000,0.001000,0.001000
1015.884615,-0.046564,0.001000,0.001000,0.001000,0.001000,0.001000
1015.903846,-0.046164,0.001000,0.001000,0.001000,0.001000,0.001000
1015.923077,-0.045743,0.001000,0.001000,0.001000,0.001000,0.001000
1015.942308,-0.045301,0.001000,0.001000,0.001000,0.001000,0.001000
1015.961538,-0.044839,0.001000,0.001000,0.001000,0.001000,0.001000
1015.980769,-0.044356,0.001000,0.001000,0.001000,0.001000,0.001000
1016.000000,-0.043853,0.001000,0.001000,0.001000,0.001000,0.001000
1016.019231,-0.043329,0.001000,0.001000,0.001000,0.001000,0.001000
1016.038462,-0.042786,0.001000,0.001000,0.001000,0.001000,0.001000
1016.057692,-0.042224,0.001000,0.001000,0.001000,0.001000,0.001000
1016.076923,-0.041642,0.001000,0.001000,0.001000,0.001000,0.001000
1016.096154,-0.041041,0.001000,0.001000,0.001000,0.001000,0.001000
1016.115385,-0.040421,0.001000,0.001000,0.001000,0.001000,0.001000
1016.134615,-0.039783,0.001000,0.001000,0.001000,0.001000,0.001000
1016.153846,-0.039127,0.001000,0.001000,0.001000,0.001000,0.001000
1016.173077,-0.038453,0.001000,0.001000,0.001000,0.001000,0.001000
1016.192308,-0.037761,0.001000,0.001000,0.001000,0.001000,0.001000
1016.211538,-0.037052,0.001000,0.001000,0.001000,0.001000,0.001000
1016.230769,-0.036326,0.001000,0.001000,0.001000,0.001000,0.001000
1016.250000,-0.035584,0.001000,0.001000,0.001000,0.001000,0.001000
1016.269231,-0.034825,0.001000,0.001000,0.001000,0.001000,0.001000
1016.288462,-0.034050,0.001000,0.001000,0.001000,0.001000,0.001000
1016.307692,-0.033260,0.001000,0.001000,0.001000,0.001000,0.001000
1016.326923,-0.032455,0.001000,0.001000,0.001000,0.001000,0.001000
1016.346154,-0.031635,0.001000,0.001000,0.001000,0.001000,0.001000
1016.365385,-0.030800,0.001000,0.001000,0.001000,0.001000,0.001000
1016.384615,-0.029952,0.001000,0.001000,0.001000,0.001000,0.001000
1016.403846,-0.029089,0.001000,0.001000,0.001000,0.001000,0.001000
1016.423077,-0.028214,0.001000,0.001000,0.001000,0.001000,0.001000
1016.442308,-0.027325,0.001000,0.001000,0.001000,0.001000,0.001000
1016.461538,-0.026424,0.001000,0.001000,0.001000,0.001000,0.001000
1016.480769,-0.025511,0.001000,0.001000,0.001000,0.001000,0.001000
1016.500000,-0.024586,0.001000,0.001000,0.001000,0.001000,0.001000
1016.519231,-0.023650,0.001000,0.001000,0.001000,0.001000,0.001000
1016.538462,-0.022704,0.001000,0.001000,0.001000,0.001000,0.001000
1016.557692,-0.021746,0.001000,0.001000,0.001000,0.001000,0.001000
1016.576923,-0.020779,0.001000,0.001000,0.001000,0.001000,0.001000
1016.596154,-0.019803,0.001000,0.001000,0.001000,0.001000,0.001000
1016.615385,-0.018817,0.001000,0.001000,0.001000,0.001000,0.001000
1016.634615,-0.017823,0.001000,0.001000,0.001000,0.001000,0.001000
1016.653846,-0.016821,0.001000,0.001000,0.001000,0.001000,0.001000
1016.673077,-0.015811,0.001000,0.001000,0.001000,0.001000,0.001000
1016.692308,-0.014794,0.001000,0.001000,0.001000,0.001000,0.001000
1016.711538,-0.013770,0.001000,0.001000,0.001000,0.001000,0.001000
1016.730769,-0.012739,0.001000,0.001000,0.001000,0.001000,0.001000
1016.750000,-0.011703,0.001000,0.001000,0.001000,0.001000,0.001000
1016.769231,-0.010662,0.001000,0.001000,0.001000,0.001000,0.001000
1016.788462,-0.009616,0.001000,0.001000,0.001000,0.001000,0.001000
1016.807692,-0.008565,0.001000,0.001000,0.001000,0.001000,0.001000
1016.826923,-0.007510,0.001000,0.001000,0.001000,0.001000,0.001000
1016.846154,-0.006452,0.001000,0.001000,0.001000,0.001000,0.001000
1016.865385,-0.005391,0.001000,0.001000,0.001000,0.001000,0.001000
1016.884615,-0.004328,0.001000,0.001000,0.001000,0.001000,0.001000
1016.903846,-0.003263,0.001000,0.001000,0.001000,0.001000,0.001000
1016.923077,-0.002196,0.001000,0.001000,0.001000,0.001000,0.001000
1016.942308,-0.001128,0.001000,0.001000,0.001000,0.001000,0.001000
1016.961538,-0.000059,0.001000,0.001000,0.001000,0.001000,0.001000
1016.980769,0.001009,0.001000,0.001000,0.001000,0.001000,0.001000
1017.000000,0.002077,0.001000,0.001000,0.001000,0.001000,0.001000
1017.019231,0.003144,0.001000,0.001000,0.001000,0.001000,0.001000
1017.038462,0.004210,0.001000,0.001000,0.001000,0.001000,0.001000
1017.057692,0.005273,0.001000,0.001000,0.001000,0.001000,0.001000
1017.076923,0.006334,0.001000,0.001000,0.001000,0.001000,0.001000
1017.096154,0.007393,0.001000,0.001000,0.001000,0.001000,0.001000
1017.115385,0.008448,0.001000,0.001000,0.001000,0.001000,0.001000
1017.134615,0.009499,0.001000,0.001000,0.001000,0.001000,0.001000
1017.153846,0.010546,0.001000,0.001000,0.001000,0.001000,0.001000
1017.173077,0.011588,0.001000,0.001000,0.001000,0.001000,0.001000
1017.192308,0.012624,0.001000,0.001000,0.001000,0.001000,0.001000
1017.211538,0.013655,0.001000,0.001000,0.001000,0.001000,0.001000
1017.230769,0.014680,0.001000,0.001000,0.001000,0.001000,0.001000
1017.250000,0.015698,0.001000,0.001000,0.001000,0.001000,0.001000
1017.269231,0.016709,0.001000,0.001000,0.001000,0.001000,0.001000
1017.288462,0.017712,0.001000,0.001000,0.001000,0.001000,0.001000
1017.307692,0.018707,0.001000,0.001000,0.001000,0.001000,0.001000
1017.326923,0.019694,0.001000,0.001000,0.001000,0.001000,0.001000
1017.346154,0.020671,0.001000,0.001000,0.001000,0.001000,0.001000
1017.365385,0.021639,0.001000,0.001000,0.001000,0.001000,0.001000
1017.384615,0.022598,0.001000,0.001000,0.001000,0.001000,0.001000
1017.403846,0.023545,0.001000,0.001000,0.001000,0.001000,0.001000
1017.423077,0.024483,0.001000,0.001000,0.001000,0.001000,0.001000
1017.442308,0.025409,0.001000,0.001000,0.001000,0.001000,0.001000
1017.461538,0.026323,0.001000,0.001000,0.001000,0.001000,0.001000
1017.480769,0.027225,0.001000,0.001000,0.001000,0.001000,0.001000
1017.500000,0.028115,0.001000,0.001000,0.001000,0.001000,0.001000
1017.519231,0.028992,0.001000,0.001000,0.001000,0.001000,0.001000
1017.538462,0.029856,0.001000,0.001000,0.001000,0.001000,0.001000
1017.557692,0.030706,0.001000,0.001000,0.001000,0.001000,0.001000
1017.576923,0.031543,0.001000,0.001000,0.001000,0.001000,0.001000
1017.596154,0.032364,0.001000,0.001000,0.001000,0.001000,0.001000
1017.615385,0.033171,0.001000,0.001000,0.001000,0.001000,0.001000
1017.634615,0.033963,0.001000,0.001000,0.001000,0.001000,0.001000
1017.653846,0.034740,0.001000,0.001000,0.001000,0.001000,0.001000
1017.673077,0.035500,0.001000,0.001000,0.001000,0.001000,0.001000
1017.692308,0.036244,0.001000,0.001000,0.001000,0.001000,0.001000
1017.711538,0.036972,0.001000,0.001000,0.001000,0.001000,0.001000
1017.730769,0.037683,0.001000,0.001000,0.001000,0.001000,0.001000
1017.750000,0.038377,0.001000,0.001000,0.001000,0.001000,0.001000
1017.769231,0.039053,0.001000,0.001000,0.001000,0.001000,0.001000
1017.788462,0.039711,0.001000,0.001000,0.001000,0.001000,0.001000
1017.807692,0.040351,0.001000,0.001000,0.001000,0.001000,0.001000
1017.826923,0.040973,0.001000,0.001000,0.001000,0.001000,0.001000
1017.846154,0.041576,0.001000,0.001000,0.001000,0.001000,0.001000
1017.865385,0.042160,0.001000,0.001000,0.001000,0.001000,0.001000
1017.884615,0.042725,0.001000,0.001000,0.001000,0.001000,0.001000
1017.903846,0.043270,0.001000,0.001000,0.001000,0.001000,0.001000
1017.923077,0.043795,0.001000,0.001000,0.001000,0.001000,0.001000
1017.942308,0.044301,0.001000,0.001000,0.001000,0.001000,0.001000
1017.961538,0.044786,0.001000,0.001000,0.001000,0.001000,0.001000
1017.980769,0.045251,0.001000,0.001000,0.001000,0.001000,0.001000
1018.000000,0.045695,0.001000,0.001000,0.001000,0.001000,0.001000
1018.019231,0.046118,0.001000,0.001000,0.001000,0.001000,0.001000
1018.038462,0.046521,0.001000,0.001000,0.001000,0.001000,0.001000
1018.057692,0.046902,0.001000,0.001000,0.001000,0.001000,0.001000
1018.076923,0.047261,0.001000,0.001000,0.001000,0.001000,0.001000
1018.096154,0.047599,0.001000,0.001000,0.001000,0.001000,0.001000
1018.115385,0.047915,0.001000,0.001000,0.001000,0.001000,0.001000
1018.134615,0.048210,0.001000,0.001000,0.001000,0.001000,0.001000
1018.153846,0.048482,0.001000,0.001000,0.001000,0.001000,0.001000
1018.173077,0.048732,0.001000,0.001000,0.001000,0.001000,0.001000
1018.192308,0.048960,0.001000,0.001000,0.001000,0.001000,0.001000
1018.211538,0.049166,0.001000,0.001000,0.001000,0.001000,0.001000
1018.230769,0.049349,0.001000,0.001000,0.001000,0.001000,0.001000
1018.250000,0.049509,0.001000,0.001000,0.001000,0.001000,0.001000
1018.269231,0.049647,0.001000,0.001000,0.001000,0.001000,0.001000
1018.288462,0.049763,0.001000,0.001000,0.001000,0.001000,0.001000
1018.307692,0.049855,0.001000,0.001000,0.001000,0.001000,0.001000
1018.326923,0.049925,0.001000,0.001000,0.001000,0.001000,0.001000
1018.346154,0.049972,0.001000,0.001000,0.001000,0.001000,0.001000
1018.365385,0.049996,0.001000,0.001000,0.001000,0.001000,0.001000
1018.384615,0.049998,0.001000,0.001000,0.001000,0.001000,0.001000
1018.403846,0.049976,0.001000,0.001000,0.001000,0.001000,0.001000
1018.423077,0.049932,0.001000,0.001000,0.001000,0.001000,0.001000
1018.442308,0.049865,0.001000,0.001000,0.001000,0.001000,0.001000
1018.461538,0.049775,0.001000,0.001000,0.001000,0.001000,0.001000
1018.480769,0.049663,0.001000,0.001000,0.001000,0.001000,0.001000
1018.500000,0.049527,0.001000,0.001000,0.001000,0.001000,0.001000
1018.519231,0.049369,0.001000,0.001000,0.001000,0.001000,0.001000
1018.538462,0.049189,0.001000,0.001000,0.001000,0.001000,0.001000
1018.557692,0.048986,0.001000,0.001000,0.001000,0.001000,0.001000
1018.576923,0.048761,0.001000,0.001000,0.001000,0.001000,0.001000
1018.596154,0.048513,0.001000,0.001000,0.001000,0.001000,0.001000
1018.615385,0.048244,0.001000,0.001000,0.001000,0.001000,0.001000
1018.634615,0.047952,0.001000,0.001000,0.001000,0.001000,0.001000
1018.653846,0.047638,0.001000,0.001000,0.001000,0.001000,0.001000
1018.673077,0.047303,0.001000,0.001000,0.001000,0.001000,0.001000
1018.692308,0.046946,0.001000,0.001000,0.001000,0.001000,0.001000
1018.711538,0.046568,0.001000,0.001000,0.001000,0.001000,0.001000
1018.730769,0.046168,0.001000,0.001000,0.001000,0.001000,0.001000
1018.750000,0.045747,0.001000,0.001000,0.001000,0.001000,0.001000
1018.769231,0.045306,0.001000,0.001000,0.001000,0.001000,0.001000
1018.788462,0.044843,0.001000,0.001000,0.001000,0.001000,0.001000
1018.807692,0.044360,0.001000,0.001000,0.001000,0.001000,0.001000
1018.826923,0.043857,0.001000,0.001000,0.001000,0.001000,0.001000
1018.846154,0.043334,0.001000,0.001000,0.001000,0.001000,0.001000
1018.865385,0.042791,0.001000,0.001000,0.001000,0.001000,0.001000
1018.884615,0.042229,0.001000,0.001000,0.001000,0.001000,0.001000
1018.903846,0.041647,0.001000,0.001000,0.001000,0.001000,0.001000
1018.923077,0.041047,0.001000,0.001000,0.001000,0.001000,0.001000
1018.942308,0.040427,0.001000,0.001000,0.001000,0.001000,0.001000
1018.961538,0.039789,0.001000,0.001000,0.001000,0.001000,0.001000
1018.980769,0.039133,0.001000,0.001000,0.001000,0.001000,0.001000
1019.000000,0.038459,0.001000,0.001000,0.001000,0.001000,0.001000
1019.019231,0.037768,0.001000,0.001000,0.001000,0.001000,0.001000
1019.038462,0.037059,0.001000,0.001000,0.001000,0.001000,0.001000
1019.057692,0.036333,0.001000,0.001000,0.001000,0.001000,0.001000
1019.076923,0.035591,0.001000,0.001000,0.001000,0.001000,0.001000
1019.096154,0.034832,0.001000,0.001000,0.001000,0.001000,0.001000
1019.115385,0.034058,0.001000,0.001000,0.001000,0.001000,0.001000
1019.134615,0.033268,0.001000,0.001000,0.001000,0.001000,0.001000
1019.153846,0.032463,0.001000,0.001000,0.001000,0.001000,0.001000
1019.173077,0.031642,0.001000,0.001000,0.001000,0.001000,0.001000
1019.192308,0.030808,0.001000,0.001000,0.001000,0.001000,0.001000
1019.211538,0.029959,0.001000,0.001000,0.001000,0.001000,0.001000
1019.230769,0.029097,0.001000,0.001000,0.001000,0.001000,0.001000
1019.250000,0.028222,0.001000,0.001000,0.001000,0.001000,0.001000
1019.269231,0.027333,0.001000,0.001000,0.001000,0.001000,0.001000
1019.288462,0.026432,0.001000,0.001000,0.001000,0.001000,0.001000
1019.307692,0.025519,0.001000,0.001000,0.001000,0.001000,0.001000
1019.326923,0.024595,0.001000,0.001000,0.001000,0.001000,0.001000
1019.346154,0.023659,0.001000,0.001000,0.001000,0.001000,0.001000
1019.365385,0.022712,0.001000,0.001000,0.001000,0.001000,0.001000
1019.384615,0.021755,0.001000,0.001000,0.001000,0.001000,0.001000
1019.403846,0.020788,0.001000,0.001000,0.001000,0.001000,0.001000
1019.423077,0.019812,0.001000,0.001000,0.001000,0.001000,0.001000
1019.442308,0.018827,0.001000,0.001000,0.001000,0.001000,0.001000
1019.461538,0.017832,0.001000,0.001000,0.001000,0.001000,0.001000
1019.480769,0.016830,0.001000,0.001000,0.001000,0.001000,0.001000
1019.500000,0.015820,0.001000,0.001000,0.001000,0.001000,0.001000
1019.519231,0.014803,0.001000,0.001000,0.001000,0.001000,0.001000
1019.538462,0.013779,0.001000,0.001000,0.001000,0.001000,0.001000
1019.557692,0.012749,0.001000,0.001000,0.001000,0.001000,0.001000
1019.576923,0.011713,0.001000,0.001000,0.001000,0.001000,0.001000
1019.596154,0.010672,0.001000,0.001000,0.001000,0.001000,0.001000
1019.615385,0.009625,0.001000,0.001000,0.001000,0.001000,0.001000
1019.634615,0.008575,0.001000,0.001000,0.001000,0.001000,0.001000
1019.653846,0.007520,0.001000,0.001000,0.001000,0.001000,0.001000
1019.673077,0.006462,0.001000,0.001000,0.001000,0.001000,0.001000
1019.692308,0.005401,0.001000,0.001000,0.001000,0.001000,0.001000
1019.711538,0.004338,0.001000,0.001000,0.001000,0.001000,0.001000
1019.730769,0.003273,0.001000,0.001000,0.001000,0.001000,0.001000
1019.750000,0.002206,0.001000,0.001000,0.001000,0.001000,0.001000
1019.769231,0.001138,0.001000,0.001000,0.001000,0.001000,0.001000
1019.788462,0.000069,0.001000,0.001000,0.001000,0.001000,0.001000
1019.807692,-0.000999,0.001000,0.001000,0.001000,0.001000,0.001000
1019.826923,-0.002067,0.001000,0.001000,0.001000,0.001000,0.001000
1019.846154,-0.003134,0.001000,0.001000,0.001000,0.001000,0.001000
1019.865385,-0.004200,0.001000,0.001000,0.001000,0.001000,0.001000
1019.884615,-0.005263,0.001000,0.001000,0.001000,0.001000,0.001000
1019.903846,-0.006325,0.001000,0.001000,0.001000,0.001000,0.001000
1019.923077,-0.007383,0.001000,0.001000,0.001000,0.001000,0.001000
1019.942308,-0.008438,0.001000,0.001000,0.001000,0.001000,0.001000
1019.961538,-0.009489,0.001000,0.001000,0.001000,0.001000,0.001000
1019.980769,-0.010536,0.001000,0.001000,0.001000,0.001000,0.001000
1020.000000,-0.011578,0.001000,0.001000,0.001000,0.001000,0.001000
1020.019231,-0.012615,0.001000,0.001000,0.001000,0.001000,0.001000
1020.038462,-0.013646,0.001000,0.001000,0.001000,0.001000,0.001000
1020.057692,-0.014671,0.001000,0.001000,0.001000,0.001000,0.001000
1020.076923,-0.015689,0.001000,0.001000,0.001000,0.001000,0.001000
1020.096154,-0.016699,0.001000,0.001000,0.001000,0.001000,0.001000
1020.115385,-0.017703,0.001000,0.001000,0.001000,0.001000,0.001000
1020.134615,-0.018698,0.001000,0.001000,0.001000,0.001000,0.001000
1020.153846,-0.019685,0.001000,0.001000,0.001000,0.001000,0.001000
1020.173077,-0.020662,0.001000,0.001000,0.001000,0.001000,0.001000
1020.192308,-0.021630,0.001000,0.001000,0.001000,0.001000,0.001000
1020.211538,-0.022589,0.001000,0.001000,0.001000,0.001000,0.001000
1020.230769,-0.023537,0.001000,0.001000,0.001000,0.001000,0.001000
1020.250000,-0.024474,0.001000,0.001000,0.001000,0.001000,0.001000
1020.269231,-0.025400,0.001000,0.001000,0.001000,0.001000,0.001000
1020.288462,-0.026315,0.001000,0.001000,0.001000,0.001000,0.001000
1020.307692,-0.027217,0.001000,0.001000,0.001000,0.001000,0.001000
1020.326923,-0.028107,0.001000,0.001000,0.001000,0.001000,0.001000
1020.346154,-0.028984,0.001000,0.001000,0.001000,0.001000,0.001000
1020.365385,-0.029848,0.001000,0.001000,0.001000,0.001000,0.001000
1020.384615,-0.030699,0.001000,0.001000,0.001000,0.001000,0.001000
1020.403846,-0.031535,0.001000,0.001000,0.001000,0.001000,0.001000
1020.423077,-0.032357,0.001000,0.001000,0.001000,0.001000,0.001000
1020.442308,-0.033164,0.001000,0.001000,0.001000,0.001000,0.001000
1020.461538,-0.033956,0.001000,0.001000,0.001000,0.001000,0.001000
1020.480769,-0.034733,0.001000,0.001000,0.001000,0.001000,0.001000
1020.500000,-0.035493,0.001000,0.001000,0.001000,0.001000,0.001000
1020.519231,-0.036238,0.001000,0.001000,0.001000,0.001000,0.001000
1020.538462,-0.036965,0.001000,0.001000,0.001000,0.001000,0.001000
1020.557692,-0.037676,0.001000,0.001000,0.001000,0.001000,0.001000
1020.576923,-0.038370,0.001000,0.001000,0.001000,0.001000,0.001000
1020.596154,-0.039047,0.001000,0.001000,0.001000,0.001000,0.001000
1020.615385,-0.039705,0.001000,0.001000,0.001000,0.001000,0.001000
1020.634615,-0.040345,0.001000,0.001000,0.001000,0.001000,0.001000
1020.653846,-0.040967,0.001000,0.001000,0.001000,0.001000,0.001000
1020.673077,-0.041570,0.001000,0.001000,0.001000,0.001000,0.001000
1020.692308,-0.042155,0.001000,0.001000,0.001000,0.001000,0.001000
1020.711538,-0.042719,0.001000,0.001000,0.001000,0.001000,0.001000
1020.730769,-0.043265,0.001000,0.001000,0.001000,0.001000,0.001000
1020.750000,-0.043791,0.001000,0.001000,0.001000,0.001000,0.001000
1020.769231,-0.044296,0.001000,0.001000,0.001000,0.001000,0.001000
1020.788462,-0.044782,0.001000,0.001000,0.001000,0.001000,0.001000
1020.807692,-0.045247,0.001000,0.001000,0.001000,0.001000,0.001000
1020.826923,-0.045691,0.001000,0.001000,0.001000,0.001000,0.001000
1020.846154,-0.046115,0.001000,0.001000,0.001000,0.001000,0.001000
1020.865385,-0.046517,0.001000,0.001000,0.001000,0.001000,0.001000
1020.884615,-0.046898,0.001000,0.001000,0.001000,0.001000,0.001000
1020.903846,-0.047258,0.001000,0.001000,0.001000,0.001000,0.001000
1020.923077,-0.047596,0.001000,0.001000,0.001000,0.001000,0.001000
1020.942308,-0.047912,0.001000,0.001000,0.001000,0.001000,0.001000
1020.961538,-0.048207,0.001000,0.001000,0.001000,0.001000,0.001000
1020.980769,-0.048480,0.001000,0.001000,0.001000,0.001000,0.001000
1021.000000,-0.048730,0.001000,0.001000,0.001000,0.001000,0.001000
1021.019231,-0.048958,0.001000,0.001000,0.001000,0.001000,0.001000
1021.038462,-0.049164,0.001000,0.001000,0.001000,0.001000,0.001000
1021.057692,-0.049347,0.001000,0.001000,0.001000,0.001000,0.001000
1021.076923,-0.049508,0.001000,0.001000,0.001000,0.001000,0.001000
1021.096154,-0.049646,0.001000,0.001000,0.001000,0.001000,0.001000
1021.115385,-0.049762,0.001000,0.001000,0.001000,0.001000,0.001000
1021.134615,-0.049855,0.001000,0.001000,0.001000,0.001000,0.001000
1021.153846,-0.049925,0.001000,0.001000,0.001000,0.001000,0.001000
1021.173077,-0.049972,0.001000,0.001000,0.001000,0.001000,0.001000
1021.192308,-0.049996,0.001000,0.001000,0.001000,0.001000,0.001000
1021.211538,-0.049998,0.001000,0.001000,0.001000,0.001000,0.001000
1021.230769,-0.049977,0.001000,0.001000,0.001000,0.001000,0.001000
1021.250000,-0.049933,0.001000,0.001000,0.001000,0.001000,0.001000
1021.269231,-0.049866,0.001000,0.001000,0.001000,0.001000,0.001000
1021.288462,-0.049776,0.001000,0.001000,0.001000,0.001000,0.001000
1021.307692,-0.049664,0.001000,0.001000,0.001000,0.001000,0.001000
1021.326923,-0.049529,0.001000,0.001000,0.001000,0.001000,0.001000
1021.346154,-0.049371,0.001000,0.001000,0.001000,0.001000,0.001000
1021.365385,-0.049191,0.001000,0.001000,0.001000,0.001000,0.001000
1021.384615,-0.048988,0.001000,0.001000,0.001000,0.001000,0.001000
1021.403846,-0.048763,0.001000,0.001000,0.001000,0.001000,0.001000
1021.423077,-0.048516,0.001000,0.001000,0.001000,0.001000,0.001000
1021.442308,-0.048246,0.001000,0.001000,0.001000,0.001000,0.001000
1021.461538,-0.047955,0.001000,0.001000,0.001000,0.001000,0.001000
1021.480769,-0.047641,0.001000,0.001000,0.001000,0.001000,0.001000
1021.500000,-0.047306,0.001000,0.001000,0.001000,0.001000,0.001000
1021.519231,-0.046949,0.001000,0.001000,0.001000,0.001000,0.001000
1021.538462,-0.046571,0.001000,0.001000,0.001000,0.001000,0.001000
1021.557692,-0.046172,0.001000,0.001000,0.001000,0.001000,0.001000
1021.576923,-0.045751,0.001000,0.001000,0.001000,0.001000,0.001000
1021.596154,-0.045310,0.001000,0.001000,0.001000,0.001000,0.001000
1021.615385,-0.044848,0.001000,0.001000,0.001000,0.001000,0.001000
1021.634615,-0.044365,0.001000,0.001000,0.001000,0.001000,0.001000
1021.653846,-0.043862,0.001000,0.001000,0.001000,0.001000,0.001000
1021.673077,-0.043339,0.001000,0.001000,0.001000,0.001000,0.001000
1021.692308,-0.042797,0.001000,0.001000,0.001000,0.001000,0.001000
1021.711538,-0.042234,0.001000,0.001000,0.001000,0.001000,0.001000
1021.730769,-0.041653,0.001000,0.001000,0.001000,0.001000,0.001000
1021.750000,-0.041052,0.001000,0.001000,0.001000,0.001000,0.001000
1021.769231,-0.040433,0.001000,0.001000,0.001000,0.001000,0.001000
1021.788462,-0.039795,0.001000,0.001000,0.001000,0.001000,0.001000
1021.807692,-0.039139,0.001000,0.001000,0.001000,0.001000,0.001000
1021.826923,-0.038465,0.001000,0.001000,0.001000,0.001000,0.001000
1021.846154,-0.037774,0.001000,0.001000,0.001000,0.001000,0.001000
1021.865385,-0.037065,0.001000,0.001000,0.001000,0.001000,0.001000
1021.884615,-0.036340,0.001000,0.001000,0.001000,0.001000,0.001000
1021.903846,-0.035598,0.001000,0.001000,0.001000,0.001000,0.001000
1021.923077,-0.034839,0.001000,0.001000,0.001000,0.001000,0.001000
1021.942308,-0.034065,0.001000,0.001000,0.001000,0.001000,0.001000
1021.961538,-0.033275,0.001000,0.001000,0.001000,0.001000,0.001000
1021.980769,-0.032470,0.001000,0.001000,0.001000,0.001000,0.001000
1022.000000,-0.031650,0.001000,0.001000,0.001000,0.001000,0.001000
1022.019231,-0.030816,0.001000,0.001000,0.001000,0.001000,0.001000
1022.038462,-0.029967,0.001000,0.001000,0.001000,0.001000,0.001000
1022.057692,-0.029105,0.001000,0.001000,0.001000,0.001000,0.001000
1022.076923,-0.028230,0.001000,0.001000,0.001000,0.001000,0.001000
1022.096154,-0.027342,0.001000,0.001000,0.001000,0.001000,0.001000
1022.115385,-0.026441,0.001000,0.001000,0.001000,0.001000,0.001000
1022.134615,-0.025528,0.001000,0.001000,0.001000,0.001000,0.001000
1022.153846,-0.024604,0.001000,0.001000,0.001000,0.001000,0.001000
1022.173077,-0.023668,0.001000,0.001000,0.001000,0.001000,0.001000
1022.192308,-0.022721,0.001000,0.001000,0.001000,0.001000,0.001000
1022.211538,-0.021764,0.001000,0.001000,0.001000,0.001000,0.001000
1022.230769,-0.020797,0.001000,0.001000,0.001000,0.001000,0.001000
1022.250000,-0.019821,0.001000,0.001000,0.001000,0.001000,0.001000
1022.269231,-0.018836,0.001000,0.001000,0.001000,0.001000,0.001000
1022.288462,-0.017842,0.001000,0.001000,0.001000,0.001000,0.001000
1022.307692,-0.016840,0.001000,0.001000,0.001000,0.001000,0.001000
1022.326923,-0.015830,0.001000,0.001000,0.001000,0.001000,0.001000
1022.346154,-0.014813,0.001000,0.001000,0.001000,0.001000,0.001000
1022.365385,-0.013789,0.001000,0.001000,0.001000,0.001000,0.001000
1022.384615,-0.012759,0.001000,0.001000,0.001000,0.001000,0.001000
1022.403846,-0.011723,0.001000,0.001000,0.001000,0.001000,0.001000
1022.423077,-0.010681,0.001000,0.001000,0.001000,0.001000,0.001000
1022.442308,-0.009635,0.001000,0.001000,0.001000,0.001000,0.001000
1022.461538,-0.008585,0.001000,0.001000,0.001000,0.001000,0.001000
1022.480769,-0.007530,0.001000,0.001000,0.001000,0.001000,0.001000
1022.500000,-0.006472,0.001000,0.001000,0.001000,0.001000,0.001000
1022.519231,-0.005411,0.001000,0.001000,0.001000,0.001000,0.001000
1022.538462,-0.004348,0.001000,0.001000,0.001000,0.001000,0.001000
1022.557692,-0.003282,0.001000,0.001000,0.001000,0.001000,0.001000
1022.576923,-0.002216,0.001000,0.001000,0.001000,0.001000,0.001000
1022.596154,-0.001148,0.001000,0.001000,0.001000,0.001000,0.001000
1022.615385,-0.000079,0.001000,0.001000,0.001000,0.001000,0.001000
1022.634615,0.000989,0.001000,0.001000,0.001000,0.001000,0.001000
1022.653846,0.002057,0.001000,0.001000,0.001000,0.001000,0.001000
1022.673077,0.003124,0.001000,0.001000,0.001000,0.001000,0.001000
1022.692308,0.004190,0.001000,0.001000,0.001000,0.001000,0.001000
1022.711538,0.005254,0.001000,0.001000,0.001000,0.001000,0.001000
1022.730769,0.006315,0.001000,0.001000,0.001000,0.001000,0.001000
1022.750000,0.007373,0.001000,0.001000,0.001000,0.001000,0.001000
1022.769231,0.008428,0.001000,0.001000,0.001000,0.001000,0.001000
1022.788462,0.009480,0.001000,0.001000,0.001000,0.001000,0.001000
1022.807692,0.010526,0.001000,0.001000,0.001000,0.001000,0.001000
1022.826923,0.011568,0.001000,0.001000,0.001000,0.001000,0.001000
1022.846154,0.012605,0.001000,0.001000,0.001000,0.001000,0.001000
1022.865385,0.013636,0.001000,0.001000,0.001000,0.001000,0.001000
1022.884615,0.014661,0.001000,0.001000,0.001000,0.001000,0.001000
1022.903846,0.015679,0.001000,0.001000,0.001000,0.001000,0.001000
1022.923077,0.016690,0.001000,0.001000,0.001000,0.001000,0.001000
1022.942308,0.017693,0.001000,0.001000,0.001000,0.001000,0.001000
1022.961538,0.018689,0.001000,0.001000,0.001000,0.001000,0.001000
1022.980769,0.019675,0.001000,0.001000,0.001000,0.001000,0.001000
1023.000000,0.020653,0.001000,0.001000,0.001000,0.001000,0.001000
1023.019231,0.021621,0.001000,0.001000,0.001000,0.001000,0.001000
1023.038462,0.022580,0.001000,0.001000,0.001000,0.001000,0.001000
1023.057692,0.023528,0.001000,0.001000,0.001000,0.001000,0.001000
1023.076923,0.024465,0.001000,0.001000,0.001000,0.001000,0.001000
1023.096154,0.025392,0.001000,0.001000,0.001000,0.001000,0.001000
1023.115385,0.026306,0.001000,0.001000,0.001000,0.001000,0.001000
1023.134615,0.027209,0.001000,0.001000,0.001000,0.001000,0.001000
1023.153846,0.028099,0.001000,0.001000,0.001000,0.001000,0.001000
1023.173077,0.028976,0.001000,0.001000,0.001000,0.001000,0.001000
1023.192308,0.029840,0.001000,0.001000,0.001000,0.001000,0.001000
1023.211538,0.030691,0.001000,0.001000,0.001000,0.001000,0.001000
1023.230769,0.031527,0.001000,0.001000,0.001000,0.001000,0.001000
1023.250000,0.032349,0.001000,0.001000,0.001000,0.001000,0.001000
1023.269231,0.033157,0.001000,0.001000,0.001000,0.001000,0.001000
1023.288462,0.033949,0.001000,0.001000,0.001000,0.001000,0.001000
1023.307692,0.034725,0.001000,0.001000,0.001000,0.001000,0.001000
1023.326923,0.035486,0.001000,0.001000,0.001000,0.001000,0.001000
1023.346154,0.036231,0.001000,0.001000,0.001000,0.001000,0.001000
1023.365385,0.036959,0.001000,0.001000,0.001000,0.001000,0.001000
1023.384615,0.037670,0.001000,0.001000,0.001000,0.001000,0.001000
1023.403846,0.038364,0.001000,0.001000,0.001000,0.001000,0.001000
1023.423077,0.039040,0.001000,0.001000,0.001000,0.001000,0.001000
1023.442308,0.039699,0.001000,0.001000,0.001000,0.001000,0.001000
1023.461538,0.040339,0.001000,0.001000,0.001000,0.001000,0.001000
1023.480769,0.040961,0.001000,0.001000,0.001000,0.001000,0.001000
1023.500000,0.041565,0.001000,0.001000,0.001000,0.001000,0.001000
1023.519231,0.042149,0.001000,0.001000,0.001000,0.001000,0.001000
1023.538462,0.042714,0.001000,0.001000,0.001000,0.001000,0.001000
1023.557692,0.043260,0.001000,0.001000,0.001000,0.001000,0.001000
1023.576923,0.043786,0.001000,0.001000,0.001000,0.001000,0.001000
1023.596154,0.044292,0.001000,0.001000,0.001000,0.001000,0.001000
1023.615385,0.044777,0.001000,0.001000,0.001000,0.001000,0.001000
1023.634615,0.045242,0.001000,0.001000,0.001000,0.001000,0.001000
1023.653846,0.045687,0.001000,0.001000,0.001000,0.001000,0.001000
1023.673077,0.046111,0.001000,0.001000,0.001000,0.001000,0.001000
1023.692308,0.046513,0.001000,0.001000,0.001000,0.001000,0.001000
1023.711538,0.046895,0.001000,0.001000,0.001000,0.001000,0.001000
1023.730769,0.047255,0.001000,0.001000,0.001000,0.001000,0.001000
1023.750000,0.047593,0.001000,0.001000,0.001000,0.001000,0.001000
1023.769231,0.047910,0.001000,0.001000,0.001000,0.001000,0.001000
1023.788462,0.048204,0.001000,0.001000,0.001000,0.001000,0.001000
1023.807692,0.048477,0.001000,0.001000,0.001000,0.001000,0.001000
1023.826923,0.048728,0.001000,0.001000,0.001000,0.001000,0.001000
1023.846154,0.048956,0.001000,0.001000,0.001000,0.001000,0.001000
1023.865385,0.049162,0.001000,0.001000,0.001000,0.001000,0.001000
1023.884615,0.049346,0.001000,0.001000,0.001000,0.001000,0.001000
1023.903846,0.049507,0.001000,0.001000,0.001000,0.001000,0.001000
1023.923077,0.049645,0.001000,0.001000,0.001000,0.001000,0.001000
1023.942308,0.049761,0.001000,0.001000,0.001000,0.001000,0.001000
1023.961538,0.049854,0.001000,0.001000,0.001000,0.001000,0.001000
1023.980769,0.049924,0.001000,0.001000,0.001000,0.001000,0.001000
1024.000000,0.049972,0.001000,0.001000,0.001000,0.001000,0.001000
1024.019231,0.049996,0.001000,0.001000,0.001000,0.001000,0.001000
1024.038462,0.049998,0.001000,0.001000,0.001000,0.001000,0.001000
1024.057692,0.049977,0.001000,0.001000,0.001000,0.001000,0.001000
1024.076923,0.049933,0.001000,0.001000,0.001000,0.001000,0.001000
1024.096154,0.049866,0.001000,0.001000,0.001000,0.001000,0.001000
1024.115385,0.049777,0.001000,0.001000,0.001000,0.001000,0.001000
1024.134615,0.049665,0.001000,0.001000,0.001000,0.001000,0.001000
1024.153846,0.049530,0.001000,0.001000,0.001000,0.001000,0.001000
1024.173077,0.049373,0.001000,0.001000,0.001000,0.001000,0.001000
1024.192308,0.049193,0.001000,0.001000,0.001000,0.001000,0.001000
1024.211538,0.048990,0.001000,0.001000,0.001000,0.001000,0.001000
1024.230769,0.048765,0.001000,0.001000,0.001000,0.001000,0.001000
1024.250000,0.048518,0.001000,0.001000,0.001000,0.001000,0.001000
1024.269231,0.048249,0.001000,0.001000,0.001000,0.001000,0.001000
1024.288462,0.047958,0.001000,0.001000,0.001000,0.001000,0.001000
1024.307692,0.047644,0.001000,0.001000,0.001000,0.001000,0.001000
1024.326923,0.047309,0.001000,0.001000,0.001000,0.001000,0.001000
1024.346154,0.046953,0.001000,0.001000,0.001000,0.001000,0.001000
1024.365385,0.046575,0.001000,0.001000,0.001000,0.001000,0.001000
1024.384615,0.046176,0.001000,0.001000,0.001000,0.001000,0.001000
1024.403846,0.045755,0.001000,0.001000,0.001000,0.001000,0.001000
1024.423077,0.045314,0.001000,0.001000,0.001000,0.001000,0.001000
1024.442308,0.044852,0.001000,0.001000,0.001000,0.001000,0.001000
1024.461538,0.044370,0.001000,0.001000,0.001000,0.001000,0.001000
1024.480769,0.043867,0.001000,0.001000,0.001000,0.001000,0.001000
1024.500000,0.043344,0.001000,0.001000,0.001000,0.001000,0.001000
1024.519231,0.042802,0.001000,0.001000,0.001000,0.001000,0.001000
1024.538462,0.042240,0.001000,0.001000,0.001000,0.001000,0.001000
1024.557692,0.041658,0.001000,0.001000,0.001000,0.001000,0.001000
1024.576923,0.041058,0.001000,0.001000,0.001000,0.001000,0.001000
1024.596154,0.040439,0.001000,0.001000,0.001000,0.001000,0.001000
1024.615385,0.039801,0.001000,0.001000,0.001000,0.001000,0.001000
1024.634615,0.039145,0.001000,0.001000,0.001000,0.001000,0.001000
1024.653846,0.038472,0.001000,0.001000,0.001000,0.001000,0.001000
1024.673077,0.037780,0.001000,0.001000,0.001000,0.001000,0.001000
1024.692308,0.037072,0.001000,0.001000,0.001000,0.001000,0.001000
1024.711538,0.036347,0.001000,0.001000,0.001000,0.001000,0.001000
1024.730769,0.035605,0.001000,0.001000,0.001000,0.001000,0.001000
1024.750000,0.034846,0.001000,0.001000,0.001000,0.001000,0.001000
1024.769231,0.034072,0.001000,0.001000,0.001000,0.001000,0.001000
1024.788462,0.033283,0.001000,0.001000,0.001000,0.001000,0.001000
1024.807692,0.032478,0.001000,0.001000,0.001000,0.001000,0.001000
1024.826923,0.031658,0.001000,0.001000,0.001000,0.001000,0.001000
1024.846154,0.030824,0.001000,0.001000,0.001000,0.001000,0.001000
1024.865385,0.029975,0.001000,0.001000,0.001000,0.001000,0.001000
1024.884615,0.029113,0.001000,0.001000,0.001000,0.001000,0.001000
1024.903846,0.028238,0.001000,0.001000,0.001000,0.001000,0.001000
1024.923077,0.027350,0.001000,0.001000,0.001000,0.001000,0.001000
1024.942308,0.026449,0.001000,0.001000,0.001000,0.001000,0.001000
1024.961538,0.025537,0.001000,0.001000,0.001000,0.001000,0.001000
1024.980769,0.024612,0.001000,0.001000,0.001000,0.001000,0.001000
1025.000000,0.023676,0.001000,0.001000,0.001000,0.001000,0.001000
1025.019231,0.022730,0.001000,0.001000,0.001000,0.001000,0.001000
1025.038462,0.021773,0.001000,0.001000,0.001000,0.001000,0.001000
1025.057692,0.020806,0.001000,0.001000,0.001000,0.001000,0.001000
1025.076923,0.019830,0.001000,0.001000,0.001000,0.001000,0.001000
1025.096154,0.018845,0.001000,0.001000,0.001000,0.001000,0.001000
1025.115385,0.017851,0.001000,0.001000,0.001000,0.001000,0.001000
1025.134615,0.016849,0.001000,0.001000,0.001000,0.001000,0.001000
1025.153846,0.015839,0.001000,0.001000,0.001000,0.001000,0.001000
1025.173077,0.014822,0.001000,0.001000,0.001000,0.001000,0.001000
1025.192308,0.013798,0.001000,0.001000,0.001000,0.001000,0.001000
1025.211538,0.012768,0.001000,0.001000,0.001000,0.001000,0.001000
1025.230769,0.011732,0.001000,0.001000,0.001000,0.001000,0.001000
1025.250000,0.010691,0.001000,0.001000,0.001000,0.001000,0.001000
1025.269231,0.009645,0.001000,0.001000,0.001000,0.001000,0.001000
1025.288462,0.008594,0.001000,0.001000,0.001000,0.001000,0.001000
1025.307692,0.007540,0.001000,0.001000,0.001000,0.001000,0.001000
1025.326923,0.006482,0.001000,0.001000,0.001000,0.001000,0.001000
1025.346154,0.005421,0.001000,0.001000,0.001000,0.001000,0.001000
1025.365385,0.004358,0.001000,0.001000,0.001000,0.001000,0.001000
1025.384615,0.003292,0.001000,0.001000,0.001000,0.001000,0.001000
1025.403846,0.002225,0.001000,0.001000,0.001000,0.001000,0.001000
1025.423077,0.001158,0.001000,0.001000,0.001000,0.001000,0.001000
1025.442308,0.000089,0.001000,0.001000,0.001000,0.001000,0.001000
1025.461538,-0.000979,0.001000,0.001000,0.001000,0.001000,0.001000
1025.480769,-0.002047,0.001000,0.001000,0.001000,0.001000,0.001000
1025.500000,-0.003114,0.001000,0.001000,0.001000,0.001000,0.001000
1025.519231,-0.004180,0.001000,0.001000,0.001000,0.001000,0.001000
1025.538462,-0.005244,0.001000,0.001000,0.001000,0.001000,0.001000
1025.557692,-0.006305,0.001000,0.001000,0.001000,0.001000,0.001000
1025.576923,-0.007363,0.001000,0.001000,0.001000,0.001000,0.001000
1025.596154,-0.008419,0.001000,0.001000,0.001000,0.001000,0.001000
1025.615385,-0.009470,0.001000,0.001000,0.001000,0.001000,0.001000
1025.634615,-0.010517,0.001000,0.001000,0.001000,0.001000,0.001000
1025.653846,-0.011559,0.001000,0.001000,0.001000,0.001000,0.001000
1025.673077,-0.012596,0.001000,0.001000,0.001000,0.001000,0.001000
1025.692308,-0.013627,0.001000,0.001000,0.001000,0.001000,0.001000
1025.711538,-0.014652,0.001000,0.001000,0.001000,0.001000,0.001000
1025.730769,-0.015670,0.001000,0.001000,0.001000,0.001000,0.001000
1025.750000,-0.016681,0.001000,0.001000,0.001000,0.001000,0.001000
1025.769231,-0.017684,0.001000,0.001000,0.001000,0.001000,0.001000
1025.788462,-0.018680,0.001000,0.001000,0.001000,0.001000,0.001000
1025.807692,-0.019666,0.001000,0.001000,0.001000,0.001000,0.001000
1025.826923,-0.020644,0.001000,0.001000,0.001000,0.001000,0.001000
1025.846154,-0.021613,0.001000,0.001000,0.001000,0.001000,0.001000
1025.865385,-0.022571,0.001000,0.001000,0.001000,0.001000,0.001000
1025.884615,-0.023519,0.001000,0.001000,0.001000,0.001000,0.001000
1025.903846,-0.024457,0.001000,0.001000,0.001000,0.001000,0.001000
1025.923077,-0.025383,0.001000,0.001000,0.001000,0.001000,0.001000
1025.942308,-0.026298,0.001000,0.001000,0.001000,0.001000,0.001000
1025.961538,-0.027200,0.001000,0.001000,0.001000,0.001000,0.001000
1025.980769,-0.028091,0.001000,0.001000,0.001000,0.001000,0.001000
1026.000000,-0.028968,0.001000,0.001000,0.001000,0.001000,0.001000
1026.019231,-0.029832,0.001000,0.001000,0.001000,0.001000,0.001000
1026.038462,-0.030683,0.001000,0.001000,0.001000,0.001000,0.001000
1026.057692,-0.031520,0.001000,0.001000,0.001000,0.001000,0.001000
1026.076923,-0.032342,0.001000,0.001000,0.001000,0.001000,0.001000
1026.096154,-0.033149,0.001000,0.001000,0.001000,0.001000,0.001000
1026.115385,-0.033941,0.001000,0.001000,0.001000,0.001000,0.001000
1026.134615,-0.034718,0.001000,0.001000,0.001000,0.001000,0.001000
1026.153846,-0.035479,0.001000,0.001000,0.001000,0.001000,0.001000
1026.173077,-0.036224,0.001000,0.001000,0.001000,0.001000,0.001000
1026.192308,-0.036952,0.001000,0.001000,0.001000,0.001000,0.001000
1026.211538,-0.037663,0.001000,0.001000,0.001000,0.001000,0.001000
1026.230769,-0.038358,0.001000,0.001000,0.001000,0.001000,0.001000
1026.250000,-0.039034,0.001000,0.001000,0.001000,0.001000,0.001000
1026.269231,-0.039693,0.001000,0.001000,0.001000,0.001000,0.001000
1026.288462,-0.040334,0.001000,0.001000,0.001000,0.001000,0.001000
1026.307692,-0.040956,0.001000,0.001000,0.001000,0.001000,0.001000
1026.326923,-0.041559,0.001000,0.001000,0.001000,0.001000,0.001000
1026.346154,-0.042144,0.001000,0.001000,0.001000,0.001000,0.001000
1026.365385,-0.042709,0.001000,0.001000,0.001000,0.001000,0.001000
1026.384615,-0.043255,0.001000,0.001000,0.001000,0.001000,0.001000
1026.403846,-0.043781,0.001000,0.001000,0.001000,0.001000,0.001000
1026.423077,-0.044287,0.001000,0.001000,0.001000,0.001000,0.001000
1026.442308,-0.044773,0.001000,0.001000,0.001000,0.001000,0.001000
1026.461538,-0.045238,0.001000,0.001000,0.001000,0.001000,0.001000
1026.480769,-0.045683,0.001000,0.001000,0.001000,0.001000,0.001000
1026.500000,-0.046107,0.001000,0.001000,0.001000,0.001000,0.001000
1026.519231,-0.046510,0.001000,0.001000,0.001000,0.001000,0.001000
1026.538462,-0.046891,0.001000,0.001000,0.001000,0.001000,0.001000
1026.557692,-0.047251,0.001000,0.001000,0.001000,0.001000,0.001000
1026.576923,-0.047590,0.001000,0.001000,0.001000,0.001000,0.001000
1026.596154,-0.047907,0.001000,0.001000,0.001000,0.001000,0.001000
1026.615385,-0.048202,0.001000,0.001000,0.001000,0.001000,0.001000
1026.634615,-0.048475,0.001000,0.001000,0.001000,0.001000,0.001000
1026.653846,-0.048726,0.001000,0.001000,0.001000,0.001000,0.001000
1026.673077,-0.048954,0.001000,0.001000,0.001000,0.001000,0.001000
1026.692308,-0.049160,0.001000,0.001000,0.001000,0.001000,0.001000
1026.711538,-0.049344,0.001000,0.001000,0.001000,0.001000,0.001000
1026.730769,-0.049505,0.001000,0.001000,0.001000,0.001000,0.001000
1026.750000,-0.049644,0.001000,0.001000,0.001000,0.001000,0.001000
1026.769231,-0.049760,0.001000,0.001000,0.001000,0.001000,0.001000
1026.788462,-0.049853,0.001000,0.001000,0.001000,0.001000,0.001000
1026.807692,-0.049924,0.001000,0.001000,0.001000,0.001000,0.001000
1026.826923,-0.049971,0.001000,0.001000,0.001000,0.001000,0.001000
1026.846154,-0.049996,0.001000,0.001000,0.001000,0.001000,0.001000
1026.865385,-0.049998,0.001000,0.001000,0.001000,0.001000,0.001000
1026.884615,-0.049977,0.001000,0.001000,0.001000,0.001000,0.001000
1026.903846,-0.049934,0.001000,0.001000,0.001000,0.001000,0.001000
1026.923077,-0.049867,0.001000,0.001000,0.001000,0.001000,0.001000
1026.942308,-0.049778,0.001000,0.001000,0.001000,0.001000,0.001000
1026.961538,-0.049666,0.001000,0.001000,0.001000,0.001000,0.001000
1026.980769,-0.049531,0.001000,0.001000,0.001000,0.001000,0.001000
1027.000000,-0.049374,0.001000,0.001000,0.001000,0.001000,0.001000
1027.019231,-0.049194,0.001000,0.001000,0.001000,0.001000,0.001000
1027.038462,-0.048992,0.001000,0.001000,0.001000,0.001000,0.001000
1027.057692,-0.048767,0.001000,0.001000,0.001000,0.001000,0.001000
1027.076923,-0.048521,0.001000,0.001000,0.001000,0.001000,0.001000
1027.096154,-0.048251,0.001000,0.001000,0.001000,0.001000,0.001000
1027.115385,-0.047960,0.001000,0.001000,0.001000,0.001000,0.001000
1027.134615,-0.047647,0.001000,0.001000,0.001000,0.001000,0.001000
1027.153846,-0.047313,0.001000,0.001000,0.001000,0.001000,0.001000
1027.173077,-0.046956,0.001000,0.001000,0.001000,0.001000,0.001000
1027.192308,-0.046578,0.001000,0.001000,0.001000,0.001000,0.001000
1027.211538,-0.046179,0.001000,0.001000,0.001000,0.001000,0.001000
1027.230769,-0.045759,0.001000,0.001000,0.001000,0.001000,0.001000
1027.250000,-0.045318,0.001000,0.001000,0.001000,0.001000,0.001000
1027.269231,-0.044856,0.001000,0.001000,0.001000,0.001000,0.001000
1027.288462,-0.044374,0.001000,0.001000,0.001000,0.001000,0.001000
1027.307692,-0.043872,0.001000,0.001000,0.001000,0.001000,0.001000
1027.326923,-0.043349,0.001000,0.001000,0.001000,0.001000,0.001000
1027.346154,-0.042807,0.001000,0.001000,0.001000,0.001000,0.001000
1027.365385,-0.042245,0.001000,0.001000,0.001000,0.001000,0.001000
1027.384615,-0.041664,0.001000,0.001000,0.001000,0.001000,0.001000
1027.403846,-0.041063,0.001000,0.001000,0.001000,0.001000,0.001000
1027.423077,-0.040445,0.001000,0.001000,0.001000,0.001000,0.001000
1027.442308,-0.039807,0.001000,0.001000,0.001000,0.001000,0.001000
1027.461538,-0.039152,0.001000,0.001000,0.001000,0.001000,0.001000
1027.480769,-0.038478,0.001000,0.001000,0.001000,0.001000,0.001000
1027.500000,-0.037787,0.001000,0.001000,0.001000,0.001000,0.001000
1027.519231,-0.037079,0.001000,0.001000,0.001000,0.001000,0.001000
1027.538462,-0.036353,0.001000,0.001000,0.001000,0.001000,0.001000
1027.557692,-0.035612,0.001000,0.001000,0.001000,0.001000,0.001000
1027.576923,-0.034853,0.001000,0.001000,0.001000,0.001000,0.001000
1027.596154,-0.034079,0.001000,0.001000,0.001000,0.001000,0.001000
1027.615385,-0.033290,0.001000,0.001000,0.001000,0.001000,0.001000
1027.634615,-0.032485,0.001000,0.001000,0.001000,0.001000,0.001000
1027.653846,-0.031665,0.001000,0.001000,0.001000,0.001000,0.001000
1027.673077,-0.030831,0.001000,0.001000,0.001000,0.001000,0.001000
1027.692308,-0.029983,0.001000,0.001000,0.001000,0.001000,0.001000
1027.711538,-0.029121,0.001000,0.001000,0.001000,0.001000,0.001000
1027.730769,-0.028246,0.001000,0.001000,0.001000,0.001000,0.001000
1027.750000,-0.027358,0.001000,0.001000,0.001000,0.001000,0.001000
1027.769231,-0.026458,0.001000,0.001000,0.001000,0.001000,0.001000
1027.788462,-0.025545,0.001000,0.001000,0.001000,0.001000,0.001000
1027.807692,-0.024621,0.001000,0.001000,0.001000,0.001000,0.001000
1027.826923,-0.023685,0.001000,0.001000,0.001000,0.001000,0.001000
1027.846154,-0.022739,0.001000,0.001000,0.001000,0.001000,0.001000
1027.865385,-0.021782,0.001000,0.001000,0.001000,0.001000,0.001000
1027.884615,-0.020815,0.001000,0.001000,0.001000,0.001000,0.001000
1027.903846,-0.019839,0.001000,0.001000,0.001000,0.001000,0.001000
1027.923077,-0.018854,0.001000,0.001000,0.001000,0.001000,0.001000
1027.942308,-0.017860,0.001000,0.001000,0.001000,0.001000,0.001000
1027.961538,-0.016858,0.001000,0.001000,0.001000,0.001000,0.001000
1027.980769,-0.015848,0.001000,0.001000,0.001000,0.001000,0.001000
1028.000000,-0.014832,0.001000,0.001000,0.001000,0.001000,0.001000
1028.019231,-0.013808,0.001000,0.001000,0.001000,0.001000,0.001000
1028.038462,-0.012778,0.001000,0.001000,0.001000,0.001000,0.001000
1028.057692,-0.011742,0.001000,0.001000,0.001000,0.001000,0.001000
1028.076923,-0.010701,0.001000,0.001000,0.001000,0.001000,0.001000
1028.096154,-0.009655,0.001000,0.001000,0.001000,0.001000,0.001000
1028.115385,-0.008604,0.001000,0.001000,0.001000,0.001000,0.001000
1028.134615,-0.007550,0.001000,0.001000,0.001000,0.001000,0.001000
1028.153846,-0.006492,0.001000,0.001000,0.001000,0.001000,0.001000
1028.173077,-0.005431,0.001000,0.001000,0.001000,0.001000,0.001000
1028.192308,-0.004368,0.001000,0.001000,0.001000,0.001000,0.001000
1028.211538,-0.003302,0.001000,0.001000,0.001000,0.001000,0.001000
1028.230769,-0.002235,0.001000,0.001000,0.001000,0.001000,0.001000
1028.250000,-0.001167,0.001000,0.001000,0.001000,0.001000,0.001000
1028.269231,-0.000099,0.001000,0.001000,0.001000,0.001000,0.001000
1028.288462,0.000969,0.001000,0.001000,0.001000,0.001000,0.001000
1028.307692,0.002037,0.001000,0.001000,0.001000,0.001000,0.001000
1028.326923,0.003104,0.001000,0.001000,0.001000,0.001000,0.001000
1028.346154,0.004170,0.001000,0.001000,0.001000,0.001000,0.001000
1028.365385,0.005234,0.001000,0.001000,0.001000,0.001000,0.001000
1028.384615,0.006295,0.001000,0.001000,0.001000,0.001000,0.001000
1028.403846,0.007354,0.001000,0.001000,0.001000,0.001000,0.001000
1028.423077,0.008409,0.001000,0.001000,0.001000,0.001000,0.001000
1028.442308,0.009460,0.001000,0.001000,0.001000,0.001000,0.001000
1028.461538,0.010507,0.001000,0.001000,0.001000,0.001000,0.001000
1028.480769,0.011549,0.001000,0.001000,0.001000,0.001000,0.001000
1028.500000,0.012586,0.001000,0.001000,0.001000,0.001000,0.001000
1028.519231,0.013617,0.001000,0.001000,0.001000,0.001000,0.001000
1028.538462,0.014642,0.001000,0.001000,0.001000,0.001000,0.001000
1028.557692,0.015660,0.001000,0.001000,0.001000,0.001000,0.001000
1028.576923,0.016671,0.001000,0.001000,0.001000,0.001000,0.001000
1028.596154,0.017675,0.001000,0.001000,0.001000,0.001000,0.001000
1028.615385,0.018670,0.001000,0.001000,0.001000,0.001000,0.001000
1028.634615,0.019657,0.001000,0.001000,0.001000,0.001000,0.001000
1028.653846,0.020635,0.001000,0.001000,0.001000,0.001000,0.001000
1028.673077,0.021604,0.001000,0.001000,0.001000,0.001000,0.001000
1028.692308,0.022562,0.001000,0.001000,0.001000,0.001000,0.001000
1028.711538,0.023511,0.001000,0.001000,0.001000,0.001000,0.001000
1028.730769,0.024448,0.001000,0.001000,0.001000,0.001000,0.001000
1028.750000,0.025374,0.001000,0.001000,0.001000,0.001000,0.001000
1028.769231,0.026289,0.001000,0.001000,0.001000,0.001000,0.001000
1028.788462,0.027192,0.001000,0.001000,0.001000,0.001000,0.001000
1028.807692,0.028083,0.001000,0.001000,0.001000,0.001000,0.001000
1028.826923,0.028960,0.001000,0.001000,0.001000,0.001000,0.001000
1028.846154,0.029824,0.001000,0.001000,0.001000,0.001000,0.001000
1028.865385,0.030675,0.001000,0.001000,0.001000,0.001000,0.001000
1028.884615,0.031512,0.001000,0.001000,0.001000,0.001000,0.001000
1028.903846,0.032334,0.001000,0.001000,0.001000,0.001000,0.001000
1028.923077,0.033142,0.001000,0.001000,0.001000,0.001000,0.001000
1028.942308,0.033934,0.001000,0.001000,0.001000,0.001000,0.001000
1028.961538,0.034711,0.001000,0.001000,0.001000,0.001000,0.001000
1028.980769,0.035472,0.001000,0.001000,0.001000,0.001000,0.001000
1029.000000,0.036217,0.001000,0.001000,0.001000,0.001000,0.001000
1029.019231,0.036945,0.001000,0.001000,0.001000,0.001000,0.001000
1029.038462,0.037657,0.001000,0.001000,0.001000,0.001000,0.001000
1029.057692,0.038351,0.001000,0.001000,0.001000,0.001000,0.001000
1029.076923,0.039028,0.001000,0.001000,0.001000,0.001000,0.001000
1029.096154,0.039687,0.001000,0.001000,0.001000,0.001000,0.001000
1029.115385,0.040328,0.001000,0.001000,0.001000,0.001000,0.001000
1029.134615,0.040950,0.001000,0.001000,0.001000,0.001000,0.001000
1029.153846,0.041554,0.001000,0.001000,0.001000,0.001000,0.001000
1029.173077,0.042139,0.001000,0.001000,0.001000,0.001000,0.001000
1029.192308,0.042704,0.001000,0.001000,0.001000,0.001000,0.001000
1029.211538,0.043250,0.001000,0.001000,0.001000,0.001000,0.001000
1029.230769,0.043776,0.001000,0.001000,0.001000,0.001000,0.001000
1029.250000,0.044282,0.001000,0.001000,0.001000,0.001000,0.001000
1029.269231,0.044768,0.001000,0.001000,0.001000,0.001000,0.001000
1029.288462,0.045234,0.001000,0.001000,0.001000,0.001000,0.001000
1029.307692,0.045679,0.001000,0.001000,0.001000,0.001000,0.001000
1029.326923,0.046103,0.001000,0.001000,0.001000,0.001000,0.001000
1029.346154,0.046506,0.001000,0.001000,0.001000,0.001000,0.001000
1029.365385,0.046888,0.001000,0.001000,0.001000,0.001000,0.001000
1029.384615,0.047248,0.001000,0.001000,0.001000,0.001000,0.001000
1029.403846,0.047587,0.001000,0.001000,0.001000,0.001000,0.001000
1029.423077,0.047904,0.001000,0.001000,0.001000,0.001000,0.001000
1029.442308,0.048199,0.001000,0.001000,0.001000,0.001000,0.001000
1029.461538,0.048472,0.001000,0.001000,0.001000,0.001000,0.001000
1029.480769,0.048723,0.001000,0.001000,0.001000,0.001000,0.001000
1029.500000,0.048952,0.001000,0.001000,0.001000,0.001000,0.001000
1029.519231,0.049158,0.001000,0.001000,0.001000,0.001000,0.001000
1029.538462,0.049342,0.001000,0.001000,0.001000,0.001000,0.001000
1029.557692,0.049504,0.001000,0.001000,0.001000,0.001000,0.001000
1029.576923,0.049643,0.001000,0.001000,0.001000,0.001000,0.001000
1029.596154,0.049759,0.001000,0.001000,0.001000,0.001000,0.001000
1029.615385,0.049852,0.001000,0.001000,0.001000,0.001000,0.001000
1029.634615,0.049923,0.001000,0.001000,0.001000,0.001000,0.001000
1029.653846,0.049971,0.001000,0.001000,0.001000,0.001000,0.001000
1029.673077,0.049996,0.001000,0.001000,0.001000,0.001000,0.001000
1029.692308,0.049998,0.001000,0.001000,0.001000,0.001000,0.001000
1029.711538,0.049978,0.001000,0.001000,0.001000,0.001000,0.001000
1029.730769,0.049934,0.001000,0.001000,0.001000,0.001000,0.001000
1029.750000,0.049868,0.001000,0.001000,0.001000,0.001000,0.001000
1029.769231,0.049779,0.001000,0.001000,0.001000,0.001000,0.001000
1029.788462,0.049667,0.001000,0.001000,0.001000,0.001000,0.001000
1029.807692,0.049533,0.001000,0.001000,0.001000,0.001000,0.001000
1029.826923,0.049376,0.001000,0.001000,0.001000,0.001000,0.001000
1029.846154,0.049196,0.001000,0.001000,0.001000,0.001000,0.001000
1029.865385,0.048994,0.001000,0.001000,0.001000,0.001000,0.001000
1029.884615,0.048770,0.001000,0.001000,0.001000,0.001000,0.001000
1029.903846,0.048523,0.001000,0.001000,0.001000,0.001000,0.001000
1029.923077,0.048254,0.001000,0.001000,0.001000,0.001000,0.001000
1029.942308,0.047963,0.001000,0.001000,0.001000,0.001000,0.001000
1029.961538,0.047650,0.001000,0.001000,0.001000,0.001000,0.001000
1029.980769,0.047316,0.001000,0.001000,0.001000,0.001000,0.001000
1030.000000,0.000000,0.001000,0.001000,0.001000,0.001000,0.001000
1030.019231,0.001062,0.001000,0.001000,0.001000,0.001000,0.001000
1030.038462,0.002123,0.001000,0.001000,0.001000,0.001000,0.001000
1030.057692,0.003184,0.001000,0.001000,0.001000,0.001000,0.001000
1030.076923,0.004243,0.001000,0.001000,0.001000,0.001000,0.001000
1030.096154,0.005300,0.001000,0.001000,0.001000,0.001000,0.001000
1030.115385,0.006355,0.001000,0.001000,0.001000,0.001000,0.001000
1030.134615,0.007406,0.001000,0.001000,0.001000,0.001000,0.001000
1030.153846,0.008455,0.001000,0.001000,0.001000,0.001000,0.001000
1030.173077,0.009500,0.001000,0.001000,0.001000,0.001000,0.001000
1030.192308,0.010540,0.001000,0.001000,0.001000,0.001000,0.001000
1030.211538,0.011576,0.001000,0.001000,0.001000,0.001000,0.001000
1030.230769,0.012606,0.001000,0.001000,0.001000,0.001000,0.001000
1030.250000,0.013631,0.001000,0.001000,0.001000,0.001000,0.001000
1030.269231,0.014649,0.001000,0.001000,0.001000,0.001000,0.001000
1030.288462,0.015661,0.001000,0.001000,0.001000,0.001000,0.001000
1030.307692,0.016666,0.001000,0.001000,0.001000,0.001000,0.001000
1030.326923,0.017664,0.001000,0.001000,0.001000,0.001000,0.001000
1030.346154,0.018653,0.001000,0.001000,0.001000,0.001000,0.001000
1030.365385,0.019634,0.001000,0.001000,0.001000,0.001000,0.001000
1030.384615,0.020606,0.001000,0.001000,0.001000,0.001000,0.001000
1030.403846,0.021569,0.001000,0.001000,0.001000,0.001000,0.001000
1030.423077,0.022522,0.001000,0.001000,0.001000,0.001000,0.001000
1030.442308,0.023465,0.001000,0.001000,0.001000,0.001000,0.001000
1030.461538,0.024398,0.001000,0.001000,0.001000,0.001000,0.001000
1030.480769,0.025319,0.001000,0.001000,0.001000,0.001000,0.001000
1030.500000,0.026229,0.001000,0.001000,0.001000,0.001000,0.001000
1030.519231,0.027127,0.001000,0.001000,0.001000,0.001000,0.001000
1030.538462,0.028013,0.001000,0.001000,0.001000,0.001000,0.001000
1030.557692,0.028886,0.001000,0.001000,0.001000,0.001000,0.001000
1030.576923,0.029747,0.001000,0.001000,0.001000,0.001000,0.001000
1030.596154,0.030593,0.001000,0.001000,0.001000,0.001000,0.001000
1030.615385,0.031426,0.001000,0.001000,0.001000,0.001000,0.001000
1030.634615,0.032245,0.001000,0.001000,0.001000,0.001000,0.001000
1030.653846,0.033049,0.001000,0.001000,0.001000,0.001000,0.001000
1030.673077,0.033839,0.001000,0.001000,0.001000,0.001000,0.001000
1030.692308,0.034613,0.001000,0.001000,0.001000,0.001000,0.001000
1030.711538,0.035371,0.001000,0.001000,0.001000,0.001000,0.001000
1030.730769,0.036114,0.001000,0.001000,0.001000,0.001000,0.001000
1030.750000,0.036840,0.001000,0.001000,0.001000,0.001000,0.001000
1030.769231,0.037550,0.001000,0.001000,0.001000,0.001000,0.001000
1030.788462,0.038243,0.001000,0.001000,0.001000,0.001000,0.001000
1030.807692,0.038918,0.001000,0.001000,0.001000,0.001000,0.001000
1030.826923,0.039576,0.001000,0.001000,0.001000,0.001000,0.001000
1030.846154,0.040216,0.001000,0.001000,0.001000,0.001000,0.001000
1030.865385,0.040838,0.001000,0.001000,0.001000,0.001000,0.001000
1030.884615,0.041441,0.001000,0.001000,0.001000,0.001000,0.001000
1030.903846,0.042026,0.001000,0.001000,0.001000,0.001000,0.001000
1030.923077,0.042592,0.001000,0.001000,0.001000,0.001000,0.001000
1030.942308,0.043139,0.001000,0.001000,0.001000,0.001000,0.001000
1030.961538,0.043666,0.001000,0.001000,0.001000,0.001000,0.001000
1030.980769,0.044173,0.001000,0.001000,0.001000,0.001000,0.001000
1031.000000,0.044661,0.001000,0.001000,0.001000,0.001000,0.001000
1031.019231,0.045128,0.001000,0.001000,0.001000,0.001000,0.001000
1031.038462,0.045575,0.001000,0.001000,0.001000,0.001000,0.001000
1031.057692,0.046002,0.001000,0.001000,0.001000,0.001000,0.001000
1031.076923,0.046407,0.001000,0.001000,0.001000,0.001000,0.001000
1031.096154,0.046792,0.001000,0.001000,0.001000,0.001000,0.001000
1031.115385,0.047156,0.001000,0.001000,0.001000,0.001000,0.001000
1031.134615,0.047498,0.001000,0.001000,0.001000,0.001000,0.001000
1031.153846,0.047819,0.001000,0.001000,0.001000,0.001000,0.001000
1031.173077,0.048119,0.001000,0.001000,0.001000,0.001000,0.001000
1031.192308,0.048396,0.001000,0.001000,0.001000,0.001000,0.001000
1031.211538,0.048652,0.001000,0.001000,0.001000,0.001000,0.001000
1031.230769,0.048886,0.001000,0.001000,0.001000,0.001000,0.001000
1031.250000,0.049098,0.001000,0.001000,0.001000,0.001000,0.001000
1031.269231,0.049288,0.001000,0.001000,0.001000,0.001000,0.001000
1031.288462,0.049455,0.001000,0.001000,0.001000,0.001000,0.001000
1031.307692,0.049600,0.001000,0.001000,0.001000,0.001000,0.001000
1031.326923,0.049723,0.001000,0.001000,0.001000,0.001000,0.001000
1031.346154,0.049824,0.001000,0.001000,0.001000,0.001000,0.001000
1031.365385,0.049901,0.001000,0.001000,0.001000,0.001000,0.001000
1031.384615,0.049957,0.001000,0.001000,0.001000,0.001000,0.001000
1031.403846,0.049990,0.001000,0.001000,0.001000,0.001000,0.001000
1031.423077,0.050000,0.001000,0.001000,0.001000,0.001000,0.001000
1031.442308,0.049988,0.001000,0.001000,0.001000,0.001000,0.001000
1031.461538,0.049953,0.001000,0.001000,0.001000,0.001000,0.001000
1031.480769,0.049896,0.001000,0.001000,0.001000,0.001000,0.001000
1031.500000,0.049816,0.001000,0.001000,0.001000,0.001000,0.001000
1031.519231,0.049713,0.001000,0.001000,0.001000,0.001000,0.001000
1031.538462,0.049589,0.001000,0.001000,0.001000,0.001000,0.001000
1031.557692,0.049442,0.001000,0.001000,0.001000,0.001000,0.001000
1031.576923,0.049272,0.001000,0.001000,0.001000,0.001000,0.001000
1031.596154,0.049081,0.001000,0.001000,0.001000,0.001000,0.001000
1031.615385,0.048867,0.001000,0.001000,0.001000,0.001000,0.001000
1031.634615,0.048631,0.001000,0.001000,0.001000,0.001000,0.001000
1031.653846,0.048373,0.001000,0.001000,0.001000,0.001000,0.001000
1031.673077,0.048094,0.001000,0.001000,0.001000,0.001000,0.001000
1031.692308,0.047792,0.001000,0.001000,0.001000,0.001000,0.001000
1031.711538,0.047470,0.001000,0.001000,0.001000,0.001000,0.001000
1031.730769,0.047125,0.001000,0.001000,0.001000,0.001000,0.001000
1031.750000,0.046760,0.001000,0.001000,0.001000,0.001000,0.001000
1031.769231,0.046373,0.001000,0.001000,0.001000,0.001000,0.001000
1031.788462,0.045966,0.001000,0.001000,0.001000,0.001000,0.001000
1031.807692,0.045537,0.001000,0.001000,0.001000,0.001000,0.001000
1031.826923,0.045089,0.001000,0.001000,0.001000,0.001000,0.001000
1031.846154,0.044620,0.001000,0.001000,0.001000,0.001000,0.001000
1031.865385,0.044130,0.001000,0.001000,0.001000,0.001000,0.001000
1031.884615,0.043621,0.001000,0.001000,0.001000,0.001000,0.001000
1031.903846,0.043092,0.001000,0.001000,0.001000,0.001000,0.001000
1031.923077,0.042544,0.001000,0.001000,0.001000,0.001000,0.001000
1031.942308,0.041977,0.001000,0.001000,0.001000,0.001000,0.001000
1031.961538,0.041390,0.001000,0.001000,0.001000,0.001000,0.001000
1031.980769,0.040785,0.001000,0.001000,0.001000,0.001000,0.001000
1032.000000,0.040162,0.001000,0.001000,0.001000,0.001000,0.001000
1032.019231,0.039520,0.001000,0.001000,0.001000,0.001000,0.001000
1032.038462,0.038861,0.001000,0.001000,0.001000,0.001000,0.001000
1032.057692,0.038184,0.001000,0.001000,0.001000,0.001000,0.001000
1032.076923,0.037490,0.001000,0.001000,0.001000,0.001000,0.001000
1032.096154,0.036778,0.001000,0.001000,0.001000,0.001000,0.001000
1032.115385,0.036051,0.001000,0.001000,0.001000,0.001000,0.001000
1032.134615,0.035307,0.001000,0.001000,0.001000,0.001000,0.001000
1032.153846,0.034547,0.001000,0.001000,0.001000,0.001000,0.001000
1032.173077,0.033772,0.001000,0.001000,0.001000,0.001000,0.001000
1032.192308,0.032981,0.001000,0.001000,0.001000,0.001000,0.001000
1032.211538,0.032175,0.001000,0.001000,0.001000,0.001000,0.001000
1032.230769,0.031355,0.001000,0.001000,0.001000,0.001000,0.001000
1032.250000,0.030521,0.001000,0.001000,0.001000,0.001000,0.001000
1032.269231,0.029673,0.001000,0.001000,0.001000,0.001000,0.001000
1032.288462,0.028812,0.001000,0.001000,0.001000,0.001000,0.001000
1032.307692,0.027937,0.001000,0.001000,0.001000,0.001000,0.001000
1032.326923,0.027050,0.001000,0.001000,0.001000,0.001000,0.001000
1032.346154,0.026151,0.001000,0.001000,0.001000,0.001000,0.001000
1032.365385,0.025240,0.001000,0.001000,0.001000,0.001000,0.001000
1032.384615,0.024318,0.001000,0.001000,0.001000,0.001000,0.001000
1032.403846,0.023385,0.001000,0.001000,0.001000,0.001000,0.001000
1032.423077,0.022441,0.001000,0.001000,0.001000,0.001000,0.001000
1032.442308,0.021487,0.001000,0.001000,0.001000,0.001000,0.001000
1032.461538,0.020523,0.001000,0.001000,0.001000,0.001000,0.001000
1032.480769,0.019550,0.001000,0.001000,0.001000,0.001000,0.001000
1032.500000,0.018568,0.001000,0.001000,0.001000,0.001000,0.001000
1032.519231,0.017578,0.001000,0.001000,0.001000,0.001000,0.001000
1032.538462,0.016580,0.001000,0.001000,0.001000,0.001000,0.001000
1032.557692,0.015575,0.001000,0.001000,0.001000,0.001000,0.001000
1032.576923,0.014562,0.001000,0.001000,0.001000,0.001000,0.001000
1032.596154,0.013543,0.001000,0.001000,0.001000,0.001000,0.001000
1032.615385,0.012518,0.001000,0.001000,0.001000,0.001000,0.001000
1032.634615,0.011487,0.001000,0.001000,0.001000,0.001000,0.001000
1032.653846,0.010451,0.001000,0.001000,0.001000,0.001000,0.001000
1032.673077,0.009410,0.001000,0.001000,0.001000,0.001000,0.001000
1032.692308,0.008365,0.001000,0.001000,0.001000,0.001000,0.001000
1032.711538,0.007316,0.001000,0.001000,0.001000,0.001000,0.001000
1032.730769,0.006264,0.001000,0.001000,0.001000,0.001000,0.001000
1032.750000,0.005209,0.001000,0.001000,0.001000,0.001000,0.001000
1032.769231,0.004152,0.001000,0.001000,0.001000,0.001000,0.001000
1032.788462,0.003093,0.001000,0.001000,0.001000,0.001000,0.001000
1032.807692,0.002032,0.001000,0.001000,0.001000,0.001000,0.001000
1032.826923,0.000971,0.001000,0.001000,0.001000,0.001000,0.001000
1032.846154,-0.000091,0.001000,0.001000,0.001000,0.001000,0.001000
1032.865385,-0.001153,0.001000,0.001000,0.001000,0.001000,0.001000
1032.884615,-0.002215,0.001000,0.001000,0.001000,0.001000,0.001000
1032.903846,-0.003275,0.001000,0.001000,0.001000,0.001000,0.001000
1032.923077,-0.004334,0.001000,0.001000,0.001000,0.001000,0.001000
1032.942308,-0.005391,0.001000,0.001000,0.001000,0.001000,0.001000
1032.961538,-0.006445,0.001000,0.001000,0.001000,0.001000,0.001000
1032.980769,-0.007497,0.001000,0.001000,0.001000,0.001000,0.001000
1033.000000,-0.008545,0.001000,0.001000,0.001000,0.001000,0.001000
1033.019231,-0.009589,0.001000,0.001000,0.001000,0.001000,0.001000
1033.038462,-0.010629,0.001000,0.001000,0.001000,0.001000,0.001000
1033.057692,-0.011665,0.001000,0.001000,0.001000,0.001000,0.001000
1033.076923,-0.012694,0.001000,0.001000,0.001000,0.001000,0.001000
1033.096154,-0.013719,0.001000,0.001000,0.001000,0.001000,0.001000
1033.115385,-0.014737,0.001000,0.001000,0.001000,0.001000,0.001000
1033.134615,-0.015748,0.001000,0.001000,0.001000,0.001000,0.001000
1033.153846,-0.016752,0.001000,0.001000,0.001000,0.001000,0.001000
1033.173077,-0.017749,0.001000,0.001000,0.001000,0.001000,0.001000
1033.192308,-0.018738,0.001000,0.001000,0.001000,0.001000,0.001000
1033.211538,-0.019718,0.001000,0.001000,0.001000,0.001000,0.001000
1033.230769,-0.020690,0.001000,0.001000,0.001000,0.001000,0.001000
1033.250000,-0.021652,0.001000,0.001000,0.001000,0.001000,0.001000
1033.269231,-0.022604,0.001000,0.001000,0.001000,0.001000,0.001000
1033.288462,-0.023546,0.001000,0.001000,0.001000,0.001000,0.001000
1033.307692,-0.024477,0.001000,0.001000,0.001000,0.001000,0.001000
1033.326923,-0.025398,0.001000,0.001000,0.001000,0.001000,0.001000
1033.346154,-0.026307,0.001000,0.001000,0.001000,0.001000,0.001000
1033.365385,-0.027204,0.001000,0.001000,0.001000,0.001000,0.001000
1033.384615,-0.028089,0.001000,0.001000,0.001000,0.001000,0.001000
1033.403846,-0.028961,0.001000,0.001000,0.001000,0.001000,0.001000
1033.423077,-0.029820,0.001000,0.001000,0.001000,0.001000,0.001000
1033.442308,-0.030666,0.001000,0.001000,0.001000,0.001000,0.001000
1033.461538,-0.031497,0.001000,0.001000,0.001000,0.001000,0.001000
1033.480769,-0.032315,0.001000,0.001000,0.001000,0.001000,0.001000
1033.500000,-0.033118,0.001000,0.001000,0.001000,0.001000,0.001000
1033.519231,-0.033906,0.001000,0.001000,0.001000,0.001000,0.001000
1033.538462,-0.034679,0.001000,0.001000,0.001000,0.001000,0.001000
1033.557692,-0.035436,0.001000,0.001000,0.001000,0.001000,0.001000
1033.576923,-0.036177,0.001000,0.001000,0.001000,0.001000,0.001000
1033.596154,-0.036902,0.001000,0.001000,0.001000,0.001000,0.001000
1033.615385,-0.037610,0.001000,0.001000,0.001000,0.001000,0.001000
1033.634615,-0.038301,0.001000,0.001000,0.001000,0.001000,0.001000
1033.653846,-0.038975,0.001000,0.001000,0.001000,0.001000,0.001000
1033.673077,-0.039632,0.001000,0.001000,0.001000,0.001000,0.001000
1033.692308,-0.040270,0.001000,0.001000,0.001000,0.001000,0.001000
1033.711538,-0.040891,0.001000,0.001000,0.001000,0.001000,0.001000
1033.730769,-0.041492,0.001000,0.001000,0.001000,0.001000,0.001000
1033.750000,-0.042076,0.001000,0.001000,0.001000,0.001000,0.001000
1033.769231,-0.042640,0.001000,0.001000,0.001000,0.001000,0.001000
1033.788462,-0.043185,0.001000,0.001000,0.001000,0.001000,0.001000
1033.807692,-0.043710,0.001000,0.001000,0.001000,0.001000,0.001000
1033.826923,-0.044216,0.001000,0.001000,0.001000,0.001000,0.001000
1033.846154,-0.044702,0.001000,0.001000,0.001000,0.001000,0.001000
1033.865385,-0.045167,0.001000,0.001000,0.001000,0.001000,0.001000
1033.884615,-0.045613,0.001000,0.001000,0.001000,0.001000,0.001000
1033.903846,-0.046037,0.001000,0.001000,0.001000,0.001000,0.001000
1033.923077,-0.046441,0.001000,0.001000,0.001000,0.001000,0.001000
1033.942308,-0.046824,0.001000,0.001000,0.001000,0.001000,0.001000
1033.961538,-0.047186,0.001000,0.001000,0.001000,0.001000,0.001000
1033.980769,-0.047527,0.001000,0.001000,0.001000,0.001000,0.001000
1034.000000,-0.047846,0.001000,0.001000,0.001000,0.001000,0.001000
1034.019231,-0.048143,0.001000,0.001000,0.001000,0.001000,0.001000
1034.038462,-0.048419,0.001000,0.001000,0.001000,0.001000,0.001000
1034.057692,-0.048673,0.001000,0.001000,0.001000,0.001000,0.001000
1034.076923,-0.048905,0.001000,0.001000,0.001000,0.001000,0.001000
1034.096154,-0.049115,0.001000,0.001000,0.001000,0.001000,0.001000
1034.115385,-0.049303,0.001000,0.001000,0.001000,0.001000,0.001000
1034.134615,-0.049469,0.001000,0.001000,0.001000,0.001000,0.001000
1034.153846,-0.049612,0.001000,0.001000,0.001000,0.001000,0.001000
1034.173077,-0.049733,0.001000,0.001000,0.001000,0.001000,0.001000
1034.192308,-0.049831,0.001000,0.001000,0.001000,0.001000,0.001000
1034.211538,-0.049907,0.001000,0.001000,0.001000,0.001000,0.001000
1034.230769,-0.049961,0.001000,0.001000,0.001000,0.001000,0.001000
1034.250000,-0.049991,0.001000,0.001000,0.001000,0.001000,0.001000
1034.269231,-0.050000,0.001000,0.001000,0.001000,0.001000,0.001000
1034.288462,-0.049986,0.001000,0.001000,0.001000,0.001000,0.001000
1034.307692,-0.049949,0.001000,0.001000,0.001000,0.001000,0.001000
1034.326923,-0.049890,0.001000,0.001000,0.001000,0.001000,0.001000
1034.346154,-0.049808,0.001000,0.001000,0.001000,0.001000,0.001000
1034.365385,-0.049704,0.001000,0.001000,0.001000,0.001000,0.001000
1034.384615,-0.049577,0.001000,0.001000,0.001000,0.001000,0.001000
1034.403846,-0.049428,0.001000,0.001000,0.001000,0.001000,0.001000
1034.423077,-0.049257,0.001000,0.001000,0.001000,0.001000,0.001000
1034.442308,-0.049063,0.001000,0.001000,0.001000,0.001000,0.001000
1034.461538,-0.048847,0.001000,0.001000,0.001000,0.001000,0.001000
1034.480769,-0.048610,0.001000,0.001000,0.001000,0.001000,0.001000
1034.500000,-0.048350,0.001000,0.001000,0.001000,0.001000,0.001000
1034.519231,-0.048069,0.001000,0.001000,0.001000,0.001000,0.001000
1034.538462,-0.047765,0.001000,0.001000,0.001000,0.001000,0.001000
1034.557692,-0.047441,0.001000,0.001000,0.001000,0.001000,0.001000
1034.576923,-0.047095,0.001000,0.001000,0.001000,0.001000,0.001000
1034.596154,-0.046727,0.001000,0.001000,0.001000,0.001000,0.001000
1034.615385,-0.046339,0.001000,0.001000,0.001000,0.001000,0.001000
1034.634615,-0.045930,0.001000,0.001000,0.001000,0.001000,0.001000
1034.653846,-0.045500,0.001000,0.001000,0.001000,0.001000,0.001000
1034.673077,-0.045049,0.001000,0.001000,0.001000,0.001000,0.001000
1034.692308,-0.044578,0.001000,0.001000,0.001000,0.001000,0.001000
