timestamp,ax,ay,az,gx,gy,gz
1000.000000,0.000000,0.001000,0.001000,0.001000,0.001000,0.001000
1000.019231,0.001351,0.001000,0.001000,0.001000,0.001000,0.001000
1000.038462,0.002702,0.001000,0.001000,0.001000,0.001000,0.001000
1000.057692,0.004050,0.001000,0.001000,0.001000,0.001000,0.001000
1000.076923,0.005396,0.001000,0.001000,0.001000,0.001000,0.001000
1000.096154,0.006738,0.001000,0.001000,0.001000,0.001000,0.001000
1000.115385,0.008074,0.001000,0.001000,0.001000,0.001000,0.001000
1000.134615,0.009405,0.001000,0.001000,0.001000,0.001000,0.001000
1000.153846,0.010729,0.001000,0.001000,0.001000,0.001000,0.001000
1000.173077,0.012045,0.001000,0.001000,0.001000,0.001000,0.001000
1000.192308,0.013352,0.001000,0.001000,0.001000,0.001000,0.001000
1000.211538,0.014650,0.001000,0.001000,0.001000,0.001000,0.001000
1000.230769,0.015936,0.001000,0.001000,0.001000,0.001000,0.001000
1000.250000,0.017212,0.001000,0.001000,0.001000,0.001000,0.001000
1000.269231,0.018474,0.001000,0.001000,0.001000,0.001000,0.001000
1000.288462,0.019723,0.001000,0.001000,0.001000,0.001000,0.001000
1000.307692,0.020958,0.001000,0.001000,0.001000,0.001000,0.001000
1000.326923,0.022177,0.001000,0.001000,0.001000,0.001000,0.001000
1000.346154,0.023380,0.001000,0.001000,0.001000,0.001000,0.001000
1000.365385,0.024566,0.001000,0.001000,0.001000,0.001000,0.001000
1000.384615,0.025735,0.001000,0.001000,0.001000,0.001000,0.001000
1000.403846,0.026884,0.001000,0.001000,0.001000,0.001000,0.001000
1000.423077,0.028014,0.001000,0.001000,0.001000,0.001000,0.001000
1000.442308,0.029123,0.001000,0.001000,0.001000,0.001000,0.001000
1000.461538,0.030211,0.001000,0.001000,0.001000,0.001000,0.001000
1000.480769,0.031276,0.001000,0.001000,0.001000,0.001000,0.001000
1000.500000,0.032319,0.001000,0.001000,0.001000,0.001000,0.001000
1000.519231,0.033339,0.001000,0.001000,0.001000,0.001000,0.001000
1000.538462,0.034334,0.001000,0.001000,0.001000,0.001000,0.001000
1000.557692,0.035304,0.001000,0.001000,0.001000,0.001000,0.001000
1000.576923,0.036248,0.001000,0.001000,0.001000,0.001000,0.001000
1000.596154,0.037165,0.001000,0.001000,0.001000,0.001000,0.001000
1000.615385,0.038056,0.001000,0.001000,0.001000,0.001000,0.001000
1000.634615,0.038919,0.001000,0.001000,0.001000,0.001000,0.001000
1000.653846,0.039753,0.001000,0.001000,0.001000,0.001000,0.001000
1000.673077,0.040558,0.001000,0.001000,0.001000,0.001000,0.001000
1000.692308,0.041334,0.001000,0.001000,0.001000,0.001000,0.001000
1000.711538,0.042079,0.001000,0.001000,0.001000,0.001000,0.001000
1000.730769,0.042794,0.001000,0.001000,0.001000,0.001000,0.001000
1000.750000,0.043477,0.001000,0.001000,0.001000,0.001000,0.001000
1000.769231,0.044128,0.001000,0.001000,0.001000,0.001000,0.001000
1000.788462,0.044748,0.001000,0.001000,0.001000,0.001000,0.001000
1000.807692,0.045334,0.001000,0.001000,0.001000,0.001000,0.001000
1000.826923,0.045888,0.001000,0.001000,0.001000,0.001000,0.001000
1000.846154,0.046408,0.001000,0.001000,0.001000,0.001000,0.001000
1000.865385,0.046894,0.001000,0.001000,0.001000,0.001000,0.001000
1000.884615,0.047346,0.001000,0.001000,0.001000,0.001000,0.001000
1000.903846,0.047763,0.001000,0.001000,0.001000,0.001000,0.001000
1000.923077,0.048145,0.001000,0.001000,0.001000,0.001000,0.001000
1000.942308,0.048492,0.001000,0.001000,0.001000,0.001000,0.001000
1000.961538,0.048804,0.001000,0.001000,0.001000,0.001000,0.001000
1000.980769,0.049080,0.001000,0.001000,0.001000,0.001000,0.001000
1001.000000,0.049320,0.001000,0.001000,0.001000,0.001000,0.001000
1001.019231,0.049524,0.001000,0.001000,0.001000,0.001000,0.001000
1001.038462,0.049692,0.001000,0.001000,0.001000,0.001000,0.001000
1001.057692,0.049824,0.001000,0.001000,0.001000,0.001000,0.001000
1001.076923,0.049919,0.001000,0.001000,0.001000,0.001000,0.001000
1001.096154,0.049978,0.001000,0.001000,0.001000,0.001000,0.001000
1001.115385,0.050000,0.001000,0.001000,0.001000,0.001000,0.001000
1001.134615,0.049985,0.001000,0.001000,0.001000,0.001000,0.001000
1001.153846,0.049935,0.001000,0.001000,0.001000,0.001000,0.001000
1001.173077,0.049847,0.001000,0.001000,0.001000,0.001000,0.001000
1001.192308,0.049724,0.001000,0.001000,0.001000,0.001000,0.001000
1001.211538,0.049563,0.001000,0.001000,0.001000,0.001000,0.001000
1001.230769,0.049367,0.001000,0.001000,0.001000,0.001000,0.001000
1001.250000,0.049135,0.001000,0.001000,0.001000,0.001000,0.001000
1001.269231,0.048866,0.001000,0.001000,0.001000,0.001000,0.001000
1001.288462,0.048562,0.001000,0.001000,0.001000,0.001000,0.001000
1001.307692,0.048223,0.001000,0.001000,0.001000,0.001000,0.001000
1001.326923,0.047848,0.001000,0.001000,0.001000,0.001000,0.001000
1001.346154,0.047439,0.001000,0.001000,0.001000,0.001000,0.001000
1001.365385,0.046994,0.001000,0.001000,0.001000,0.001000,0.001000
1001.384615,0.046516,0.001000,0.001000,0.001000,0.001000,0.001000
1001.403846,0.046003,0.001000,0.001000,0.001000,0.001000,0.001000
1001.423077,0.045457,0.001000,0.001000,0.001000,0.001000,0.001000
1001.442308,0.044877,0.001000,0.001000,0.001000,0.001000,0.001000
1001.461538,0.044265,0.001000,0.001000,0.001000,0.001000,0.001000
1001.480769,0.043620,0.001000,0.001000,0.001000,0.001000,0.001000
1001.500000,0.042944,0.001000,0.001000,0.001000,0.001000,0.001000
1001.519231,0.042236,0.001000,0.001000,0.001000,0.001000,0.001000
1001.538462,0.041497,0.001000,0.001000,0.001000,0.001000,0.001000
1001.557692,0.040728,0.001000,0.001000,0.001000,0.001000,0.001000
1001.576923,0.039929,0.001000,0.001000,0.001000,0.001000,0.001000
1001.596154,0.039101,0.001000,0.001000,0.001000,0.001000,0.001000
1001.615385,0.038245,0.001000,0.001000,0.001000,0.001000,0.001000
1001.634615,0.037360,0.001000,0.001000,0.001000,0.001000,0.001000
1001.653846,0.036448,0.001000,0.001000,0.001000,0.001000,0.001000
1001.673077,0.035510,0.001000,0.001000,0.001000,0.001000,0.001000
1001.692308,0.034545,0.001000,0.001000,0.001000,0.001000,0.001000
1001.711538,0.033556,0.001000,0.001000,0.001000,0.001000,0.001000
1001.730769,0.032542,0.001000,0.001000,0.001000,0.001000,0.001000
1001.750000,0.031504,0.001000,0.001000,0.001000,0.001000,0.001000
1001.769231,0.030443,0.001000,0.001000,0.001000,0.001000,0.001000
1001.788462,0.029359,0.001000,0.001000,0.001000,0.001000,0.001000
1001.807692,0.028255,0.001000,0.001000,0.001000,0.001000,0.001000
1001.826923,0.027129,0.001000,0.001000,0.001000,0.001000,0.001000
1001.846154,0.025984,0.001000,0.001000,0.001000,0.001000,0.001000
1001.865385,0.024820,0.001000,0.001000,0.001000,0.001000,0.001000
1001.884615,0.023638,0.001000,0.001000,0.001000,0.001000,0.001000
1001.903846,0.022438,0.001000,0.001000,0.001000,0.001000,0.001000
1001.923077,0.021222,0.001000,0.001000,0.001000,0.001000,0.001000
1001.942308,0.019991,0.001000,0.001000,0.001000,0.001000,0.001000
1001.961538,0.018745,0.001000,0.001000,0.001000,0.001000,0.001000
1001.980769,0.017485,0.001000,0.001000,0.001000,0.001000,0.001000
1002.000000,0.016213,0.001000,0.001000,0.001000,0.001000,0.001000
1002.019231,0.014928,0.001000,0.001000,0.001000,0.001000,0.001000
1002.038462,0.013633,0.001000,0.001000,0.001000,0.001000,0.001000
1002.057692,0.012328,0.001000,0.001000,0.001000,0.001000,0.001000
1002.076923,0.011014,0.001000,0.001000,0.001000,0.001000,0.001000
1002.096154,0.009691,0.001000,0.001000,0.001000,0.001000,0.001000
1002.115385,0.008362,0.001000,0.001000,0.001000,0.001000,0.001000
1002.134615,0.007027,0.001000,0.001000,0.001000,0.001000,0.001000
1002.153846,0.005686,0.001000,0.001000,0.001000,0.001000,0.001000
1002.173077,0.004341,0.001000,0.001000,0.001000,0.001000,0.001000
1002.192308,0.002993,0.001000,0.001000,0.001000,0.001000,0.001000
1002.211538,0.001643,0.001000,0.001000,0.001000,0.001000,0.001000
1002.230769,0.000292,0.001000,0.001000,0.001000,0.001000,0.001000
1002.250000,-0.001060,0.001000,0.001000,0.001000,0.001000,0.001000
1002.269231,-0.002411,0.001000,0.001000,0.001000,0.001000,0.001000
1002.288462,-0.003760,0.001000,0.001000,0.001000,0.001000,0.001000
1002.307692,-0.005106,0.001000,0.001000,0.001000,0.001000,0.001000
1002.326923,-0.006448,0.001000,0.001000,0.001000,0.001000,0.001000
1002.346154,-0.007786,0.001000,0.001000,0.001000,0.001000,0.001000
1002.365385,-0.009118,0.001000,0.001000,0.001000,0.001000,0.001000
1002.384615,-0.010444,0.001000,0.001000,0.001000,0.001000,0.001000
1002.403846,-0.011762,0.001000,0.001000,0.001000,0.001000,0.001000
1002.423077,-0.013071,0.001000,0.001000,0.001000,0.001000,0.001000
1002.442308,-0.014370,0.001000,0.001000,0.001000,0.001000,0.001000
1002.461538,-0.015660,0.001000,0.001000,0.001000,0.001000,0.001000
1002.480769,-0.016937,0.001000,0.001000,0.001000,0.001000,0.001000
1002.500000,-0.018203,0.001000,0.001000,0.001000,0.001000,0.001000
1002.519231,-0.019455,0.001000,0.001000,0.001000,0.001000,0.001000
1002.538462,-0.020693,0.001000,0.001000,0.001000,0.001000,0.001000
1002.557692,-0.021915,0.001000,0.001000,0.001000,0.001000,0.001000
1002.576923,-0.023122,0.001000,0.001000,0.001000,0.001000,0.001000
1002.596154,-0.024312,0.001000,0.001000,0.001000,0.001000,0.001000
1002.615385,-0.025484,0.001000,0.001000,0.001000,0.001000,0.001000
1002.634615,-0.026637,0.001000,0.001000,0.001000,0.001000,0.001000
1002.653846,-0.027771,0.001000,0.001000,0.001000,0.001000,0.001000
1002.673077,-0.028885,0.001000,0.001000,0.001000,0.001000,0.001000
1002.692308,-0.029978,0.001000,0.001000,0.001000,0.001000,0.001000
1002.711538,-0.031048,0.001000,0.001000,0.001000,0.001000,0.001000
1002.730769,-0.032096,0.001000,0.001000,0.001000,0.001000,0.001000
1002.750000,-0.033121,0.001000,0.001000,0.001000,0.001000,0.001000
1002.769231,-0.034121,0.001000,0.001000,0.001000,0.001000,0.001000
1002.788462,-0.035097,0.001000,0.001000,0.001000,0.001000,0.001000
1002.807692,-0.036046,0.001000,0.001000,0.001000,0.001000,0.001000
1002.826923,-0.036970,0.001000,0.001000,0.001000,0.001000,0.001000
1002.846154,-0.037866,0.001000,0.001000,0.001000,0.001000,0.001000
1002.865385,-0.038735,0.001000,0.001000,0.001000,0.001000,0.001000
1002.884615,-0.039575,0.001000,0.001000,0.001000,0.001000,0.001000
1002.903846,-0.040387,0.001000,0.001000,0.001000,0.001000,0.001000
1002.923077,-0.041169,0.001000,0.001000,0.001000,0.001000,0.001000
1002.942308,-0.041921,0.001000,0.001000,0.001000,0.001000,0.001000
1002.961538,-0.042642,0.001000,0.001000,0.001000,0.001000,0.001000
1002.980769,-0.043332,0.001000,0.001000,0.001000,0.001000,0.001000
1003.000000,-0.043990,0.001000,0.001000,0.001000,0.001000,0.001000
1003.019231,-0.044617,0.001000,0.001000,0.001000,0.001000,0.001000
1003.038462,-0.045210,0.001000,0.001000,0.001000,0.001000,0.001000
1003.057692,-0.045771,0.001000,0.001000,0.001000,0.001000,0.001000
1003.076923,-0.046298,0.001000,0.001000,0.001000,0.001000,0.001000
1003.096154,-0.046792,0.001000,0.001000,0.001000,0.001000,0.001000
1003.115385,-0.047251,0.001000,0.001000,0.001000,0.001000,0.001000
1003.134615,-0.047676,0.001000,0.001000,0.001000,0.001000,0.001000
1003.153846,-0.048066,0.001000,0.001000,0.001000,0.001000,0.001000
1003.173077,-0.048420,0.001000,0.001000,0.001000,0.001000,0.001000
1003.192308,-0.048740,0.001000,0.001000,0.001000,0.001000,0.001000
1003.211538,-0.049023,0.001000,0.001000,0.001000,0.001000,0.001000
1003.230769,-0.049271,0.001000,0.001000,0.001000,0.001000,0.001000
1003.250000,-0.049483,0.001000,0.001000,0.001000,0.001000,0.001000
1003.269231,-0.049659,0.001000,0.001000,0.001000,0.001000,0.001000
1003.288462,-0.049798,0.001000,0.001000,0.001000,0.001000,0.001000
1003.307692,-0.049901,0.001000,0.001000,0.001000,0.001000,0.001000
1003.326923,-0.049968,0.001000,0.001000,0.001000,0.001000,0.001000
1003.346154,-0.049998,0.001000,0.001000,0.001000,0.001000,0.001000
1003.365385,-0.049992,0.001000,0.001000,0.001000,0.001000,0.001000
1003.384615,-0.049949,0.001000,0.001000,0.001000,0.001000,0.001000
1003.403846,-0.049869,0.001000,0.001000,0.001000,0.001000,0.001000
1003.423077,-0.049753,0.001000,0.001000,0.001000,0.001000,0.001000
1003.442308,-0.049601,0.001000,0.001000,0.001000,0.001000,0.001000
1003.461538,-0.049413,0.001000,0.001000,0.001000,0.001000,0.001000
1003.480769,-0.049188,0.001000,0.001000,0.001000,0.001000,0.001000
1003.500000,-0.048927,0.001000,0.001000,0.001000,0.001000,0.001000
1003.519231,-0.048631,0.001000,0.001000,0.001000,0.001000,0.001000
1003.538462,-0.048299,0.001000,0.001000,0.001000,0.001000,0.001000
1003.557692,-0.047932,0.001000,0.001000,0.001000,0.001000,0.001000
1003.576923,-0.047530,0.001000,0.001000,0.001000,0.001000,0.001000
1003.596154,-0.047093,0.001000,0.001000,0.001000,0.001000,0.001000
1003.615385,-0.046622,0.001000,0.001000,0.001000,0.001000,0.001000
1003.634615,-0.046116,0.001000,0.001000,0.001000,0.001000,0.001000
1003.653846,-0.045577,0.001000,0.001000,0.001000,0.001000,0.001000
1003.673077,-0.045005,0.001000,0.001000,0.001000,0.001000,0.001000
1003.692308,-0.044400,0.001000,0.001000,0.001000,0.001000,0.001000
1003.711538,-0.043762,0.001000,0.001000,0.001000,0.001000,0.001000
1003.730769,-0.043092,0.001000,0.001000,0.001000,0.001000,0.001000
1003.750000,-0.042391,0.001000,0.001000,0.001000,0.001000,0.001000
1003.769231,-0.041659,0.001000,0.001000,0.001000,0.001000,0.001000
1003.788462,-0.040897,0.001000,0.001000,0.001000,0.001000,0.001000
1003.807692,-0.040104,0.001000,0.001000,0.001000,0.001000,0.001000
1003.826923,-0.039282,0.001000,0.001000,0.001000,0.001000,0.001000
1003.846154,-0.038432,0.001000,0.001000,0.001000,0.001000,0.001000
1003.865385,-0.037553,0.001000,0.001000,0.001000,0.001000,0.001000
1003.884615,-0.036647,0.001000,0.001000,0.001000,0.001000,0.001000
1003.903846,-0.035715,0.001000,0.001000,0.001000,0.001000,0.001000
1003.923077,-0.034756,0.001000,0.001000,0.001000,0.001000,0.001000
1003.942308,-0.033771,0.001000,0.001000,0.001000,0.001000,0.001000
1003.961538,-0.032762,0.001000,0.001000,0.001000,0.001000,0.001000
1003.980769,-0.031730,0.001000,0.001000,0.001000,0.001000,0.001000
1004.000000,-0.030674,0.001000,0.001000,0.001000,0.001000,0.001000
1004.019231,-0.029595,0.001000,0.001000,0.001000,0.001000,0.001000
1004.038462,-0.028495,0.001000,0.001000,0.001000,0.001000,0.001000
1004.057692,-0.027374,0.001000,0.001000,0.001000,0.001000,0.001000
1004.076923,-0.026233,0.001000,0.001000,0.001000,0.001000,0.001000
1004.096154,-0.025073,0.001000,0.001000,0.001000,0.001000,0.001000
1004.115385,-0.023895,0.001000,0.001000,0.001000,0.001000,0.001000
1004.134615,-0.022699,0.001000,0.001000,0.001000,0.001000,0.001000
1004.153846,-0.021486,0.001000,0.001000,0.001000,0.001000,0.001000
1004.173077,-0.020258,0.001000,0.001000,0.001000,0.001000,0.001000
1004.192308,-0.019015,0.001000,0.001000,0.001000,0.001000,0.001000
1004.211538,-0.017758,0.001000,0.001000,0.001000,0.001000,0.001000
1004.230769,-0.016488,0.001000,0.001000,0.001000,0.001000,0.001000
1004.250000,-0.015207,0.001000,0.001000,0.001000,0.001000,0.001000
1004.269231,-0.013914,0.001000,0.001000,0.001000,0.001000,0.001000
1004.288462,-0.012610,0.001000,0.001000,0.001000,0.001000,0.001000
1004.307692,-0.011298,0.001000,0.001000,0.001000,0.001000,0.001000
1004.326923,-0.009977,0.001000,0.001000,0.001000,0.001000,0.001000
1004.346154,-0.008650,0.001000,0.001000,0.001000,0.001000,0.001000
1004.365385,-0.007315,0.001000,0.001000,0.001000,0.001000,0.001000
1004.384615,-0.005976,0.001000,0.001000,0.001000,0.001000,0.001000
1004.403846,-0.004632,0.001000,0.001000,0.001000,0.001000,0.001000
1004.423077,-0.003284,0.001000,0.001000,0.001000,0.001000,0.001000
1004.442308,-0.001935,0.001000,0.001000,0.001000,0.001000,0.001000
1004.461538,-0.000584,0.001000,0.001000,0.001000,0.001000,0.001000
1004.480769,0.000768,0.001000,0.001000,0.001000,0.001000,0.001000
1004.500000,0.002119,0.001000,0.001000,0.001000,0.001000,0.001000
1004.519231,0.003469,0.001000,0.001000,0.001000,0.001000,0.001000
1004.538462,0.004815,0.001000,0.001000,0.001000,0.001000,0.001000
1004.557692,0.006159,0.001000,0.001000,0.001000,0.001000,0.001000
1004.576923,0.007498,0.001000,0.001000,0.001000,0.001000,0.001000
1004.596154,0.008831,0.001000,0.001000,0.001000,0.001000,0.001000
1004.615385,0.010158,0.001000,0.001000,0.001000,0.001000,0.001000
1004.634615,0.011478,0.001000,0.001000,0.001000,0.001000,0.001000
1004.653846,0.012789,0.001000,0.001000,0.001000,0.001000,0.001000
1004.673077,0.014091,0.001000,0.001000,0.001000,0.001000,0.001000
1004.692308,0.015382,0.001000,0.001000,0.001000,0.001000,0.001000
1004.711538,0.016663,0.001000,0.001000,0.001000,0.001000,0.001000
1004.730769,0.017931,0.001000,0.001000,0.001000,0.001000,0.001000
1004.750000,0.019186,0.001000,0.001000,0.001000,0.001000,0.001000
1004.769231,0.020427,0.001000,0.001000,0.001000,0.001000,0.001000
1004.788462,0.021653,0.001000,0.001000,0.001000,0.001000,0.001000
1004.807692,0.022863,0.001000,0.001000,0.001000,0.001000,0.001000
1004.826923,0.024057,0.001000,0.001000,0.001000,0.001000,0.001000
1004.846154,0.025233,0.001000,0.001000,0.001000,0.001000,0.001000
1004.865385,0.026390,0.001000,0.001000,0.001000,0.001000,0.001000
1004.884615,0.027528,0.001000,0.001000,0.001000,0.001000,0.001000
1004.903846,0.028646,0.001000,0.001000,0.001000,0.001000,0.001000
1004.923077,0.029744,0.001000,0.001000,0.001000,0.001000,0.001000
1004.942308,0.030819,0.001000,0.001000,0.001000,0.001000,0.001000
1004.961538,0.031872,0.001000,0.001000,0.001000,0.001000,0.001000
1004.980769,0.032902,0.001000,0.001000,0.001000,0.001000,0.001000
1005.000000,0.033907,0.001000,0.001000,0.001000,0.001000,0.001000
1005.019231,0.034888,0.001000,0.001000,0.001000,0.001000,0.001000
1005.038462,0.035843,0.001000,0.001000,0.001000,0.001000,0.001000
1005.057692,0.036773,0.001000,0.001000,0.001000,0.001000,0.001000
1005.076923,0.037675,0.001000,0.001000,0.001000,0.001000,0.001000
1005.096154,0.038550,0.001000,0.001000,0.001000,0.001000,0.001000
1005.115385,0.039396,0.001000,0.001000,0.001000,0.001000,0.001000
1005.134615,0.040214,0.001000,0.001000,0.001000,0.001000,0.001000
1005.153846,0.041002,0.001000,0.001000,0.001000,0.001000,0.001000
1005.173077,0.041761,0.001000,0.001000,0.001000,0.001000,0.001000
1005.192308,0.042489,0.001000,0.001000,0.001000,0.001000,0.001000
1005.211538,0.043186,0.001000,0.001000,0.001000,0.001000,0.001000
1005.230769,0.043851,0.001000,0.001000,0.001000,0.001000,0.001000
1005.250000,0.044484,0.001000,0.001000,0.001000,0.001000,0.001000
1005.269231,0.045085,0.001000,0.001000,0.001000,0.001000,0.001000
1005.288462,0.045653,0.001000,0.001000,0.001000,0.001000,0.001000
1005.307692,0.046187,0.001000,0.001000,0.001000,0.001000,0.001000
1005.326923,0.046688,0.001000,0.001000,0.001000,0.001000,0.001000
1005.346154,0.047155,0.001000,0.001000,0.001000,0.001000,0.001000
1005.365385,0.047587,0.001000,0.001000,0.001000,0.001000,0.001000
1005.384615,0.047984,0.001000,0.001000,0.001000,0.001000,0.001000
1005.403846,0.048347,0.001000,0.001000,0.001000,0.001000,0.001000
1005.423077,0.048674,0.001000,0.001000,0.001000,0.001000,0.001000
1005.442308,0.048965,0.001000,0.001000,0.001000,0.001000,0.001000
1005.461538,0.049221,0.001000,0.001000,0.001000,0.001000,0.001000
1005.480769,0.049440,0.001000,0.001000,0.001000,0.001000,0.001000
1005.500000,0.049624,0.001000,0.001000,0.001000,0.001000,0.001000
1005.519231,0.049771,0.001000,0.001000,0.001000,0.001000,0.001000
1005.538462,0.049882,0.001000,0.001000,0.001000,0.001000,0.001000
1005.557692,0.049957,0.001000,0.001000,0.001000,0.001000,0.001000
1005.576923,0.049995,0.001000,0.001000,0.001000,0.001000,0.001000
1005.596154,0.049996,0.001000,0.001000,0.001000,0.001000,0.001000
1005.615385,0.049961,0.001000,0.001000,0.001000,0.001000,0.001000
1005.634615,0.049889,0.001000,0.001000,0.001000,0.001000,0.001000
1005.653846,0.049781,0.001000,0.001000,0.001000,0.001000,0.001000
1005.673077,0.049637,0.001000,0.001000,0.001000,0.001000,0.001000
1005.692308,0.049456,0.001000,0.001000,0.001000,0.001000,0.001000
1005.711538,0.049239,0.001000,0.001000,0.001000,0.001000,0.001000
1005.730769,0.048987,0.001000,0.001000,0.001000,0.001000,0.001000
1005.750000,0.048698,0.001000,0.001000,0.001000,0.001000,0.001000
1005.769231,0.048374,0.001000,0.001000,0.001000,0.001000,0.001000
1005.788462,0.048014,0.001000,0.001000,0.001000,0.001000,0.001000
1005.807692,0.047620,0.001000,0.001000,0.001000,0.001000,0.001000
1005.826923,0.047190,0.001000,0.001000,0.001000,0.001000,0.001000
1005.846154,0.046726,0.001000,0.001000,0.001000,0.001000,0.001000
1005.865385,0.046228,0.001000,0.001000,0.001000,0.001000,0.001000
1005.884615,0.045697,0.001000,0.001000,0.001000,0.001000,0.001000
1005.903846,0.045131,0.001000,0.001000,0.001000,0.001000,0.001000
1005.923077,0.044533,0.001000,0.001000,0.001000,0.001000,0.001000
1005.942308,0.043902,0.001000,0.001000,0.001000,0.001000,0.001000
1005.961538,0.043240,0.001000,0.001000,0.001000,0.001000,0.001000
1005.980769,0.042545,0.001000,0.001000,0.001000,0.001000,0.001000
1006.000000,0.041820,0.001000,0.001000,0.001000,0.001000,0.001000
1006.019231,0.041064,0.001000,0.001000,0.001000,0.001000,0.001000
1006.038462,0.040278,0.001000,0.001000,0.001000,0.001000,0.001000
1006.057692,0.039462,0.001000,0.001000,0.001000,0.001000,0.001000
1006.076923,0.038618,0.001000,0.001000,0.001000,0.001000,0.001000
1006.096154,0.037745,0.001000,0.001000,0.001000,0.001000,0.001000
1006.115385,0.036845,0.001000,0.001000,0.001000,0.001000,0.001000
1006.134615,0.035918,0.001000,0.001000,0.001000,0.001000,0.001000
1006.153846,0.034965,0.001000,0.001000,0.001000,0.001000,0.001000
1006.173077,0.033986,0.001000,0.001000,0.001000,0.001000,0.001000
1006.192308,0.032982,0.001000,0.001000,0.001000,0.001000,0.001000
1006.211538,0.031955,0.001000,0.001000,0.001000,0.001000,0.001000
1006.230769,0.030903,0.001000,0.001000,0.001000,0.001000,0.001000
1006.250000,0.029830,0.001000,0.001000,0.001000,0.001000,0.001000
1006.269231,0.028734,0.001000,0.001000,0.001000,0.001000,0.001000
1006.288462,0.027618,0.001000,0.001000,0.001000,0.001000,0.001000
1006.307692,0.026481,0.001000,0.001000,0.001000,0.001000,0.001000
1006.326923,0.025325,0.001000,0.001000,0.001000,0.001000,0.001000
1006.346154,0.024150,0.001000,0.001000,0.001000,0.001000,0.001000
1006.365385,0.022958,0.001000,0.001000,0.001000,0.001000,0.001000
1006.384615,0.021749,0.001000,0.001000,0.001000,0.001000,0.001000
1006.403846,0.020525,0.001000,0.001000,0.001000,0.001000,0.001000
1006.423077,0.019285,0.001000,0.001000,0.001000,0.001000,0.001000
1006.442308,0.018031,0.001000,0.001000,0.001000,0.001000,0.001000
1006.461538,0.016764,0.001000,0.001000,0.001000,0.001000,0.001000
1006.480769,0.015484,0.001000,0.001000,0.001000,0.001000,0.001000
1006.500000,0.014194,0.001000,0.001000,0.001000,0.001000,0.001000
1006.519231,0.012893,0.001000,0.001000,0.001000,0.001000,0.001000
1006.538462,0.011582,0.001000,0.001000,0.001000,0.001000,0.001000
1006.557692,0.010263,0.001000,0.001000,0.001000,0.001000,0.001000
1006.576923,0.008937,0.001000,0.001000,0.001000,0.001000,0.001000
1006.596154,0.007604,0.001000,0.001000,0.001000,0.001000,0.001000
1006.615385,0.006265,0.001000,0.001000,0.001000,0.001000,0.001000
1006.634615,0.004922,0.001000,0.001000,0.001000,0.001000,0.001000
1006.653846,0.003575,0.001000,0.001000,0.001000,0.001000,0.001000
1006.673077,0.002226,0.001000,0.001000,0.001000,0.001000,0.001000
1006.692308,0.000875,0.001000,0.001000,0.001000,0.001000,0.001000
1006.711538,-0.000476,0.001000,0.001000,0.001000,0.001000,0.001000
1006.730769,-0.001828,0.001000,0.001000,0.001000,0.001000,0.001000
1006.750000,-0.003177,0.001000,0.001000,0.001000,0.001000,0.001000
1006.769231,-0.004525,0.001000,0.001000,0.001000,0.001000,0.001000
1006.788462,-0.005869,0.001000,0.001000,0.001000,0.001000,0.001000
1006.807692,-0.007209,0.001000,0.001000,0.001000,0.001000,0.001000
1006.826923,-0.008544,0.001000,0.001000,0.001000,0.001000,0.001000
1006.846154,-0.009872,0.001000,0.001000,0.001000,0.001000,0.001000
1006.865385,-0.011194,0.001000,0.001000,0.001000,0.001000,0.001000
1006.884615,-0.012507,0.001000,0.001000,0.001000,0.001000,0.001000
1006.903846,-0.013811,0.001000,0.001000,0.001000,0.001000,0.001000
1006.923077,-0.015104,0.001000,0.001000,0.001000,0.001000,0.001000
1006.942308,-0.016387,0.001000,0.001000,0.001000,0.001000,0.001000
1006.961538,-0.017658,0.001000,0.001000,0.001000,0.001000,0.001000
1006.980769,-0.018916,0.001000,0.001000,0.001000,0.001000,0.001000
1007.000000,-0.020160,0.001000,0.001000,0.001000,0.001000,0.001000
1007.019231,-0.021389,0.001000,0.001000,0.001000,0.001000,0.001000
1007.038462,-0.022603,0.001000,0.001000,0.001000,0.001000,0.001000
1007.057692,-0.023800,0.001000,0.001000,0.001000,0.001000,0.001000
1007.076923,-0.024980,0.001000,0.001000,0.001000,0.001000,0.001000
1007.096154,-0.026142,0.001000,0.001000,0.001000,0.001000,0.001000
1007.115385,-0.027284,0.001000,0.001000,0.001000,0.001000,0.001000
1007.134615,-0.028407,0.001000,0.001000,0.001000,0.001000,0.001000
1007.153846,-0.029509,0.001000,0.001000,0.001000,0.001000,0.001000
1007.173077,-0.030589,0.001000,0.001000,0.001000,0.001000,0.001000
1007.192308,-0.031647,0.001000,0.001000,0.001000,0.001000,0.001000
1007.211538,-0.032681,0.001000,0.001000,0.001000,0.001000,0.001000
1007.230769,-0.033692,0.001000,0.001000,0.001000,0.001000,0.001000
1007.250000,-0.034679,0.001000,0.001000,0.001000,0.001000,0.001000
1007.269231,-0.035639,0.001000,0.001000,0.001000,0.001000,0.001000
1007.288462,-0.036574,0.001000,0.001000,0.001000,0.001000,0.001000
1007.307692,-0.037482,0.001000,0.001000,0.001000,0.001000,0.001000
1007.326923,-0.038363,0.001000,0.001000,0.001000,0.001000,0.001000
1007.346154,-0.039216,0.001000,0.001000,0.001000,0.001000,0.001000
1007.365385,-0.040040,0.001000,0.001000,0.001000,0.001000,0.001000
1007.384615,-0.040835,0.001000,0.001000,0.001000,0.001000,0.001000
1007.403846,-0.041600,0.001000,0.001000,0.001000,0.001000,0.001000
1007.423077,-0.042334,0.001000,0.001000,0.001000,0.001000,0.001000
1007.442308,-0.043038,0.001000,0.001000,0.001000,0.001000,0.001000
1007.461538,-0.043710,0.001000,0.001000,0.001000,0.001000,0.001000
1007.480769,-0.044350,0.001000,0.001000,0.001000,0.001000,0.001000
1007.500000,-0.044958,0.001000,0.001000,0.001000,0.001000,0.001000
1007.519231,-0.045533,0.001000,0.001000,0.001000,0.001000,0.001000
1007.538462,-0.046075,0.001000,0.001000,0.001000,0.001000,0.001000
1007.557692,-0.046583,0.001000,0.001000,0.001000,0.001000,0.001000
1007.576923,-0.047057,0.001000,0.001000,0.001000,0.001000,0.001000
1007.596154,-0.047497,0.001000,0.001000,0.001000,0.001000,0.001000
1007.615385,-0.047901,0.001000,0.001000,0.001000,0.001000,0.001000
1007.634615,-0.048271,0.001000,0.001000,0.001000,0.001000,0.001000
1007.653846,-0.048606,0.001000,0.001000,0.001000,0.001000,0.001000
1007.673077,-0.048905,0.001000,0.001000,0.001000,0.001000,0.001000
1007.692308,-0.049169,0.001000,0.001000,0.001000,0.001000,0.001000
1007.711538,-0.049396,0.001000,0.001000,0.001000,0.001000,0.001000
1007.730769,-0.049587,0.001000,0.001000,0.001000,0.001000,0.001000
1007.750000,-0.049743,0.001000,0.001000,0.001000,0.001000,0.001000
1007.769231,-0.049861,0.001000,0.001000,0.001000,0.001000,0.001000
1007.788462,-0.049944,0.001000,0.001000,0.001000,0.001000,0.001000
1007.807692,-0.049990,0.001000,0.001000,0.001000,0.001000,0.001000
1007.826923,-0.049999,0.001000,0.001000,0.001000,0.001000,0.001000
1007.846154,-0.049972,0.001000,0.001000,0.001000,0.001000,0.001000
1007.865385,-0.049908,0.001000,0.001000,0.001000,0.001000,0.001000
1007.884615,-0.049808,0.001000,0.001000,0.001000,0.001000,0.001000
1007.903846,-0.049671,0.001000,0.001000,0.001000,0.001000,0.001000
1007.923077,-0.049498,0.001000,0.001000,0.001000,0.001000,0.001000
1007.942308,-0.049289,0.001000,0.001000,0.001000,0.001000,0.001000
1007.961538,-0.049044,0.001000,0.001000,0.001000,0.001000,0.001000
1007.980769,-0.048763,0.001000,0.001000,0.001000,0.001000,0.001000
1008.000000,-0.048447,0.001000,0.001000,0.001000,0.001000,0.001000
1008.019231,-0.048095,0.001000,0.001000,0.001000,0.001000,0.001000
1008.038462,-0.047708,0.001000,0.001000,0.001000,0.001000,0.001000
1008.057692,-0.047286,0.001000,0.001000,0.001000,0.001000,0.001000
1008.076923,-0.046829,0.001000,0.001000,0.001000,0.001000,0.001000
1008.096154,-0.046339,0.001000,0.001000,0.001000,0.001000,0.001000
1008.115385,-0.045814,0.001000,0.001000,0.001000,0.001000,0.001000
1008.134615,-0.045256,0.001000,0.001000,0.001000,0.001000,0.001000
1008.153846,-0.044665,0.001000,0.001000,0.001000,0.001000,0.001000
1008.173077,-0.044041,0.001000,0.001000,0.001000,0.001000,0.001000
1008.192308,-0.043385,0.001000,0.001000,0.001000,0.001000,0.001000
1008.211538,-0.042698,0.001000,0.001000,0.001000,0.001000,0.001000
1008.230769,-0.041979,0.001000,0.001000,0.001000,0.001000,0.001000
1008.250000,-0.041229,0.001000,0.001000,0.001000,0.001000,0.001000
1008.269231,-0.040450,0.001000,0.001000,0.001000,0.001000,0.001000
1008.288462,-0.039641,0.001000,0.001000,0.001000,0.001000,0.001000
1008.307692,-0.038802,0.001000,0.001000,0.001000,0.001000,0.001000
1008.326923,-0.037936,0.001000,0.001000,0.001000,0.001000,0.001000
1008.346154,-0.037042,0.001000,0.001000,0.001000,0.001000,0.001000
1008.365385,-0.036120,0.001000,0.001000,0.001000,0.001000,0.001000
1008.384615,-0.035173,0.001000,0.001000,0.001000,0.001000,0.001000
1008.403846,-0.034199,0.001000,0.001000,0.001000,0.001000,0.001000
1008.423077,-0.033201,0.001000,0.001000,0.001000,0.001000,0.001000
1008.442308,-0.032178,0.001000,0.001000,0.001000,0.001000,0.001000
1008.461538,-0.031132,0.001000,0.001000,0.001000,0.001000,0.001000
1008.480769,-0.030063,0.001000,0.001000,0.001000,0.001000,0.001000
1008.500000,-0.028972,0.001000,0.001000,0.001000,0.001000,0.001000
1008.519231,-0.027860,0.001000,0.001000,0.001000,0.001000,0.001000
1008.538462,-0.026728,0.001000,0.001000,0.001000,0.001000,0.001000
1008.557692,-0.025576,0.001000,0.001000,0.001000,0.001000,0.001000
1008.576923,-0.024406,0.001000,0.001000,0.001000,0.001000,0.001000
1008.596154,-0.023217,0.001000,0.001000,0.001000,0.001000,0.001000
1008.615385,-0.022012,0.001000,0.001000,0.001000,0.001000,0.001000
1008.634615,-0.020790,0.001000,0.001000,0.001000,0.001000,0.001000
1008.653846,-0.019554,0.001000,0.001000,0.001000,0.001000,0.001000
1008.673077,-0.018303,0.001000,0.001000,0.001000,0.001000,0.001000
1008.692308,-0.017038,0.001000,0.001000,0.001000,0.001000,0.001000
1008.711538,-0.015761,0.001000,0.001000,0.001000,0.001000,0.001000
1008.730769,-0.014473,0.001000,0.001000,0.001000,0.001000,0.001000
1008.750000,-0.013174,0.001000,0.001000,0.001000,0.001000,0.001000
1008.769231,-0.011866,0.001000,0.001000,0.001000,0.001000,0.001000
1008.788462,-0.010549,0.001000,0.001000,0.001000,0.001000,0.001000
1008.807692,-0.009224,0.001000,0.001000,0.001000,0.001000,0.001000
1008.826923,-0.007892,0.001000,0.001000,0.001000,0.001000,0.001000
1008.846154,-0.006555,0.001000,0.001000,0.001000,0.001000,0.001000
1008.865385,-0.005212,0.001000,0.001000,0.001000,0.001000,0.001000
1008.884615,-0.003866,0.001000,0.001000,0.001000,0.001000,0.001000
1008.903846,-0.002518,0.001000,0.001000,0.001000,0.001000,0.001000
1008.923077,-0.001167,0.001000,0.001000,0.001000,0.001000,0.001000
1008.942308,0.000185,0.001000,0.001000,0.001000,0.001000,0.001000
1008.961538,0.001536,0.001000,0.001000,0.001000,0.001000,0.001000
1008.980769,0.002886,0.001000,0.001000,0.001000,0.001000,0.001000
1009.000000,0.004234,0.001000,0.001000,0.001000,0.001000,0.001000
1009.019231,0.005579,0.001000,0.001000,0.001000,0.001000,0.001000
1009.038462,0.006920,0.001000,0.001000,0.001000,0.001000,0.001000
1009.057692,0.008256,0.001000,0.001000,0.001000,0.001000,0.001000
1009.076923,0.009586,0.001000,0.001000,0.001000,0.001000,0.001000
1009.096154,0.010909,0.001000,0.001000,0.001000,0.001000,0.001000
1009.115385,0.012224,0.001000,0.001000,0.001000,0.001000,0.001000
1009.134615,0.013530,0.001000,0.001000,0.001000,0.001000,0.001000
1009.153846,0.014826,0.001000,0.001000,0.001000,0.001000,0.001000
1009.173077,0.016111,0.001000,0.001000,0.001000,0.001000,0.001000
1009.192308,0.017385,0.001000,0.001000,0.001000,0.001000,0.001000
1009.211538,0.018646,0.001000,0.001000,0.001000,0.001000,0.001000
1009.230769,0.019893,0.001000,0.001000,0.001000,0.001000,0.001000
1009.250000,0.021125,0.001000,0.001000,0.001000,0.001000,0.001000
1009.269231,0.022343,0.001000,0.001000,0.001000,0.001000,0.001000
1009.288462,0.023543,0.001000,0.001000,0.001000,0.001000,0.001000
1009.307692,0.024727,0.001000,0.001000,0.001000,0.001000,0.001000
1009.326923,0.025893,0.001000,0.001000,0.001000,0.001000,0.001000
1009.346154,0.027039,0.001000,0.001000,0.001000,0.001000,0.001000
1009.365385,0.028166,0.001000,0.001000,0.001000,0.001000,0.001000
1009.384615,0.029273,0.001000,0.001000,0.001000,0.001000,0.001000
1009.403846,0.030358,0.001000,0.001000,0.001000,0.001000,0.001000
1009.423077,0.031420,0.001000,0.001000,0.001000,0.001000,0.001000
1009.442308,0.032460,0.001000,0.001000,0.001000,0.001000,0.001000
1009.461538,0.033476,0.001000,0.001000,0.001000,0.001000,0.001000
1009.480769,0.034468,0.001000,0.001000,0.001000,0.001000,0.001000
1009.500000,0.035434,0.001000,0.001000,0.001000,0.001000,0.001000
1009.519231,0.036375,0.001000,0.001000,0.001000,0.001000,0.001000
1009.538462,0.037289,0.001000,0.001000,0.001000,0.001000,0.001000
1009.557692,0.038175,0.001000,0.001000,0.001000,0.001000,0.001000
1009.576923,0.039034,0.001000,0.001000,0.001000,0.001000,0.001000
1009.596154,0.039865,0.001000,0.001000,0.001000,0.001000,0.001000
1009.615385,0.040666,0.001000,0.001000,0.001000,0.001000,0.001000
1009.634615,0.041437,0.001000,0.001000,0.001000,0.001000,0.001000
1009.653846,0.042178,0.001000,0.001000,0.001000,0.001000,0.001000
1009.673077,0.042889,0.001000,0.001000,0.001000,0.001000,0.001000
1009.692308,0.043568,0.001000,0.001000,0.001000,0.001000,0.001000
1009.711538,0.044215,0.001000,0.001000,0.001000,0.001000,0.001000
1009.730769,0.044830,0.001000,0.001000,0.001000,0.001000,0.001000
1009.750000,0.045412,0.001000,0.001000,0.001000,0.001000,0.001000
1009.769231,0.045961,0.001000,0.001000,0.001000,0.001000,0.001000
1009.788462,0.046476,0.001000,0.001000,0.001000,0.001000,0.001000
1009.807692,0.046958,0.001000,0.001000,0.001000,0.001000,0.001000
1009.826923,0.047405,0.001000,0.001000,0.001000,0.001000,0.001000
1009.846154,0.047817,0.001000,0.001000,0.001000,0.001000,0.001000
1009.865385,0.048195,0.001000,0.001000,0.001000,0.001000,0.001000
1009.884615,0.048537,0.001000,0.001000,0.001000,0.001000,0.001000
1009.903846,0.048844,0.001000,0.001000,0.001000,0.001000,0.001000
1009.923077,0.049115,0.001000,0.001000,0.001000,0.001000,0.001000
1009.942308,0.049350,0.001000,0.001000,0.001000,0.001000,0.001000
1009.961538,0.049549,0.001000,0.001000,0.001000,0.001000,0.001000
1009.980769,0.049712,0.001000,0.001000,0.001000,0.001000,0.001000
1010.000000,0.049839,0.001000,0.001000,0.001000,0.001000,0.001000
1010.019231,0.049929,0.001000,0.001000,0.001000,0.001000,0.001000
1010.038462,0.049983,0.001000,0.001000,0.001000,0.001000,0.001000
1010.057692,0.050000,0.001000,0.001000,0.001000,0.001000,0.001000
1010.076923,0.049981,0.001000,0.001000,0.001000,0.001000,0.001000
1010.096154,0.049925,0.001000,0.001000,0.001000,0.001000,0.001000
1010.115385,0.049833,0.001000,0.001000,0.001000,0.001000,0.001000
1010.134615,0.049704,0.001000,0.001000,0.001000,0.001000,0.001000
1010.153846,0.049539,0.001000,0.001000,0.001000,0.001000,0.001000
1010.173077,0.049338,0.001000,0.001000,0.001000,0.001000,0.001000
1010.192308,0.049100,0.001000,0.001000,0.001000,0.001000,0.001000
1010.211538,0.048827,0.001000,0.001000,0.001000,0.001000,0.001000
1010.230769,0.048518,0.001000,0.001000,0.001000,0.001000,0.001000
1010.250000,0.048174,0.001000,0.001000,0.001000,0.001000,0.001000
1010.269231,0.047794,0.001000,0.001000,0.001000,0.001000,0.001000
1010.288462,0.047380,0.001000,0.001000,0.001000,0.001000,0.001000
1010.307692,0.046931,0.001000,0.001000,0.001000,0.001000,0.001000
1010.326923,0.046448,0.001000,0.001000,0.001000,0.001000,0.001000
1010.346154,0.045930,0.001000,0.001000,0.001000,0.001000,0.001000
1010.365385,0.045379,0.001000,0.001000,0.001000,0.001000,0.001000
1010.384615,0.044795,0.001000,0.001000,0.001000,0.001000,0.001000
1010.403846,0.044179,0.001000,0.001000,0.001000,0.001000,0.001000
1010.423077,0.043530,0.001000,0.001000,0.001000,0.001000,0.001000
1010.442308,0.042849,0.001000,0.001000,0.001000,0.001000,0.001000
1010.461538,0.042137,0.001000,0.001000,0.001000,0.001000,0.001000
1010.480769,0.041394,0.001000,0.001000,0.001000,0.001000,0.001000
1010.500000,0.040621,0.001000,0.001000,0.001000,0.001000,0.001000
1010.519231,0.039818,0.001000,0.001000,0.001000,0.001000,0.001000
1010.538462,0.038986,0.001000,0.001000,0.001000,0.001000,0.001000
1010.557692,0.038125,0.001000,0.001000,0.001000,0.001000,0.001000
1010.576923,0.037237,0.001000,0.001000,0.001000,0.001000,0.001000
1010.596154,0.036322,0.001000,0.001000,0.001000,0.001000,0.001000
1010.615385,0.035380,0.001000,0.001000,0.001000,0.001000,0.001000
1010.634615,0.034412,0.001000,0.001000,0.001000,0.001000,0.001000
1010.653846,0.033419,0.001000,0.001000,0.001000,0.001000,0.001000
1010.673077,0.032401,0.001000,0.001000,0.001000,0.001000,0.001000
1010.692308,0.031360,0.001000,0.001000,0.001000,0.001000,0.001000
1010.711538,0.030296,0.001000,0.001000,0.001000,0.001000,0.001000
1010.730769,0.029210,0.001000,0.001000,0.001000,0.001000,0.001000
1010.750000,0.028102,0.001000,0.001000,0.001000,0.001000,0.001000
1010.769231,0.026974,0.001000,0.001000,0.001000,0.001000,0.001000
1010.788462,0.025826,0.001000,0.001000,0.001000,0.001000,0.001000
1010.807692,0.024660,0.001000,0.001000,0.001000,0.001000,0.001000
1010.826923,0.023475,0.001000,0.001000,0.001000,0.001000,0.001000
1010.846154,0.022273,0.001000,0.001000,0.001000,0.001000,0.001000
1010.865385,0.021055,0.001000,0.001000,0.001000,0.001000,0.001000
1010.884615,0.019822,0.001000,0.001000,0.001000,0.001000,0.001000
1010.903846,0.018574,0.001000,0.001000,0.001000,0.001000,0.001000
1010.923077,0.017312,0.001000,0.001000,0.001000,0.001000,0.001000
1010.942308,0.016038,0.001000,0.001000,0.001000,0.001000,0.001000
1010.961538,0.014752,0.001000,0.001000,0.001000,0.001000,0.001000
1010.980769,0.013455,0.001000,0.001000,0.001000,0.001000,0.001000
1011.000000,0.012149,0.001000,0.001000,0.001000,0.001000,0.001000
1011.019231,0.010834,0.001000,0.001000,0.001000,0.001000,0.001000
1011.038462,0.009510,0.001000,0.001000,0.001000,0.001000,0.001000
1011.057692,0.008180,0.001000,0.001000,0.001000,0.001000,0.001000
1011.076923,0.006844,0.001000,0.001000,0.001000,0.001000,0.001000
1011.096154,0.005502,0.001000,0.001000,0.001000,0.001000,0.001000
1011.115385,0.004157,0.001000,0.001000,0.001000,0.001000,0.001000
1011.134615,0.002809,0.001000,0.001000,0.001000,0.001000,0.001000
1011.153846,0.001459,0.001000,0.001000,0.001000,0.001000,0.001000
1011.173077,0.000107,0.001000,0.001000,0.001000,0.001000,0.001000
1011.192308,-0.001244,0.001000,0.001000,0.001000,0.001000,0.001000
1011.211538,-0.002595,0.001000,0.001000,0.001000,0.001000,0.001000
1011.230769,-0.003944,0.001000,0.001000,0.001000,0.001000,0.001000
1011.250000,-0.005289,0.001000,0.001000,0.001000,0.001000,0.001000
1011.269231,-0.006631,0.001000,0.001000,0.001000,0.001000,0.001000
1011.288462,-0.007968,0.001000,0.001000,0.001000,0.001000,0.001000
1011.307692,-0.009300,0.001000,0.001000,0.001000,0.001000,0.001000
1011.326923,-0.010624,0.001000,0.001000,0.001000,0.001000,0.001000
1011.346154,-0.011941,0.001000,0.001000,0.001000,0.001000,0.001000
1011.365385,-0.013249,0.001000,0.001000,0.001000,0.001000,0.001000
1011.384615,-0.014547,0.001000,0.001000,0.001000,0.001000,0.001000
1011.403846,-0.015835,0.001000,0.001000,0.001000,0.001000,0.001000
1011.423077,-0.017111,0.001000,0.001000,0.001000,0.001000,0.001000
1011.442308,-0.018375,0.001000,0.001000,0.001000,0.001000,0.001000
1011.461538,-0.019625,0.001000,0.001000,0.001000,0.001000,0.001000
1011.480769,-0.020861,0.001000,0.001000,0.001000,0.001000,0.001000
1011.500000,-0.022081,0.001000,0.001000,0.001000,0.001000,0.001000
1011.519231,-0.023286,0.001000,0.001000,0.001000,0.001000,0.001000
1011.538462,-0.024473,0.001000,0.001000,0.001000,0.001000,0.001000
1011.557692,-0.025643,0.001000,0.001000,0.001000,0.001000,0.001000
1011.576923,-0.026793,0.001000,0.001000,0.001000,0.001000,0.001000
1011.596154,-0.027925,0.001000,0.001000,0.001000,0.001000,0.001000
1011.615385,-0.029036,0.001000,0.001000,0.001000,0.001000,0.001000
1011.634615,-0.030125,0.001000,0.001000,0.001000,0.001000,0.001000
1011.653846,-0.031193,0.001000,0.001000,0.001000,0.001000,0.001000
1011.673077,-0.032238,0.001000,0.001000,0.001000,0.001000,0.001000
1011.692308,-0.033259,0.001000,0.001000,0.001000,0.001000,0.001000
1011.711538,-0.034256,0.001000,0.001000,0.001000,0.001000,0.001000
1011.730769,-0.035228,0.001000,0.001000,0.001000,0.001000,0.001000
1011.750000,-0.036174,0.001000,0.001000,0.001000,0.001000,0.001000
1011.769231,-0.037094,0.001000,0.001000,0.001000,0.001000,0.001000
1011.788462,-0.037986,0.001000,0.001000,0.001000,0.001000,0.001000
1011.807692,-0.038851,0.001000,0.001000,0.001000,0.001000,0.001000
1011.826923,-0.039688,0.001000,0.001000,0.001000,0.001000,0.001000
1011.846154,-0.040495,0.001000,0.001000,0.001000,0.001000,0.001000
1011.865385,-0.041273,0.001000,0.001000,0.001000,0.001000,0.001000
1011.884615,-0.042021,0.001000,0.001000,0.001000,0.001000,0.001000
1011.903846,-0.042738,0.001000,0.001000,0.001000,0.001000,0.001000
1011.923077,-0.043424,0.001000,0.001000,0.001000,0.001000,0.001000
1011.942308,-0.044078,0.001000,0.001000,0.001000,0.001000,0.001000
1011.961538,-0.044700,0.001000,0.001000,0.001000,0.001000,0.001000
1011.980769,-0.045289,0.001000,0.001000,0.001000,0.001000,0.001000
1012.000000,-0.045845,0.001000,0.001000,0.001000,0.001000,0.001000
1012.019231,-0.046368,0.001000,0.001000,0.001000,0.001000,0.001000
1012.038462,-0.046857,0.001000,0.001000,0.001000,0.001000,0.001000
1012.057692,-0.047311,0.001000,0.001000,0.001000,0.001000,0.001000
1012.076923,-0.047731,0.001000,0.001000,0.001000,0.001000,0.001000
1012.096154,-0.048116,0.001000,0.001000,0.001000,0.001000,0.001000
1012.115385,-0.048466,0.001000,0.001000,0.001000,0.001000,0.001000
1012.134615,-0.048780,0.001000,0.001000,0.001000,0.001000,0.001000
1012.153846,-0.049059,0.001000,0.001000,0.001000,0.001000,0.001000
1012.173077,-0.049302,0.001000,0.001000,0.001000,0.001000,0.001000
1012.192308,-0.049509,0.001000,0.001000,0.001000,0.001000,0.001000
1012.211538,-0.049680,0.001000,0.001000,0.001000,0.001000,0.001000
1012.230769,-0.049815,0.001000,0.001000,0.001000,0.001000,0.001000
1012.250000,-0.049913,0.001000,0.001000,0.001000,0.001000,0.001000
1012.269231,-0.049974,0.001000,0.001000,0.001000,0.001000,0.001000
1012.288462,-0.049999,0.001000,0.001000,0.001000,0.001000,0.001000
1012.307692,-0.049988,0.001000,0.001000,0.001000,0.001000,0.001000
1012.326923,-0.049940,0.001000,0.001000,0.001000,0.001000,0.001000
1012.346154,-0.049856,0.001000,0.001000,0.001000,0.001000,0.001000
1012.365385,-0.049735,0.001000,0.001000,0.001000,0.001000,0.001000
1012.384615,-0.049577,0.001000,0.001000,0.001000,0.001000,0.001000
1012.403846,-0.049384,0.001000,0.001000,0.001000,0.001000,0.001000
1012.423077,-0.049154,0.001000,0.001000,0.001000,0.001000,0.001000
1012.442308,-0.048889,0.001000,0.001000,0.001000,0.001000,0.001000
1012.461538,-0.048588,0.001000,0.001000,0.001000,0.001000,0.001000
1012.480769,-0.048251,0.001000,0.001000,0.001000,0.001000,0.001000
1012.500000,-0.047879,0.001000,0.001000,0.001000,0.001000,0.001000
1012.519231,-0.047472,0.001000,0.001000,0.001000,0.001000,0.001000
1012.538462,-0.047031,0.001000,0.001000,0.001000,0.001000,0.001000
1012.557692,-0.046555,0.001000,0.001000,0.001000,0.001000,0.001000
1012.576923,-0.046045,0.001000,0.001000,0.001000,0.001000,0.001000
1012.596154,-0.045501,0.001000,0.001000,0.001000,0.001000,0.001000
1012.615385,-0.044924,0.001000,0.001000,0.001000,0.001000,0.001000
1012.634615,-0.044315,0.001000,0.001000,0.001000,0.001000,0.001000
1012.653846,-0.043672,0.001000,0.001000,0.001000,0.001000,0.001000
1012.673077,-0.042998,0.001000,0.001000,0.001000,0.001000,0.001000
1012.692308,-0.042293,0.001000,0.001000,0.001000,0.001000,0.001000
1012.711538,-0.041557,0.001000,0.001000,0.001000,0.001000,0.001000
1012.730769,-0.040790,0.001000,0.001000,0.001000,0.001000,0.001000
1012.750000,-0.039994,0.001000,0.001000,0.001000,0.001000,0.001000
1012.769231,-0.039168,0.001000,0.001000,0.001000,0.001000,0.001000
1012.788462,-0.038313,0.001000,0.001000,0.001000,0.001000,0.001000
1012.807692,-0.037431,0.001000,0.001000,0.001000,0.001000,0.001000
1012.826923,-0.036521,0.001000,0.001000,0.001000,0.001000,0.001000
1012.846154,-0.035585,0.001000,0.001000,0.001000,0.001000,0.001000
1012.865385,-0.034623,0.001000,0.001000,0.001000,0.001000,0.001000
1012.884615,-0.033635,0.001000,0.001000,0.001000,0.001000,0.001000
1012.903846,-0.032623,0.001000,0.001000,0.001000,0.001000,0.001000
1012.923077,-0.031587,0.001000,0.001000,0.001000,0.001000,0.001000
1012.942308,-0.030528,0.001000,0.001000,0.001000,0.001000,0.001000
1012.961538,-0.029446,0.001000,0.001000,0.001000,0.001000,0.001000
1012.980769,-0.028343,0.001000,0.001000,0.001000,0.001000,0.001000
1013.000000,-0.027219,0.001000,0.001000,0.001000,0.001000,0.001000
1013.019231,-0.026076,0.001000,0.001000,0.001000,0.001000,0.001000
1013.038462,-0.024913,0.001000,0.001000,0.001000,0.001000,0.001000
1013.057692,-0.023732,0.001000,0.001000,0.001000,0.001000,0.001000
1013.076923,-0.022534,0.001000,0.001000,0.001000,0.001000,0.001000
1013.096154,-0.021319,0.001000,0.001000,0.001000,0.001000,0.001000
1013.115385,-0.020089,0.001000,0.001000,0.001000,0.001000,0.001000
1013.134615,-0.018844,0.001000,0.001000,0.001000,0.001000,0.001000
1013.153846,-0.017586,0.001000,0.001000,0.001000,0.001000,0.001000
1013.173077,-0.016314,0.001000,0.001000,0.001000,0.001000,0.001000
1013.192308,-0.015031,0.001000,0.001000,0.001000,0.001000,0.001000
1013.211538,-0.013736,0.001000,0.001000,0.001000,0.001000,0.001000
1013.230769,-0.012432,0.001000,0.001000,0.001000,0.001000,0.001000
1013.250000,-0.011118,0.001000,0.001000,0.001000,0.001000,0.001000
1013.269231,-0.009796,0.001000,0.001000,0.001000,0.001000,0.001000
1013.288462,-0.008468,0.001000,0.001000,0.001000,0.001000,0.001000
1013.307692,-0.007133,0.001000,0.001000,0.001000,0.001000,0.001000
1013.326923,-0.005792,0.001000,0.001000,0.001000,0.001000,0.001000
1013.346154,-0.004448,0.001000,0.001000,0.001000,0.001000,0.001000
1013.365385,-0.003100,0.001000,0.001000,0.001000,0.001000,0.001000
1013.384615,-0.001750,0.001000,0.001000,0.001000,0.001000,0.001000
1013.403846,-0.000399,0.001000,0.001000,0.001000,0.001000,0.001000
1013.423077,0.000953,0.001000,0.001000,0.001000,0.001000,0.001000
1013.442308,0.002303,0.001000,0.001000,0.001000,0.001000,0.001000
1013.461538,0.003653,0.001000,0.001000,0.001000,0.001000,0.001000
1013.480769,0.004999,0.001000,0.001000,0.001000,0.001000,0.001000
1013.500000,0.006342,0.001000,0.001000,0.001000,0.001000,0.001000
1013.519231,0.007680,0.001000,0.001000,0.001000,0.001000,0.001000
1013.538462,0.009013,0.001000,0.001000,0.001000,0.001000,0.001000
1013.557692,0.010339,0.001000,0.001000,0.001000,0.001000,0.001000
1013.576923,0.011657,0.001000,0.001000,0.001000,0.001000,0.001000
1013.596154,0.012967,0.001000,0.001000,0.001000,0.001000,0.001000
1013.615385,0.014268,0.001000,0.001000,0.001000,0.001000,0.001000
1013.634615,0.015558,0.001000,0.001000,0.001000,0.001000,0.001000
1013.653846,0.016837,0.001000,0.001000,0.001000,0.001000,0.001000
1013.673077,0.018103,0.001000,0.001000,0.001000,0.001000,0.001000
1013.692308,0.019356,0.001000,0.001000,0.001000,0.001000,0.001000
1013.711538,0.020595,0.001000,0.001000,0.001000,0.001000,0.001000
1013.730769,0.021819,0.001000,0.001000,0.001000,0.001000,0.001000
1013.750000,0.023027,0.001000,0.001000,0.001000,0.001000,0.001000
1013.769231,0.024218,0.001000,0.001000,0.001000,0.001000,0.001000
1013.788462,0.025392,0.001000,0.001000,0.001000,0.001000,0.001000
1013.807692,0.026547,0.001000,0.001000,0.001000,0.001000,0.001000
1013.826923,0.027682,0.001000,0.001000,0.001000,0.001000,0.001000
1013.846154,0.028798,0.001000,0.001000,0.001000,0.001000,0.001000
1013.865385,0.029892,0.001000,0.001000,0.001000,0.001000,0.001000
1013.884615,0.030964,0.001000,0.001000,0.001000,0.001000,0.001000
1013.903846,0.032014,0.001000,0.001000,0.001000,0.001000,0.001000
1013.923077,0.033040,0.001000,0.001000,0.001000,0.001000,0.001000
1013.942308,0.034043,0.001000,0.001000,0.001000,0.001000,0.001000
1013.961538,0.035020,0.001000,0.001000,0.001000,0.001000,0.001000
1013.980769,0.035972,0.001000,0.001000,0.001000,0.001000,0.001000
1014.000000,0.036897,0.001000,0.001000,0.001000,0.001000,0.001000
1014.019231,0.037796,0.001000,0.001000,0.001000,0.001000,0.001000
1014.038462,0.038667,0.001000,0.001000,0.001000,0.001000,0.001000
1014.057692,0.039510,0.001000,0.001000,0.001000,0.001000,0.001000
1014.076923,0.040323,0.001000,0.001000,0.001000,0.001000,0.001000
1014.096154,0.041108,0.001000,0.001000,0.001000,0.001000,0.001000
1014.115385,0.041862,0.001000,0.001000,0.001000,0.001000,0.001000
1014.134615,0.042586,0.001000,0.001000,0.001000,0.001000,0.001000
1014.153846,0.043278,0.001000,0.001000,0.001000,0.001000,0.001000
1014.173077,0.043939,0.001000,0.001000,0.001000,0.001000,0.001000
1014.192308,0.044568,0.001000,0.001000,0.001000,0.001000,0.001000
1014.211538,0.045165,0.001000,0.001000,0.001000,0.001000,0.001000
1014.230769,0.045728,0.001000,0.001000,0.001000,0.001000,0.001000
1014.250000,0.046258,0.001000,0.001000,0.001000,0.001000,0.001000
1014.269231,0.046754,0.001000,0.001000,0.001000,0.001000,0.001000
1014.288462,0.047216,0.001000,0.001000,0.001000,0.001000,0.001000
1014.307692,0.047643,0.001000,0.001000,0.001000,0.001000,0.001000
1014.326923,0.048036,0.001000,0.001000,0.001000,0.001000,0.001000
1014.346154,0.048393,0.001000,0.001000,0.001000,0.001000,0.001000
1014.365385,0.048716,0.001000,0.001000,0.001000,0.001000,0.001000
1014.384615,0.049002,0.001000,0.001000,0.001000,0.001000,0.001000
1014.403846,0.049253,0.001000,0.001000,0.001000,0.001000,0.001000
1014.423077,0.049468,0.001000,0.001000,0.001000,0.001000,0.001000
1014.442308,0.049646,0.001000,0.001000,0.001000,0.001000,0.001000
1014.461538,0.049789,0.001000,0.001000,0.001000,0.001000,0.001000
1014.480769,0.049895,0.001000,0.001000,0.001000,0.001000,0.001000
1014.500000,0.049964,0.001000,0.001000,0.001000,0.001000,0.001000
1014.519231,0.049997,0.001000,0.001000,0.001000,0.001000,0.001000
1014.538462,0.049993,0.001000,0.001000,0.001000,0.001000,0.001000
1014.557692,0.049953,0.001000,0.001000,0.001000,0.001000,0.001000
1014.576923,0.049877,0.001000,0.001000,0.001000,0.001000,0.001000
1014.596154,0.049764,0.001000,0.001000,0.001000,0.001000,0.001000
1014.615385,0.049614,0.001000,0.001000,0.001000,0.001000,0.001000
1014.634615,0.049429,0.001000,0.001000,0.001000,0.001000,0.001000
1014.653846,0.049207,0.001000,0.001000,0.001000,0.001000,0.001000
1014.673077,0.048949,0.001000,0.001000,0.001000,0.001000,0.001000
1014.692308,0.048656,0.001000,0.001000,0.001000,0.001000,0.001000
1014.711538,0.048327,0.001000,0.001000,0.001000,0.001000,0.001000
1014.730769,0.047963,0.001000,0.001000,0.001000,0.001000,0.001000
1014.750000,0.047563,0.001000,0.001000,0.001000,0.001000,0.001000
1014.769231,0.047129,0.001000,0.001000,0.001000,0.001000,0.001000
1014.788462,0.046660,0.001000,0.001000,0.001000,0.001000,0.001000
1014.807692,0.046158,0.001000,0.001000,0.001000,0.001000,0.001000
1014.826923,0.045621,0.001000,0.001000,0.001000,0.001000,0.001000
1014.846154,0.045052,0.001000,0.001000,0.001000,0.001000,0.001000
1014.865385,0.044449,0.001000,0.001000,0.001000,0.001000,0.001000
1014.884615,0.043814,0.001000,0.001000,0.001000,0.001000,0.001000
1014.903846,0.043147,0.001000,0.001000,0.001000,0.001000,0.001000
1014.923077,0.042448,0.001000,0.001000,0.001000,0.001000,0.001000
1014.942308,0.041718,0.001000,0.001000,0.001000,0.001000,0.001000
1014.961538,0.040958,0.001000,0.001000,0.001000,0.001000,0.001000
1014.980769,0.040168,0.001000,0.001000,0.001000,0.001000,0.001000
1015.000000,0.039349,0.001000,0.001000,0.001000,0.001000,0.001000
1015.019231,0.038500,0.001000,0.001000,0.001000,0.001000,0.001000
1015.038462,0.037624,0.001000,0.001000,0.001000,0.001000,0.001000
1015.057692,0.036720,0.001000,0.001000,0.001000,0.001000,0.001000
1015.076923,0.035789,0.001000,0.001000,0.001000,0.001000,0.001000
1015.096154,0.034833,0.001000,0.001000,0.001000,0.001000,0.001000
1015.115385,0.033850,0.001000,0.001000,0.001000,0.001000,0.001000
1015.134615,0.032843,0.001000,0.001000,0.001000,0.001000,0.001000
1015.153846,0.031812,0.001000,0.001000,0.001000,0.001000,0.001000
1015.173077,0.030758,0.001000,0.001000,0.001000,0.001000,0.001000
1015.192308,0.029681,0.001000,0.001000,0.001000,0.001000,0.001000
1015.211538,0.028583,0.001000,0.001000,0.001000,0.001000,0.001000
1015.230769,0.027464,0.001000,0.001000,0.001000,0.001000,0.001000
1015.250000,0.026324,0.001000,0.001000,0.001000,0.001000,0.001000
1015.269231,0.025166,0.001000,0.001000,0.001000,0.001000,0.001000
1015.288462,0.023989,0.001000,0.001000,0.001000,0.001000,0.001000
1015.307692,0.022794,0.001000,0.001000,0.001000,0.001000,0.001000
1015.326923,0.021583,0.001000,0.001000,0.001000,0.001000,0.001000
1015.346154,0.020356,0.001000,0.001000,0.001000,0.001000,0.001000
1015.365385,0.019114,0.001000,0.001000,0.001000,0.001000,0.001000
1015.384615,0.017858,0.001000,0.001000,0.001000,0.001000,0.001000
1015.403846,0.016590,0.001000,0.001000,0.001000,0.001000,0.001000
1015.423077,0.015309,0.001000,0.001000,0.001000,0.001000,0.001000
1015.442308,0.014016,0.001000,0.001000,0.001000,0.001000,0.001000
1015.461538,0.012714,0.001000,0.001000,0.001000,0.001000,0.001000
1015.480769,0.011402,0.001000,0.001000,0.001000,0.001000,0.001000
1015.500000,0.010082,0.001000,0.001000,0.001000,0.001000,0.001000
1015.519231,0.008755,0.001000,0.001000,0.001000,0.001000,0.001000
1015.538462,0.007421,0.001000,0.001000,0.001000,0.001000,0.001000
1015.557692,0.006082,0.001000,0.001000,0.001000,0.001000,0.001000
1015.576923,0.004738,0.001000,0.001000,0.001000,0.001000,0.001000
1015.596154,0.003391,0.001000,0.001000,0.001000,0.001000,0.001000
1015.615385,0.002042,0.001000,0.001000,0.001000,0.001000,0.001000
1015.634615,0.000691,0.001000,0.001000,0.001000,0.001000,0.001000
1015.653846,-0.000661,0.001000,0.001000,0.001000,0.001000,0.001000
1015.673077,-0.002012,0.001000,0.001000,0.001000,0.001000,0.001000
1015.692308,-0.003362,0.001000,0.001000,0.001000,0.001000,0.001000
1015.711538,-0.004709,0.001000,0.001000,0.001000,0.001000,0.001000
1015.730769,-0.006053,0.001000,0.001000,0.001000,0.001000,0.001000
1015.750000,-0.007392,0.001000,0.001000,0.001000,0.001000,0.001000
1015.769231,-0.008726,0.001000,0.001000,0.001000,0.001000,0.001000
1015.788462,-0.010053,0.001000,0.001000,0.001000,0.001000,0.001000
1015.807692,-0.011373,0.001000,0.001000,0.001000,0.001000,0.001000
1015.826923,-0.012685,0.001000,0.001000,0.001000,0.001000,0.001000
1015.846154,-0.013988,0.001000,0.001000,0.001000,0.001000,0.001000
1015.865385,-0.015280,0.001000,0.001000,0.001000,0.001000,0.001000
1015.884615,-0.016562,0.001000,0.001000,0.001000,0.001000,0.001000
1015.903846,-0.017831,0.001000,0.001000,0.001000,0.001000,0.001000
1015.923077,-0.019087,0.001000,0.001000,0.001000,0.001000,0.001000
1015.942308,-0.020329,0.001000,0.001000,0.001000,0.001000,0.001000
1015.961538,-0.021556,0.001000,0.001000,0.001000,0.001000,0.001000
1015.980769,-0.022768,0.001000,0.001000,0.001000,0.001000,0.001000
1016.000000,-0.023963,0.001000,0.001000,0.001000,0.001000,0.001000
1016.019231,-0.025140,0.001000,0.001000,0.001000,0.001000,0.001000
1016.038462,-0.026299,0.001000,0.001000,0.001000,0.001000,0.001000
1016.057692,-0.027439,0.001000,0.001000,0.001000,0.001000,0.001000
1016.076923,-0.028559,0.001000,0.001000,0.001000,0.001000,0.001000
1016.096154,-0.029657,0.001000,0.001000,0.001000,0.001000,0.001000
1016.115385,-0.030735,0.001000,0.001000,0.001000,0.001000,0.001000
1016.134615,-0.031789,0.001000,0.001000,0.001000,0.001000,0.001000
1016.153846,-0.032821,0.001000,0.001000,0.001000,0.001000,0.001000
1016.173077,-0.033828,0.001000,0.001000,0.001000,0.001000,0.001000
1016.192308,-0.034811,0.001000,0.001000,0.001000,0.001000,0.001000
1016.211538,-0.035769,0.001000,0.001000,0.001000,0.001000,0.001000
1016.230769,-0.036700,0.001000,0.001000,0.001000,0.001000,0.001000
1016.250000,-0.037604,0.001000,0.001000,0.001000,0.001000,0.001000
1016.269231,-0.038481,0.001000,0.001000,0.001000,0.001000,0.001000
1016.288462,-0.039330,0.001000,0.001000,0.001000,0.001000,0.001000
1016.307692,-0.040150,0.001000,0.001000,0.001000,0.001000,0.001000
1016.326923,-0.040941,0.001000,0.001000,0.001000,0.001000,0.001000
1016.346154,-0.041702,0.001000,0.001000,0.001000,0.001000,0.001000
1016.365385,-0.042432,0.001000,0.001000,0.001000,0.001000,0.001000
1016.384615,-0.043132,0.001000,0.001000,0.001000,0.001000,0.001000
1016.403846,-0.043799,0.001000,0.001000,0.001000,0.001000,0.001000
1016.423077,-0.044435,0.001000,0.001000,0.001000,0.001000,0.001000
1016.442308,-0.045039,0.001000,0.001000,0.001000,0.001000,0.001000
1016.461538,-0.045609,0.001000,0.001000,0.001000,0.001000,0.001000
1016.480769,-0.046146,0.001000,0.001000,0.001000,0.001000,0.001000
1016.500000,-0.046650,0.001000,0.001000,0.001000,0.001000,0.001000
1016.519231,-0.047119,0.001000,0.001000,0.001000,0.001000,0.001000
1016.538462,-0.047554,0.001000,0.001000,0.001000,0.001000,0.001000
1016.557692,-0.047954,0.001000,0.001000,0.001000,0.001000,0.001000
1016.576923,-0.048319,0.001000,0.001000,0.001000,0.001000,0.001000
1016.596154,-0.048649,0.001000,0.001000,0.001000,0.001000,0.001000
1016.615385,-0.048943,0.001000,0.001000,0.001000,0.001000,0.001000
1016.634615,-0.049202,0.001000,0.001000,0.001000,0.001000,0.001000
1016.653846,-0.049424,0.001000,0.001000,0.001000,0.001000,0.001000
1016.673077,-0.049611,0.001000,0.001000,0.001000,0.001000,0.001000
1016.692308,-0.049761,0.001000,0.001000,0.001000,0.001000,0.001000
1016.711538,-0.049875,0.001000,0.001000,0.001000,0.001000,0.001000
1016.730769,-0.049952,0.001000,0.001000,0.001000,0.001000,0.001000
1016.750000,-0.049993,0.001000,0.001000,0.001000,0.001000,0.001000
1016.769231,-0.049997,0.001000,0.001000,0.001000,0.001000,0.001000
1016.788462,-0.049965,0.001000,0.001000,0.001000,0.001000,0.001000
1016.807692,-0.049896,0.001000,0.001000,0.001000,0.001000,0.001000
1016.826923,-0.049791,0.001000,0.001000,0.001000,0.001000,0.001000
1016.846154,-0.049650,0.001000,0.001000,0.001000,0.001000,0.001000
1016.865385,-0.049472,0.001000,0.001000,0.001000,0.001000,0.001000
1016.884615,-0.049258,0.001000,0.001000,0.001000,0.001000,0.001000
1016.903846,-0.049008,0.001000,0.001000,0.001000,0.001000,0.001000
1016.923077,-0.048722,0.001000,0.001000,0.001000,0.001000,0.001000
1016.942308,-0.048401,0.001000,0.001000,0.001000,0.001000,0.001000
1016.961538,-0.048044,0.001000,0.001000,0.001000,0.001000,0.001000
1016.980769,-0.047652,0.001000,0.001000,0.001000,0.001000,0.001000
1017.000000,-0.047226,0.001000,0.001000,0.001000,0.001000,0.001000
1017.019231,-0.046764,0.001000,0.001000,0.001000,0.001000,0.001000
1017.038462,-0.046269,0.001000,0.001000,0.001000,0.001000,0.001000
1017.057692,-0.045740,0.001000,0.001000,0.001000,0.001000,0.001000
1017.076923,-0.045177,0.001000,0.001000,0.001000,0.001000,0.001000
1017.096154,-0.044582,0.001000,0.001000,0.001000,0.001000,0.001000
1017.115385,-0.043954,0.001000,0.001000,0.001000,0.001000,0.001000
1017.134615,-0.043293,0.001000,0.001000,0.001000,0.001000,0.001000
1017.153846,-0.042601,0.001000,0.001000,0.001000,0.001000,0.001000
1017.173077,-0.041878,0.001000,0.001000,0.001000,0.001000,0.001000
1017.192308,-0.041125,0.001000,0.001000,0.001000,0.001000,0.001000
1017.211538,-0.040341,0.001000,0.001000,0.001000,0.001000,0.001000
1017.230769,-0.039528,0.001000,0.001000,0.001000,0.001000,0.001000
1017.250000,-0.038686,0.001000,0.001000,0.001000,0.001000,0.001000
1017.269231,-0.037815,0.001000,0.001000,0.001000,0.001000,0.001000
1017.288462,-0.036918,0.001000,0.001000,0.001000,0.001000,0.001000
1017.307692,-0.035993,0.001000,0.001000,0.001000,0.001000,0.001000
1017.326923,-0.035041,0.001000,0.001000,0.001000,0.001000,0.001000
1017.346154,-0.034065,0.001000,0.001000,0.001000,0.001000,0.001000
1017.365385,-0.033063,0.001000,0.001000,0.001000,0.001000,0.001000
1017.384615,-0.032037,0.001000,0.001000,0.001000,0.001000,0.001000
1017.403846,-0.030988,0.001000,0.001000,0.001000,0.001000,0.001000
1017.423077,-0.029916,0.001000,0.001000,0.001000,0.001000,0.001000
1017.442308,-0.028822,0.001000,0.001000,0.001000,0.001000,0.001000
1017.461538,-0.027707,0.001000,0.001000,0.001000,0.001000,0.001000
1017.480769,-0.026572,0.001000,0.001000,0.001000,0.001000,0.001000
1017.500000,-0.025417,0.001000,0.001000,0.001000,0.001000,0.001000
1017.519231,-0.024244,0.001000,0.001000,0.001000,0.001000,0.001000
1017.538462,-0.023053,0.001000,0.001000,0.001000,0.001000,0.001000
1017.557692,-0.021846,0.001000,0.001000,0.001000,0.001000,0.001000
1017.576923,-0.020622,0.001000,0.001000,0.001000,0.001000,0.001000
1017.596154,-0.019384,0.001000,0.001000,0.001000,0.001000,0.001000
1017.615385,-0.018131,0.001000,0.001000,0.001000,0.001000,0.001000
1017.634615,-0.016865,0.001000,0.001000,0.001000,0.001000,0.001000
1017.653846,-0.015586,0.001000,0.001000,0.001000,0.001000,0.001000
1017.673077,-0.014296,0.001000,0.001000,0.001000,0.001000,0.001000
1017.692308,-0.012996,0.001000,0.001000,0.001000,0.001000,0.001000
1017.711538,-0.011686,0.001000,0.001000,0.001000,0.001000,0.001000
1017.730769,-0.010368,0.001000,0.001000,0.001000,0.001000,0.001000
1017.750000,-0.009042,0.001000,0.001000,0.001000,0.001000,0.001000
1017.769231,-0.007710,0.001000,0.001000,0.001000,0.001000,0.001000
1017.788462,-0.006372,0.001000,0.001000,0.001000,0.001000,0.001000
1017.807692,-0.005029,0.001000,0.001000,0.001000,0.001000,0.001000
1017.826923,-0.003682,0.001000,0.001000,0.001000,0.001000,0.001000
1017.846154,-0.002333,0.001000,0.001000,0.001000,0.001000,0.001000
1017.865385,-0.000982,0.001000,0.001000,0.001000,0.001000,0.001000
1017.884615,0.000369,0.001000,0.001000,0.001000,0.001000,0.001000
1017.903846,0.001720,0.001000,0.001000,0.001000,0.001000,0.001000
1017.923077,0.003070,0.001000,0.001000,0.001000,0.001000,0.001000
1017.942308,0.004418,0.001000,0.001000,0.001000,0.001000,0.001000
1017.961538,0.005763,0.001000,0.001000,0.001000,0.001000,0.001000
1017.980769,0.007103,0.001000,0.001000,0.001000,0.001000,0.001000
1018.000000,0.008438,0.001000,0.001000,0.001000,0.001000,0.001000
1018.019231,0.009767,0.001000,0.001000,0.001000,0.001000,0.001000
1018.038462,0.011089,0.001000,0.001000,0.001000,0.001000,0.001000
1018.057692,0.012403,0.001000,0.001000,0.001000,0.001000,0.001000
1018.076923,0.013708,0.001000,0.001000,0.001000,0.001000,0.001000
1018.096154,0.015002,0.001000,0.001000,0.001000,0.001000,0.001000
1018.115385,0.016286,0.001000,0.001000,0.001000,0.001000,0.001000
1018.134615,0.017558,0.001000,0.001000,0.001000,0.001000,0.001000
1018.153846,0.018817,0.001000,0.001000,0.001000,0.001000,0.001000
1018.173077,0.020062,0.001000,0.001000,0.001000,0.001000,0.001000
1018.192308,0.021293,0.001000,0.001000,0.001000,0.001000,0.001000
1018.211538,0.022508,0.001000,0.001000,0.001000,0.001000,0.001000
1018.230769,0.023706,0.001000,0.001000,0.001000,0.001000,0.001000
1018.250000,0.024887,0.001000,0.001000,0.001000,0.001000,0.001000
1018.269231,0.026050,0.001000,0.001000,0.001000,0.001000,0.001000
1018.288462,0.027194,0.001000,0.001000,0.001000,0.001000,0.001000
1018.307692,0.028319,0.001000,0.001000,0.001000,0.001000,0.001000
1018.326923,0.029422,0.001000,0.001000,0.001000,0.001000,0.001000
1018.346154,0.030504,0.001000,0.001000,0.001000,0.001000,0.001000
1018.365385,0.031564,0.001000,0.001000,0.001000,0.001000,0.001000
1018.384615,0.032600,0.001000,0.001000,0.001000,0.001000,0.001000
1018.403846,0.033613,0.001000,0.001000,0.001000,0.001000,0.001000
1018.423077,0.034601,0.001000,0.001000,0.001000,0.001000,0.001000
1018.442308,0.035564,0.001000,0.001000,0.001000,0.001000,0.001000
1018.461538,0.036501,0.001000,0.001000,0.001000,0.001000,0.001000
1018.480769,0.037411,0.001000,0.001000,0.001000,0.001000,0.001000
1018.500000,0.038294,0.001000,0.001000,0.001000,0.001000,0.001000
1018.519231,0.039149,0.001000,0.001000,0.001000,0.001000,0.001000
1018.538462,0.039976,0.001000,0.001000,0.001000,0.001000,0.001000
1018.557692,0.040773,0.001000,0.001000,0.001000,0.001000,0.001000
1018.576923,0.041540,0.001000,0.001000,0.001000,0.001000,0.001000
1018.596154,0.042277,0.001000,0.001000,0.001000,0.001000,0.001000
1018.615385,0.042983,0.001000,0.001000,0.001000,0.001000,0.001000
1018.634615,0.043658,0.001000,0.001000,0.001000,0.001000,0.001000
1018.653846,0.044301,0.001000,0.001000,0.001000,0.001000,0.001000
1018.673077,0.044911,0.001000,0.001000,0.001000,0.001000,0.001000
1018.692308,0.045489,0.001000,0.001000,0.001000,0.001000,0.001000
1018.711538,0.046033,0.001000,0.001000,0.001000,0.001000,0.001000
1018.730769,0.046544,0.001000,0.001000,0.001000,0.001000,0.001000
1018.750000,0.047021,0.001000,0.001000,0.001000,0.001000,0.001000
1018.769231,0.047463,0.001000,0.001000,0.001000,0.001000,0.001000
1018.788462,0.047871,0.001000,0.001000,0.001000,0.001000,0.001000
1018.807692,0.048243,0.001000,0.001000,0.001000,0.001000,0.001000
1018.826923,0.048581,0.001000,0.001000,0.001000,0.001000,0.001000
1018.846154,0.048883,0.001000,0.001000,0.001000,0.001000,0.001000
1018.865385,0.049149,0.001000,0.001000,0.001000,0.001000,0.001000
1018.884615,0.049379,0.001000,0.001000,0.001000,0.001000,0.001000
1018.903846,0.049574,0.001000,0.001000,0.001000,0.001000,0.001000
1018.923077,0.049732,0.001000,0.001000,0.001000,0.001000,0.001000
1018.942308,0.049853,0.001000,0.001000,0.001000,0.001000,0.001000
1018.961538,0.049939,0.001000,0.001000,0.001000,0.001000,0.001000
1018.980769,0.049987,0.001000,0.001000,0.001000,0.001000,0.001000
1019.000000,0.050000,0.001000,0.001000,0.001000,0.001000,0.001000
1019.019231,0.049975,0.001000,0.001000,0.001000,0.001000,0.001000
1019.038462,0.049914,0.001000,0.001000,0.001000,0.001000,0.001000
1019.057692,0.049817,0.001000,0.001000,0.001000,0.001000,0.001000
1019.076923,0.049683,0.001000,0.001000,0.001000,0.001000,0.001000
1019.096154,0.049513,0.001000,0.001000,0.001000,0.001000,0.001000
1019.115385,0.049307,0.001000,0.001000,0.001000,0.001000,0.001000
1019.134615,0.049065,0.001000,0.001000,0.001000,0.001000,0.001000
1019.153846,0.048787,0.001000,0.001000,0.001000,0.001000,0.001000
1019.173077,0.048473,0.001000,0.001000,0.001000,0.001000,0.001000
1019.192308,0.048124,0.001000,0.001000,0.001000,0.001000,0.001000
1019.211538,0.047740,0.001000,0.001000,0.001000,0.001000,0.001000
1019.230769,0.047321,0.001000,0.001000,0.001000,0.001000,0.001000
1019.250000,0.046867,0.001000,0.001000,0.001000,0.001000,0.001000
1019.269231,0.046379,0.001000,0.001000,0.001000,0.001000,0.001000
1019.288462,0.045857,0.001000,0.001000,0.001000,0.001000,0.001000
1019.307692,0.045302,0.001000,0.001000,0.001000,0.001000,0.001000
1019.326923,0.044713,0.001000,0.001000,0.001000,0.001000,0.001000
1019.346154,0.044092,0.001000,0.001000,0.001000,0.001000,0.001000
1019.365385,0.043439,0.001000,0.001000,0.001000,0.001000,0.001000
1019.384615,0.042753,0.001000,0.001000,0.001000,0.001000,0.001000
1019.403846,0.042037,0.001000,0.001000,0.001000,0.001000,0.001000
1019.423077,0.041290,0.001000,0.001000,0.001000,0.001000,0.001000
1019.442308,0.040513,0.001000,0.001000,0.001000,0.001000,0.001000
1019.461538,0.039706,0.001000,0.001000,0.001000,0.001000,0.001000
1019.480769,0.038870,0.001000,0.001000,0.001000,0.001000,0.001000
1019.500000,0.038006,0.001000,0.001000,0.001000,0.001000,0.001000
1019.519231,0.037114,0.001000,0.001000,0.001000,0.001000,0.001000
1019.538462,0.036194,0.001000,0.001000,0.001000,0.001000,0.001000
1019.557692,0.035249,0.001000,0.001000,0.001000,0.001000,0.001000
1019.576923,0.034277,0.001000,0.001000,0.001000,0.001000,0.001000
1019.596154,0.033281,0.001000,0.001000,0.001000,0.001000,0.001000
1019.615385,0.032260,0.001000,0.001000,0.001000,0.001000,0.001000
1019.634615,0.031216,0.001000,0.001000,0.001000,0.001000,0.001000
1019.653846,0.030149,0.001000,0.001000,0.001000,0.001000,0.001000
1019.673077,0.029060,0.001000,0.001000,0.001000,0.001000,0.001000
1019.692308,0.027949,0.001000,0.001000,0.001000,0.001000,0.001000
1019.711538,0.026819,0.001000,0.001000,0.001000,0.001000,0.001000
1019.730769,0.025668,0.001000,0.001000,0.001000,0.001000,0.001000
1019.750000,0.024499,0.001000,0.001000,0.001000,0.001000,0.001000
1019.769231,0.023312,0.001000,0.001000,0.001000,0.001000,0.001000
1019.788462,0.022108,0.001000,0.001000,0.001000,0.001000,0.001000
1019.807692,0.020888,0.001000,0.001000,0.001000,0.001000,0.001000
1019.826923,0.019652,0.001000,0.001000,0.001000,0.001000,0.001000
1019.846154,0.018402,0.001000,0.001000,0.001000,0.001000,0.001000
1019.865385,0.017139,0.001000,0.001000,0.001000,0.001000,0.001000
1019.884615,0.015863,0.001000,0.001000,0.001000,0.001000,0.001000
1019.903846,0.014576,0.001000,0.001000,0.001000,0.001000,0.001000
1019.923077,0.013278,0.001000,0.001000,0.001000,0.001000,0.001000
1019.942308,0.011970,0.001000,0.001000,0.001000,0.001000,0.001000
1019.961538,0.010653,0.001000,0.001000,0.001000,0.001000,0.001000
1019.980769,0.009329,0.001000,0.001000,0.001000,0.001000,0.001000
1020.000000,0.007998,0.001000,0.001000,0.001000,0.001000,0.001000
1020.019231,0.006661,0.001000,0.001000,0.001000,0.001000,0.001000
1020.038462,0.005319,0.001000,0.001000,0.001000,0.001000,0.001000
1020.057692,0.003973,0.001000,0.001000,0.001000,0.001000,0.001000
1020.076923,0.002625,0.001000,0.001000,0.001000,0.001000,0.001000
1020.096154,0.001274,0.001000,0.001000,0.001000,0.001000,0.001000
1020.115385,-0.000077,0.001000,0.001000,0.001000,0.001000,0.001000
1020.134615,-0.001429,0.001000,0.001000,0.001000,0.001000,0.001000
1020.153846,-0.002779,0.001000,0.001000,0.001000,0.001000,0.001000
1020.173077,-0.004128,0.001000,0.001000,0.001000,0.001000,0.001000
1020.192308,-0.005473,0.001000,0.001000,0.001000,0.001000,0.001000
1020.211538,-0.006814,0.001000,0.001000,0.001000,0.001000,0.001000
1020.230769,-0.008151,0.001000,0.001000,0.001000,0.001000,0.001000
1020.250000,-0.009481,0.001000,0.001000,0.001000,0.001000,0.001000
1020.269231,-0.010804,0.001000,0.001000,0.001000,0.001000,0.001000
1020.288462,-0.012120,0.001000,0.001000,0.001000,0.001000,0.001000
1020.307692,-0.013427,0.001000,0.001000,0.001000,0.001000,0.001000
1020.326923,-0.014724,0.001000,0.001000,0.001000,0.001000,0.001000
1020.346154,-0.016010,0.001000,0.001000,0.001000,0.001000,0.001000
1020.365385,-0.017284,0.001000,0.001000,0.001000,0.001000,0.001000
1020.384615,-0.018546,0.001000,0.001000,0.001000,0.001000,0.001000
1020.403846,-0.019794,0.001000,0.001000,0.001000,0.001000,0.001000
1020.423077,-0.021028,0.001000,0.001000,0.001000,0.001000,0.001000
1020.442308,-0.022247,0.001000,0.001000,0.001000,0.001000,0.001000
1020.461538,-0.023449,0.001000,0.001000,0.001000,0.001000,0.001000
1020.480769,-0.024634,0.001000,0.001000,0.001000,0.001000,0.001000
1020.500000,-0.025801,0.001000,0.001000,0.001000,0.001000,0.001000
1020.519231,-0.026949,0.001000,0.001000,0.001000,0.001000,0.001000
1020.538462,-0.028078,0.001000,0.001000,0.001000,0.001000,0.001000
1020.557692,-0.029186,0.001000,0.001000,0.001000,0.001000,0.001000
1020.576923,-0.030272,0.001000,0.001000,0.001000,0.001000,0.001000
1020.596154,-0.031337,0.001000,0.001000,0.001000,0.001000,0.001000
1020.615385,-0.032378,0.001000,0.001000,0.001000,0.001000,0.001000
1020.634615,-0.033396,0.001000,0.001000,0.001000,0.001000,0.001000
1020.653846,-0.034390,0.001000,0.001000,0.001000,0.001000,0.001000
1020.673077,-0.035358,0.001000,0.001000,0.001000,0.001000,0.001000
1020.692308,-0.036301,0.001000,0.001000,0.001000,0.001000,0.001000
1020.711538,-0.037217,0.001000,0.001000,0.001000,0.001000,0.001000
1020.730769,-0.038106,0.001000,0.001000,0.001000,0.001000,0.001000
1020.750000,-0.038967,0.001000,0.001000,0.001000,0.001000,0.001000
1020.769231,-0.039800,0.001000,0.001000,0.001000,0.001000,0.001000
1020.788462,-0.040603,0.001000,0.001000,0.001000,0.001000,0.001000
1020.807692,-0.041377,0.001000,0.001000,0.001000,0.001000,0.001000
1020.826923,-0.042121,0.001000,0.001000,0.001000,0.001000,0.001000
1020.846154,-0.042833,0.001000,0.001000,0.001000,0.001000,0.001000
1020.865385,-0.043515,0.001000,0.001000,0.001000,0.001000,0.001000
1020.884615,-0.044165,0.001000,0.001000,0.001000,0.001000,0.001000
1020.903846,-0.044782,0.001000,0.001000,0.001000,0.001000,0.001000
1020.923077,-0.045367,0.001000,0.001000,0.001000,0.001000,0.001000
1020.942308,-0.045918,0.001000,0.001000,0.001000,0.001000,0.001000
1020.961538,-0.046437,0.001000,0.001000,0.001000,0.001000,0.001000
1020.980769,-0.046921,0.001000,0.001000,0.001000,0.001000,0.001000
1021.000000,-0.047370,0.001000,0.001000,0.001000,0.001000,0.001000
1021.019231,-0.047786,0.001000,0.001000,0.001000,0.001000,0.001000
1021.038462,-0.048166,0.001000,0.001000,0.001000,0.001000,0.001000
1021.057692,-0.048511,0.001000,0.001000,0.001000,0.001000,0.001000
1021.076923,-0.048821,0.001000,0.001000,0.001000,0.001000,0.001000
1021.096154,-0.049095,0.001000,0.001000,0.001000,0.001000,0.001000
1021.115385,-0.049333,0.001000,0.001000,0.001000,0.001000,0.001000
1021.134615,-0.049535,0.001000,0.001000,0.001000,0.001000,0.001000
1021.153846,-0.049701,0.001000,0.001000,0.001000,0.001000,0.001000
1021.173077,-0.049830,0.001000,0.001000,0.001000,0.001000,0.001000
1021.192308,-0.049923,0.001000,0.001000,0.001000,0.001000,0.001000
1021.211538,-0.049980,0.001000,0.001000,0.001000,0.001000,0.001000
1021.230769,-0.050000,0.001000,0.001000,0.001000,0.001000,0.001000
1021.250000,-0.049984,0.001000,0.001000,0.001000,0.001000,0.001000
1021.269231,-0.049931,0.001000,0.001000,0.001000,0.001000,0.001000
1021.288462,-0.049841,0.001000,0.001000,0.001000,0.001000,0.001000
1021.307692,-0.049715,0.001000,0.001000,0.001000,0.001000,0.001000
1021.326923,-0.049553,0.001000,0.001000,0.001000,0.001000,0.001000
1021.346154,-0.049355,0.001000,0.001000,0.001000,0.001000,0.001000
1021.365385,-0.049120,0.001000,0.001000,0.001000,0.001000,0.001000
1021.384615,-0.048850,0.001000,0.001000,0.001000,0.001000,0.001000
1021.403846,-0.048544,0.001000,0.001000,0.001000,0.001000,0.001000
1021.423077,-0.048202,0.001000,0.001000,0.001000,0.001000,0.001000
1021.442308,-0.047826,0.001000,0.001000,0.001000,0.001000,0.001000
1021.461538,-0.047414,0.001000,0.001000,0.001000,0.001000,0.001000
1021.480769,-0.046968,0.001000,0.001000,0.001000,0.001000,0.001000
1021.500000,-0.046487,0.001000,0.001000,0.001000,0.001000,0.001000
1021.519231,-0.045973,0.001000,0.001000,0.001000,0.001000,0.001000
1021.538462,-0.045424,0.001000,0.001000,0.001000,0.001000,0.001000
1021.557692,-0.044843,0.001000,0.001000,0.001000,0.001000,0.001000
1021.576923,-0.044229,0.001000,0.001000,0.001000,0.001000,0.001000
1021.596154,-0.043582,0.001000,0.001000,0.001000,0.001000,0.001000
1021.615385,-0.042904,0.001000,0.001000,0.001000,0.001000,0.001000
1021.634615,-0.042194,0.001000,0.001000,0.001000,0.001000,0.001000
1021.653846,-0.041454,0.001000,0.001000,0.001000,0.001000,0.001000
1021.673077,-0.040683,0.001000,0.001000,0.001000,0.001000,0.001000
1021.692308,-0.039882,0.001000,0.001000,0.001000,0.001000,0.001000
1021.711538,-0.039053,0.001000,0.001000,0.001000,0.001000,0.001000
1021.730769,-0.038195,0.001000,0.001000,0.001000,0.001000,0.001000
1021.750000,-0.037309,0.001000,0.001000,0.001000,0.001000,0.001000
1021.769231,-0.036395,0.001000,0.001000,0.001000,0.001000,0.001000
1021.788462,-0.035455,0.001000,0.001000,0.001000,0.001000,0.001000
1021.807692,-0.034489,0.001000,0.001000,0.001000,0.001000,0.001000
1021.826923,-0.033498,0.001000,0.001000,0.001000,0.001000,0.001000
1021.846154,-0.032483,0.001000,0.001000,0.001000,0.001000,0.001000
1021.865385,-0.031443,0.001000,0.001000,0.001000,0.001000,0.001000
1021.884615,-0.030381,0.001000,0.001000,0.001000,0.001000,0.001000
1021.903846,-0.029297,0.001000,0.001000,0.001000,0.001000,0.001000
1021.923077,-0.028191,0.001000,0.001000,0.001000,0.001000,0.001000
1021.942308,-0.027064,0.001000,0.001000,0.001000,0.001000,0.001000
1021.961538,-0.025918,0.001000,0.001000,0.001000,0.001000,0.001000
1021.980769,-0.024753,0.001000,0.001000,0.001000,0.001000,0.001000
1022.000000,-0.023570,0.001000,0.001000,0.001000,0.001000,0.001000
1022.019231,-0.022369,0.001000,0.001000,0.001000,0.001000,0.001000
1022.038462,-0.021152,0.001000,0.001000,0.001000,0.001000,0.001000
1022.057692,-0.019920,0.001000,0.001000,0.001000,0.001000,0.001000
1022.076923,-0.018673,0.001000,0.001000,0.001000,0.001000,0.001000
1022.096154,-0.017413,0.001000,0.001000,0.001000,0.001000,0.001000
1022.115385,-0.016139,0.001000,0.001000,0.001000,0.001000,0.001000
1022.134615,-0.014854,0.001000,0.001000,0.001000,0.001000,0.001000
1022.153846,-0.013559,0.001000,0.001000,0.001000,0.001000,0.001000
1022.173077,-0.012253,0.001000,0.001000,0.001000,0.001000,0.001000
1022.192308,-0.010938,0.001000,0.001000,0.001000,0.001000,0.001000
1022.211538,-0.009615,0.001000,0.001000,0.001000,0.001000,0.001000
1022.230769,-0.008286,0.001000,0.001000,0.001000,0.001000,0.001000
1022.250000,-0.006950,0.001000,0.001000,0.001000,0.001000,0.001000
1022.269231,-0.005609,0.001000,0.001000,0.001000,0.001000,0.001000
1022.288462,-0.004264,0.001000,0.001000,0.001000,0.001000,0.001000
1022.307692,-0.002916,0.001000,0.001000,0.001000,0.001000,0.001000
1022.326923,-0.001566,0.001000,0.001000,0.001000,0.001000,0.001000
1022.346154,-0.000214,0.001000,0.001000,0.001000,0.001000,0.001000
1022.365385,0.001137,0.001000,0.001000,0.001000,0.001000,0.001000
1022.384615,0.002488,0.001000,0.001000,0.001000,0.001000,0.001000
1022.403846,0.003837,0.001000,0.001000,0.001000,0.001000,0.001000
1022.423077,0.005183,0.001000,0.001000,0.001000,0.001000,0.001000
1022.442308,0.006525,0.001000,0.001000,0.001000,0.001000,0.001000
1022.461538,0.007863,0.001000,0.001000,0.001000,0.001000,0.001000
1022.480769,0.009194,0.001000,0.001000,0.001000,0.001000,0.001000
1022.500000,0.010519,0.001000,0.001000,0.001000,0.001000,0.001000
1022.519231,0.011837,0.001000,0.001000,0.001000,0.001000,0.001000
1022.538462,0.013145,0.001000,0.001000,0.001000,0.001000,0.001000
1022.557692,0.014445,0.001000,0.001000,0.001000,0.001000,0.001000
1022.576923,0.015733,0.001000,0.001000,0.001000,0.001000,0.001000
1022.596154,0.017010,0.001000,0.001000,0.001000,0.001000,0.001000
1022.615385,0.018275,0.001000,0.001000,0.001000,0.001000,0.001000
1022.634615,0.019526,0.001000,0.001000,0.001000,0.001000,0.001000
1022.653846,0.020763,0.001000,0.001000,0.001000,0.001000,0.001000
1022.673077,0.021985,0.001000,0.001000,0.001000,0.001000,0.001000
1022.692308,0.023191,0.001000,0.001000,0.001000,0.001000,0.001000
1022.711538,0.024380,0.001000,0.001000,0.001000,0.001000,0.001000
1022.730769,0.025551,0.001000,0.001000,0.001000,0.001000,0.001000
1022.750000,0.026703,0.001000,0.001000,0.001000,0.001000,0.001000
1022.769231,0.027836,0.001000,0.001000,0.001000,0.001000,0.001000
1022.788462,0.028948,0.001000,0.001000,0.001000,0.001000,0.001000
1022.807692,0.030040,0.001000,0.001000,0.001000,0.001000,0.001000
1022.826923,0.031109,0.001000,0.001000,0.001000,0.001000,0.001000
1022.846154,0.032156,0.001000,0.001000,0.001000,0.001000,0.001000
1022.865385,0.033179,0.001000,0.001000,0.001000,0.001000,0.001000
1022.884615,0.034178,0.001000,0.001000,0.001000,0.001000,0.001000
1022.903846,0.035152,0.001000,0.001000,0.001000,0.001000,0.001000
1022.923077,0.036100,0.001000,0.001000,0.001000,0.001000,0.001000
1022.942308,0.037022,0.001000,0.001000,0.001000,0.001000,0.001000
1022.961538,0.037917,0.001000,0.001000,0.001000,0.001000,0.001000
1022.980769,0.038784,0.001000,0.001000,0.001000,0.001000,0.001000
1023.000000,0.039622,0.001000,0.001000,0.001000,0.001000,0.001000
1023.019231,0.040432,0.001000,0.001000,0.001000,0.001000,0.001000
1023.038462,0.041213,0.001000,0.001000,0.001000,0.001000,0.001000
1023.057692,0.041963,0.001000,0.001000,0.001000,0.001000,0.001000
1023.076923,0.042682,0.001000,0.001000,0.001000,0.001000,0.001000
1023.096154,0.043371,0.001000,0.001000,0.001000,0.001000,0.001000
1023.115385,0.044027,0.001000,0.001000,0.001000,0.001000,0.001000
1023.134615,0.044652,0.001000,0.001000,0.001000,0.001000,0.001000
1023.153846,0.045243,0.001000,0.001000,0.001000,0.001000,0.001000
1023.173077,0.045802,0.001000,0.001000,0.001000,0.001000,0.001000
1023.192308,0.046328,0.001000,0.001000,0.001000,0.001000,0.001000
1023.211538,0.046819,0.001000,0.001000,0.001000,0.001000,0.001000
1023.230769,0.047276,0.001000,0.001000,0.001000,0.001000,0.001000
1023.250000,0.047699,0.001000,0.001000,0.001000,0.001000,0.001000
1023.269231,0.048087,0.001000,0.001000,0.001000,0.001000,0.001000
1023.288462,0.048439,0.001000,0.001000,0.001000,0.001000,0.001000
1023.307692,0.048757,0.001000,0.001000,0.001000,0.001000,0.001000
1023.326923,0.049038,0.001000,0.001000,0.001000,0.001000,0.001000
1023.346154,0.049284,0.001000,0.001000,0.001000,0.001000,0.001000
1023.365385,0.049494,0.001000,0.001000,0.001000,0.001000,0.001000
1023.384615,0.049668,0.001000,0.001000,0.001000,0.001000,0.001000
1023.403846,0.049805,0.001000,0.001000,0.001000,0.001000,0.001000
1023.423077,0.049906,0.001000,0.001000,0.001000,0.001000,0.001000
1023.442308,0.049971,0.001000,0.001000,0.001000,0.001000,0.001000
1023.461538,0.049999,0.001000,0.001000,0.001000,0.001000,0.001000
1023.480769,0.049990,0.001000,0.001000,0.001000,0.001000,0.001000
1023.500000,0.049945,0.001000,0.001000,0.001000,0.001000,0.001000
1023.519231,0.049864,0.001000,0.001000,0.001000,0.001000,0.001000
1023.538462,0.049746,0.001000,0.001000,0.001000,0.001000,0.001000
1023.557692,0.049591,0.001000,0.001000,0.001000,0.001000,0.001000
1023.576923,0.049401,0.001000,0.001000,0.001000,0.001000,0.001000
1023.596154,0.049174,0.001000,0.001000,0.001000,0.001000,0.001000
1023.615385,0.048911,0.001000,0.001000,0.001000,0.001000,0.001000
1023.634615,0.048613,0.001000,0.001000,0.001000,0.001000,0.001000
1023.653846,0.048279,0.001000,0.001000,0.001000,0.001000,0.001000
1023.673077,0.047910,0.001000,0.001000,0.001000,0.001000,0.001000
1023.692308,0.047506,0.001000,0.001000,0.001000,0.001000,0.001000
1023.711538,0.047067,0.001000,0.001000,0.001000,0.001000,0.001000
1023.730769,0.046594,0.001000,0.001000,0.001000,0.001000,0.001000
1023.750000,0.046086,0.001000,0.001000,0.001000,0.001000,0.001000
1023.769231,0.045545,0.001000,0.001000,0.001000,0.001000,0.001000
1023.788462,0.044971,0.001000,0.001000,0.001000,0.001000,0.001000
1023.807692,0.044364,0.001000,0.001000,0.001000,0.001000,0.001000
1023.826923,0.043725,0.001000,0.001000,0.001000,0.001000,0.001000
1023.846154,0.043053,0.001000,0.001000,0.001000,0.001000,0.001000
1023.865385,0.042350,0.001000,0.001000,0.001000,0.001000,0.001000
1023.884615,0.041616,0.001000,0.001000,0.001000,0.001000,0.001000
1023.903846,0.040852,0.001000,0.001000,0.001000,0.001000,0.001000
1023.923077,0.040058,0.001000,0.001000,0.001000,0.001000,0.001000
1023.942308,0.039234,0.001000,0.001000,0.001000,0.001000,0.001000
1023.961538,0.038382,0.001000,0.001000,0.001000,0.001000,0.001000
1023.980769,0.037502,0.001000,0.001000,0.001000,0.001000,0.001000
1024.000000,0.036595,0.001000,0.001000,0.001000,0.001000,0.001000
1024.019231,0.035660,0.001000,0.001000,0.001000,0.001000,0.001000
1024.038462,0.034700,0.001000,0.001000,0.001000,0.001000,0.001000
1024.057692,0.033714,0.001000,0.001000,0.001000,0.001000,0.001000
1024.076923,0.032704,0.001000,0.001000,0.001000,0.001000,0.001000
1024.096154,0.031670,0.001000,0.001000,0.001000,0.001000,0.001000
1024.115385,0.030612,0.001000,0.001000,0.001000,0.001000,0.001000
1024.134615,0.029533,0.001000,0.001000,0.001000,0.001000,0.001000
1024.153846,0.028431,0.001000,0.001000,0.001000,0.001000,0.001000
1024.173077,0.027309,0.001000,0.001000,0.001000,0.001000,0.001000
1024.192308,0.026167,0.001000,0.001000,0.001000,0.001000,0.001000
1024.211538,0.025006,0.001000,0.001000,0.001000,0.001000,0.001000
1024.230769,0.023827,0.001000,0.001000,0.001000,0.001000,0.001000
1024.250000,0.022630,0.001000,0.001000,0.001000,0.001000,0.001000
1024.269231,0.021416,0.001000,0.001000,0.001000,0.001000,0.001000
1024.288462,0.020187,0.001000,0.001000,0.001000,0.001000,0.001000
1024.307692,0.018944,0.001000,0.001000,0.001000,0.001000,0.001000
1024.326923,0.017686,0.001000,0.001000,0.001000,0.001000,0.001000
1024.346154,0.016415,0.001000,0.001000,0.001000,0.001000,0.001000
1024.365385,0.015133,0.001000,0.001000,0.001000,0.001000,0.001000
1024.384615,0.013839,0.001000,0.001000,0.001000,0.001000,0.001000
1024.403846,0.012536,0.001000,0.001000,0.001000,0.001000,0.001000
1024.423077,0.011223,0.001000,0.001000,0.001000,0.001000,0.001000
1024.442308,0.009902,0.001000,0.001000,0.001000,0.001000,0.001000
1024.461538,0.008573,0.001000,0.001000,0.001000,0.001000,0.001000
1024.480769,0.007239,0.001000,0.001000,0.001000,0.001000,0.001000
1024.500000,0.005899,0.001000,0.001000,0.001000,0.001000,0.001000
1024.519231,0.004555,0.001000,0.001000,0.001000,0.001000,0.001000
1024.538462,0.003207,0.001000,0.001000,0.001000,0.001000,0.001000
1024.557692,0.001857,0.001000,0.001000,0.001000,0.001000,0.001000
1024.576923,0.000506,0.001000,0.001000,0.001000,0.001000,0.001000
1024.596154,-0.000845,0.001000,0.001000,0.001000,0.001000,0.001000
1024.615385,-0.002196,0.001000,0.001000,0.001000,0.001000,0.001000
1024.634615,-0.003546,0.001000,0.001000,0.001000,0.001000,0.001000
1024.653846,-0.004893,0.001000,0.001000,0.001000,0.001000,0.001000
1024.673077,-0.006236,0.001000,0.001000,0.001000,0.001000,0.001000
1024.692308,-0.007574,0.001000,0.001000,0.001000,0.001000,0.001000
1024.711538,-0.008907,0.001000,0.001000,0.001000,0.001000,0.001000
1024.730769,-0.010234,0.001000,0.001000,0.001000,0.001000,0.001000
1024.750000,-0.011553,0.001000,0.001000,0.001000,0.001000,0.001000
1024.769231,-0.012864,0.001000,0.001000,0.001000,0.001000,0.001000
1024.788462,-0.014165,0.001000,0.001000,0.001000,0.001000,0.001000
1024.807692,-0.015456,0.001000,0.001000,0.001000,0.001000,0.001000
1024.826923,-0.016736,0.001000,0.001000,0.001000,0.001000,0.001000
1024.846154,-0.018003,0.001000,0.001000,0.001000,0.001000,0.001000
1024.865385,-0.019257,0.001000,0.001000,0.001000,0.001000,0.001000
1024.884615,-0.020497,0.001000,0.001000,0.001000,0.001000,0.001000
1024.903846,-0.021723,0.001000,0.001000,0.001000,0.001000,0.001000
1024.923077,-0.022932,0.001000,0.001000,0.001000,0.001000,0.001000
1024.942308,-0.024124,0.001000,0.001000,0.001000,0.001000,0.001000
1024.961538,-0.025299,0.001000,0.001000,0.001000,0.001000,0.001000
1024.980769,-0.026456,0.001000,0.001000,0.001000,0.001000,0.001000
1025.000000,-0.027593,0.001000,0.001000,0.001000,0.001000,0.001000
1025.019231,-0.028710,0.001000,0.001000,0.001000,0.001000,0.001000
1025.038462,-0.029806,0.001000,0.001000,0.001000,0.001000,0.001000
1025.057692,-0.030880,0.001000,0.001000,0.001000,0.001000,0.001000
1025.076923,-0.031932,0.001000,0.001000,0.001000,0.001000,0.001000
1025.096154,-0.032960,0.001000,0.001000,0.001000,0.001000,0.001000
1025.115385,-0.033964,0.001000,0.001000,0.001000,0.001000,0.001000
1025.134615,-0.034944,0.001000,0.001000,0.001000,0.001000,0.001000
1025.153846,-0.035897,0.001000,0.001000,0.001000,0.001000,0.001000
1025.173077,-0.036825,0.001000,0.001000,0.001000,0.001000,0.001000
1025.192308,-0.037726,0.001000,0.001000,0.001000,0.001000,0.001000
1025.211538,-0.038599,0.001000,0.001000,0.001000,0.001000,0.001000
1025.230769,-0.039444,0.001000,0.001000,0.001000,0.001000,0.001000
1025.250000,-0.040260,0.001000,0.001000,0.001000,0.001000,0.001000
1025.269231,-0.041047,0.001000,0.001000,0.001000,0.001000,0.001000
1025.288462,-0.041803,0.001000,0.001000,0.001000,0.001000,0.001000
1025.307692,-0.042530,0.001000,0.001000,0.001000,0.001000,0.001000
1025.326923,-0.043225,0.001000,0.001000,0.001000,0.001000,0.001000
1025.346154,-0.043888,0.001000,0.001000,0.001000,0.001000,0.001000
1025.365385,-0.044520,0.001000,0.001000,0.001000,0.001000,0.001000
1025.384615,-0.045119,0.001000,0.001000,0.001000,0.001000,0.001000
1025.403846,-0.045684,0.001000,0.001000,0.001000,0.001000,0.001000
1025.423077,-0.046217,0.001000,0.001000,0.001000,0.001000,0.001000
1025.442308,-0.046716,0.001000,0.001000,0.001000,0.001000,0.001000
1025.461538,-0.047180,0.001000,0.001000,0.001000,0.001000,0.001000
1025.480769,-0.047611,0.001000,0.001000,0.001000,0.001000,0.001000
1025.500000,-0.048006,0.001000,0.001000,0.001000,0.001000,0.001000
1025.519231,-0.048366,0.001000,0.001000,0.001000,0.001000,0.001000
1025.538462,-0.048691,0.001000,0.001000,0.001000,0.001000,0.001000
1025.557692,-0.048981,0.001000,0.001000,0.001000,0.001000,0.001000
1025.576923,-0.049234,0.001000,0.001000,0.001000,0.001000,0.001000
1025.596154,-0.049452,0.001000,0.001000,0.001000,0.001000,0.001000
1025.615385,-0.049633,0.001000,0.001000,0.001000,0.001000,0.001000
1025.634615,-0.049779,0.001000,0.001000,0.001000,0.001000,0.001000
1025.653846,-0.049887,0.001000,0.001000,0.001000,0.001000,0.001000
1025.673077,-0.049960,0.001000,0.001000,0.001000,0.001000,0.001000
1025.692308,-0.049996,0.001000,0.001000,0.001000,0.001000,0.001000
1025.711538,-0.049995,0.001000,0.001000,0.001000,0.001000,0.001000
1025.730769,-0.049958,0.001000,0.001000,0.001000,0.001000,0.001000
1025.750000,-0.049884,0.001000,0.001000,0.001000,0.001000,0.001000
1025.769231,-0.049774,0.001000,0.001000,0.001000,0.001000,0.001000
1025.788462,-0.049628,0.001000,0.001000,0.001000,0.001000,0.001000
1025.807692,-0.049445,0.001000,0.001000,0.001000,0.001000,0.001000
1025.826923,-0.049226,0.001000,0.001000,0.001000,0.001000,0.001000
1025.846154,-0.048971,0.001000,0.001000,0.001000,0.001000,0.001000
1025.865385,-0.048680,0.001000,0.001000,0.001000,0.001000,0.001000
1025.884615,-0.048354,0.001000,0.001000,0.001000,0.001000,0.001000
1025.903846,-0.047993,0.001000,0.001000,0.001000,0.001000,0.001000
1025.923077,-0.047596,0.001000,0.001000,0.001000,0.001000,0.001000
1025.942308,-0.047165,0.001000,0.001000,0.001000,0.001000,0.001000
1025.961538,-0.046699,0.001000,0.001000,0.001000,0.001000,0.001000
1025.980769,-0.046199,0.001000,0.001000,0.001000,0.001000,0.001000
1026.000000,-0.045665,0.001000,0.001000,0.001000,0.001000,0.001000
1026.019231,-0.045098,0.001000,0.001000,0.001000,0.001000,0.001000
1026.038462,-0.044498,0.001000,0.001000,0.001000,0.001000,0.001000
1026.057692,-0.043865,0.001000,0.001000,0.001000,0.001000,0.001000
1026.076923,-0.043201,0.001000,0.001000,0.001000,0.001000,0.001000
1026.096154,-0.042504,0.001000,0.001000,0.001000,0.001000,0.001000
1026.115385,-0.041777,0.001000,0.001000,0.001000,0.001000,0.001000
1026.134615,-0.041019,0.001000,0.001000,0.001000,0.001000,0.001000
1026.153846,-0.040232,0.001000,0.001000,0.001000,0.001000,0.001000
1026.173077,-0.039415,0.001000,0.001000,0.001000,0.001000,0.001000
1026.192308,-0.038569,0.001000,0.001000,0.001000,0.001000,0.001000
1026.211538,-0.037694,0.001000,0.001000,0.001000,0.001000,0.001000
1026.230769,-0.036793,0.001000,0.001000,0.001000,0.001000,0.001000
1026.250000,-0.035864,0.001000,0.001000,0.001000,0.001000,0.001000
1026.269231,-0.034909,0.001000,0.001000,0.001000,0.001000,0.001000
1026.288462,-0.033929,0.001000,0.001000,0.001000,0.001000,0.001000
1026.307692,-0.032924,0.001000,0.001000,0.001000,0.001000,0.001000
1026.326923,-0.031895,0.001000,0.001000,0.001000,0.001000,0.001000
1026.346154,-0.030843,0.001000,0.001000,0.001000,0.001000,0.001000
1026.365385,-0.029768,0.001000,0.001000,0.001000,0.001000,0.001000
1026.384615,-0.028671,0.001000,0.001000,0.001000,0.001000,0.001000
1026.403846,-0.027553,0.001000,0.001000,0.001000,0.001000,0.001000
1026.423077,-0.026415,0.001000,0.001000,0.001000,0.001000,0.001000
1026.442308,-0.025258,0.001000,0.001000,0.001000,0.001000,0.001000
1026.461538,-0.024083,0.001000,0.001000,0.001000,0.001000,0.001000
1026.480769,-0.022890,0.001000,0.001000,0.001000,0.001000,0.001000
1026.500000,-0.021680,0.001000,0.001000,0.001000,0.001000,0.001000
1026.519231,-0.020454,0.001000,0.001000,0.001000,0.001000,0.001000
1026.538462,-0.019213,0.001000,0.001000,0.001000,0.001000,0.001000
1026.557692,-0.017959,0.001000,0.001000,0.001000,0.001000,0.001000
1026.576923,-0.016691,0.001000,0.001000,0.001000,0.001000,0.001000
1026.596154,-0.015411,0.001000,0.001000,0.001000,0.001000,0.001000
1026.615385,-0.014119,0.001000,0.001000,0.001000,0.001000,0.001000
1026.634615,-0.012818,0.001000,0.001000,0.001000,0.001000,0.001000
1026.653846,-0.011507,0.001000,0.001000,0.001000,0.001000,0.001000
1026.673077,-0.010187,0.001000,0.001000,0.001000,0.001000,0.001000
1026.692308,-0.008861,0.001000,0.001000,0.001000,0.001000,0.001000
1026.711538,-0.007527,0.001000,0.001000,0.001000,0.001000,0.001000
1026.730769,-0.006188,0.001000,0.001000,0.001000,0.001000,0.001000
1026.750000,-0.004845,0.001000,0.001000,0.001000,0.001000,0.001000
1026.769231,-0.003498,0.001000,0.001000,0.001000,0.001000,0.001000
1026.788462,-0.002149,0.001000,0.001000,0.001000,0.001000,0.001000
1026.807692,-0.000798,0.001000,0.001000,0.001000,0.001000,0.001000
1026.826923,0.000554,0.001000,0.001000,0.001000,0.001000,0.001000
1026.846154,0.001905,0.001000,0.001000,0.001000,0.001000,0.001000
1026.865385,0.003255,0.001000,0.001000,0.001000,0.001000,0.001000
1026.884615,0.004602,0.001000,0.001000,0.001000,0.001000,0.001000
1026.903846,0.005946,0.001000,0.001000,0.001000,0.001000,0.001000
1026.923077,0.007286,0.001000,0.001000,0.001000,0.001000,0.001000
1026.942308,0.008620,0.001000,0.001000,0.001000,0.001000,0.001000
1026.961538,0.009948,0.001000,0.001000,0.001000,0.001000,0.001000
1026.980769,0.011269,0.001000,0.001000,0.001000,0.001000,0.001000
1027.000000,0.012582,0.001000,0.001000,0.001000,0.001000,0.001000
1027.019231,0.013885,0.001000,0.001000,0.001000,0.001000,0.001000
1027.038462,0.015178,0.001000,0.001000,0.001000,0.001000,0.001000
1027.057692,0.016460,0.001000,0.001000,0.001000,0.001000,0.001000
1027.076923,0.017730,0.001000,0.001000,0.001000,0.001000,0.001000
1027.096154,0.018988,0.001000,0.001000,0.001000,0.001000,0.001000
1027.115385,0.020231,0.001000,0.001000,0.001000,0.001000,0.001000
1027.134615,0.021459,0.001000,0.001000,0.001000,0.001000,0.001000
1027.153846,0.022672,0.001000,0.001000,0.001000,0.001000,0.001000
1027.173077,0.023868,0.001000,0.001000,0.001000,0.001000,0.001000
1027.192308,0.025047,0.001000,0.001000,0.001000,0.001000,0.001000
1027.211538,0.026208,0.001000,0.001000,0.001000,0.001000,0.001000
1027.230769,0.027349,0.001000,0.001000,0.001000,0.001000,0.001000
1027.250000,0.028470,0.001000,0.001000,0.001000,0.001000,0.001000
1027.269231,0.029571,0.001000,0.001000,0.001000,0.001000,0.001000
1027.288462,0.030650,0.001000,0.001000,0.001000,0.001000,0.001000
1027.307692,0.031707,0.001000,0.001000,0.001000,0.001000,0.001000
1027.326923,0.032740,0.001000,0.001000,0.001000,0.001000,0.001000
1027.346154,0.033749,0.001000,0.001000,0.001000,0.001000,0.001000
1027.365385,0.034734,0.001000,0.001000,0.001000,0.001000,0.001000
1027.384615,0.035694,0.001000,0.001000,0.001000,0.001000,0.001000
1027.403846,0.036627,0.001000,0.001000,0.001000,0.001000,0.001000
1027.423077,0.037534,0.001000,0.001000,0.001000,0.001000,0.001000
1027.442308,0.038413,0.001000,0.001000,0.001000,0.001000,0.001000
1027.461538,0.039264,0.001000,0.001000,0.001000,0.001000,0.001000
1027.480769,0.040086,0.001000,0.001000,0.001000,0.001000,0.001000
1027.500000,0.040879,0.001000,0.001000,0.001000,0.001000,0.001000
1027.519231,0.041643,0.001000,0.001000,0.001000,0.001000,0.001000
1027.538462,0.042375,0.001000,0.001000,0.001000,0.001000,0.001000
1027.557692,0.043077,0.001000,0.001000,0.001000,0.001000,0.001000
1027.576923,0.043748,0.001000,0.001000,0.001000,0.001000,0.001000
1027.596154,0.044386,0.001000,0.001000,0.001000,0.001000,0.001000
1027.615385,0.044992,0.001000,0.001000,0.001000,0.001000,0.001000
1027.634615,0.045565,0.001000,0.001000,0.001000,0.001000,0.001000
1027.653846,0.046105,0.001000,0.001000,0.001000,0.001000,0.001000
1027.673077,0.046611,0.001000,0.001000,0.001000,0.001000,0.001000
1027.692308,0.047083,0.001000,0.001000,0.001000,0.001000,0.001000
1027.711538,0.047521,0.001000,0.001000,0.001000,0.001000,0.001000
1027.730769,0.047924,0.001000,0.001000,0.001000,0.001000,0.001000
1027.750000,0.048292,0.001000,0.001000,0.001000,0.001000,0.001000
1027.769231,0.048624,0.001000,0.001000,0.001000,0.001000,0.001000
1027.788462,0.048921,0.001000,0.001000,0.001000,0.001000,0.001000
1027.807692,0.049183,0.001000,0.001000,0.001000,0.001000,0.001000
1027.826923,0.049408,0.001000,0.001000,0.001000,0.001000,0.001000
1027.846154,0.049597,0.001000,0.001000,0.001000,0.001000,0.001000
1027.865385,0.049750,0.001000,0.001000,0.001000,0.001000,0.001000
1027.884615,0.049867,0.001000,0.001000,0.001000,0.001000,0.001000
1027.903846,0.049947,0.001000,0.001000,0.001000,0.001000,0.001000
1027.923077,0.049991,0.001000,0.001000,0.001000,0.001000,0.001000
1027.942308,0.049998,0.001000,0.001000,0.001000,0.001000,0.001000
1027.961538,0.049969,0.001000,0.001000,0.001000,0.001000,0.001000
1027.980769,0.049903,0.001000,0.001000,0.001000,0.001000,0.001000
1028.000000,0.049801,0.001000,0.001000,0.001000,0.001000,0.001000
1028.019231,0.049662,0.001000,0.001000,0.001000,0.001000,0.001000
1028.038462,0.049487,0.001000,0.001000,0.001000,0.001000,0.001000
1028.057692,0.049276,0.001000,0.001000,0.001000,0.001000,0.001000
1028.076923,0.049029,0.001000,0.001000,0.001000,0.001000,0.001000
1028.096154,0.048746,0.001000,0.001000,0.001000,0.001000,0.001000
1028.115385,0.048428,0.001000,0.001000,0.001000,0.001000,0.001000
1028.134615,0.048074,0.001000,0.001000,0.001000,0.001000,0.001000
1028.153846,0.047685,0.001000,0.001000,0.001000,0.001000,0.001000
1028.173077,0.047261,0.001000,0.001000,0.001000,0.001000,0.001000
1028.192308,0.046802,0.001000,0.001000,0.001000,0.001000,0.001000
1028.211538,0.046310,0.001000,0.001000,0.001000,0.001000,0.001000
1028.230769,0.045783,0.001000,0.001000,0.001000,0.001000,0.001000
1028.250000,0.045223,0.001000,0.001000,0.001000,0.001000,0.001000
1028.269231,0.044630,0.001000,0.001000,0.001000,0.001000,0.001000
1028.288462,0.044005,0.001000,0.001000,0.001000,0.001000,0.001000
1028.307692,0.043347,0.001000,0.001000,0.001000,0.001000,0.001000
1028.326923,0.042657,0.001000,0.001000,0.001000,0.001000,0.001000
1028.346154,0.041937,0.001000,0.001000,0.001000,0.001000,0.001000
1028.365385,0.041186,0.001000,0.001000,0.001000,0.001000,0.001000
1028.384615,0.040404,0.001000,0.001000,0.001000,0.001000,0.001000
1028.403846,0.039593,0.001000,0.001000,0.001000,0.001000,0.001000
1028.423077,0.038754,0.001000,0.001000,0.001000,0.001000,0.001000
1028.442308,0.037885,0.001000,0.001000,0.001000,0.001000,0.001000
1028.461538,0.036990,0.001000,0.001000,0.001000,0.001000,0.001000
1028.480769,0.036067,0.001000,0.001000,0.001000,0.001000,0.001000
1028.500000,0.035118,0.001000,0.001000,0.001000,0.001000,0.001000
1028.519231,0.034143,0.001000,0.001000,0.001000,0.001000,0.001000
1028.538462,0.033143,0.001000,0.001000,0.001000,0.001000,0.001000
1028.557692,0.032119,0.001000,0.001000,0.001000,0.001000,0.001000
1028.576923,0.031072,0.001000,0.001000,0.001000,0.001000,0.001000
1028.596154,0.030001,0.001000,0.001000,0.001000,0.001000,0.001000
1028.615385,0.028909,0.001000,0.001000,0.001000,0.001000,0.001000
1028.634615,0.027796,0.001000,0.001000,0.001000,0.001000,0.001000
1028.653846,0.026663,0.001000,0.001000,0.001000,0.001000,0.001000
1028.673077,0.025510,0.001000,0.001000,0.001000,0.001000,0.001000
1028.692308,0.024338,0.001000,0.001000,0.001000,0.001000,0.001000
1028.711538,0.023149,0.001000,0.001000,0.001000,0.001000,0.001000
1028.730769,0.021942,0.001000,0.001000,0.001000,0.001000,0.001000
1028.750000,0.020720,0.001000,0.001000,0.001000,0.001000,0.001000
1028.769231,0.019482,0.001000,0.001000,0.001000,0.001000,0.001000
1028.788462,0.018230,0.001000,0.001000,0.001000,0.001000,0.001000
1028.807692,0.016965,0.001000,0.001000,0.001000,0.001000,0.001000
1028.826923,0.015688,0.001000,0.001000,0.001000,0.001000,0.001000
1028.846154,0.014399,0.001000,0.001000,0.001000,0.001000,0.001000
1028.865385,0.013100,0.001000,0.001000,0.001000,0.001000,0.001000
1028.884615,0.011790,0.001000,0.001000,0.001000,0.001000,0.001000
1028.903846,0.010473,0.001000,0.001000,0.001000,0.001000,0.001000
1028.923077,0.009148,0.001000,0.001000,0.001000,0.001000,0.001000
1028.942308,0.007816,0.001000,0.001000,0.001000,0.001000,0.001000
1028.961538,0.006478,0.001000,0.001000,0.001000,0.001000,0.001000
1028.980769,0.005135,0.001000,0.001000,0.001000,0.001000,0.001000
1029.000000,0.003789,0.001000,0.001000,0.001000,0.001000,0.001000
1029.019231,0.002440,0.001000,0.001000,0.001000,0.001000,0.001000
1029.038462,0.001090,0.001000,0.001000,0.001000,0.001000,0.001000
1029.057692,-0.000262,0.001000,0.001000,0.001000,0.001000,0.001000
1029.076923,-0.001613,0.001000,0.001000,0.001000,0.001000,0.001000
1029.096154,-0.002963,0.001000,0.001000,0.001000,0.001000,0.001000
1029.115385,-0.004311,0.001000,0.001000,0.001000,0.001000,0.001000
1029.134615,-0.005656,0.001000,0.001000,0.001000,0.001000,0.001000
1029.153846,-0.006997,0.001000,0.001000,0.001000,0.001000,0.001000
1029.173077,-0.008333,0.001000,0.001000,0.001000,0.001000,0.001000
1029.192308,-0.009662,0.001000,0.001000,0.001000,0.001000,0.001000
1029.211538,-0.010985,0.001000,0.001000,0.001000,0.001000,0.001000
1029.230769,-0.012299,0.001000,0.001000,0.001000,0.001000,0.001000
1029.250000,-0.013604,0.001000,0.001000,0.001000,0.001000,0.001000
1029.269231,-0.014900,0.001000,0.001000,0.001000,0.001000,0.001000
1029.288462,-0.016185,0.001000,0.001000,0.001000,0.001000,0.001000
1029.307692,-0.017457,0.001000,0.001000,0.001000,0.001000,0.001000
1029.326923,-0.018717,0.001000,0.001000,0.001000,0.001000,0.001000
1029.346154,-0.019964,0.001000,0.001000,0.001000,0.001000,0.001000
1029.365385,-0.021195,0.001000,0.001000,0.001000,0.001000,0.001000
1029.384615,-0.022412,0.001000,0.001000,0.001000,0.001000,0.001000
1029.403846,-0.023612,0.001000,0.001000,0.001000,0.001000,0.001000
1029.423077,-0.024794,0.001000,0.001000,0.001000,0.001000,0.001000
1029.442308,-0.025959,0.001000,0.001000,0.001000,0.001000,0.001000
1029.461538,-0.027104,0.001000,0.001000,0.001000,0.001000,0.001000
1029.480769,-0.028230,0.001000,0.001000,0.001000,0.001000,0.001000
1029.500000,-0.029335,0.001000,0.001000,0.001000,0.001000,0.001000
1029.519231,-0.030419,0.001000,0.001000,0.001000,0.001000,0.001000
1029.538462,-0.031480,0.001000,0.001000,0.001000,0.001000,0.001000
1029.557692,-0.032519,0.001000,0.001000,0.001000,0.001000,0.001000
1029.576923,-0.033534,0.001000,0.001000,0.001000,0.001000,0.001000
1029.596154,-0.034524,0.001000,0.001000,0.001000,0.001000,0.001000
1029.615385,-0.035489,0.001000,0.001000,0.001000,0.001000,0.001000
1029.634615,-0.036428,0.001000,0.001000,0.001000,0.001000,0.001000
1029.653846,-0.037340,0.001000,0.001000,0.001000,0.001000,0.001000
1029.673077,-0.038225,0.001000,0.001000,0.001000,0.001000,0.001000
1029.692308,-0.039083,0.001000,0.001000,0.001000,0.001000,0.001000
1029.711538,-0.039911,0.001000,0.001000,0.001000,0.001000,0.001000
1029.730769,-0.040711,0.001000,0.001000,0.001000,0.001000,0.001000
1029.750000,-0.041480,0.001000,0.001000,0.001000,0.001000,0.001000
1029.769231,-0.042220,0.001000,0.001000,0.001000,0.001000,0.001000
1029.788462,-0.042928,0.001000,0.001000,0.001000,0.001000,0.001000
1029.807692,-0.043606,0.001000,0.001000,0.001000,0.001000,0.001000
1029.826923,-0.044251,0.001000,0.001000,0.001000,0.001000,0.001000
1029.846154,-0.044864,0.001000,0.001000,0.001000,0.001000,0.001000
1029.865385,-0.045444,0.001000,0.001000,0.001000,0.001000,0.001000
1029.884615,-0.045991,0.001000,0.001000,0.001000,0.001000,0.001000
1029.903846,-0.046505,0.001000,0.001000,0.001000,0.001000,0.001000
1029.923077,-0.046984,0.001000,0.001000,0.001000,0.001000,0.001000
1029.942308,-0.047429,0.001000,0.001000,0.001000,0.001000,0.001000
1029.961538,-0.047840,0.001000,0.001000,0.001000,0.001000,0.001000
1029.980769,-0.048215,0.001000,0.001000,0.001000,0.001000,0.001000
1030.000000,0.000000,0.001000,0.001000,0.001000,0.001000,0.001000
1030.019231,0.001373,0.001000,0.001000,0.001000,0.001000,0.001000
1030.038462,0.002745,0.001000,0.001000,0.001000,0.001000,0.001000
1030.057692,0.004115,0.001000,0.001000,0.001000,0.001000,0.001000
1030.076923,0.005481,0.001000,0.001000,0.001000,0.001000,0.001000
1030.096154,0.006844,0.001000,0.001000,0.001000,0.001000,0.001000
1030.115385,0.008201,0.001000,0.001000,0.001000,0.001000,0.001000
1030.134615,0.009552,0.001000,0.001000,0.001000,0.001000,0.001000
1030.153846,0.010896,0.001000,0.001000,0.001000,0.001000,0.001000
1030.173077,0.012232,0.001000,0.001000,0.001000,0.001000,0.001000
1030.192308,0.013559,0.001000,0.001000,0.001000,0.001000,0.001000
1030.211538,0.014875,0.001000,0.001000,0.001000,0.001000,0.001000
1030.230769,0.016180,0.001000,0.001000,0.001000,0.001000,0.001000
1030.250000,0.017473,0.001000,0.001000,0.001000,0.001000,0.001000
1030.269231,0.018753,0.001000,0.001000,0.001000,0.001000,0.001000
1030.288462,0.020018,0.001000,0.001000,0.001000,0.001000,0.001000
1030.307692,0.021269,0.001000,0.001000,0.001000,0.001000,0.001000
1030.326923,0.022503,0.001000,0.001000,0.001000,0.001000,0.001000
1030.346154,0.023721,0.001000,0.001000,0.001000,0.001000,0.001000
1030.365385,0.024920,0.001000,0.001000,0.001000,0.001000,0.001000
1030.384615,0.026101,0.001000,0.001000,0.001000,0.001000,0.001000
1030.403846,0.027262,0.001000,0.001000,0.001000,0.001000,0.001000
1030.423077,0.028403,0.001000,0.001000,0.001000,0.001000,0.001000
1030.442308,0.029522,0.001000,0.001000,0.001000,0.001000,0.001000
1030.461538,0.030619,0.001000,0.001000,0.001000,0.001000,0.001000
1030.480769,0.031693,0.001000,0.001000,0.001000,0.001000,0.001000
1030.500000,0.032743,0.001000,0.001000,0.001000,0.001000,0.001000
1030.519231,0.033768,0.001000,0.001000,0.001000,0.001000,0.001000
1030.538462,0.034768,0.001000,0.001000,0.001000,0.001000,0.001000
1030.557692,0.035741,0.001000,0.001000,0.001000,0.001000,0.001000
1030.576923,0.036688,0.001000,0.001000,0.001000,0.001000,0.001000
1030.596154,0.037607,0.001000,0.001000,0.001000,0.001000,0.001000
1030.615385,0.038497,0.001000,0.001000,0.001000,0.001000,0.001000
1030.634615,0.039359,0.001000,0.001000,0.001000,0.001000,0.001000
1030.653846,0.040191,0.001000,0.001000,0.001000,0.001000,0.001000
1030.673077,0.040992,0.001000,0.001000,0.001000,0.001000,0.001000
1030.692308,0.041763,0.001000,0.001000,0.001000,0.001000,0.001000
1030.711538,0.042502,0.001000,0.001000,0.001000,0.001000,0.001000
1030.730769,0.043209,0.001000,0.001000,0.001000,0.001000,0.001000
1030.750000,0.043884,0.001000,0.001000,0.001000,0.001000,0.001000
1030.769231,0.044525,0.001000,0.001000,0.001000,0.001000,0.001000
1030.788462,0.045133,0.001000,0.001000,0.001000,0.001000,0.001000
1030.807692,0.045707,0.001000,0.001000,0.001000,0.001000,0.001000
1030.826923,0.046246,0.001000,0.001000,0.001000,0.001000,0.001000
1030.846154,0.046751,0.001000,0.001000,0.001000,0.001000,0.001000
1030.865385,0.047220,0.001000,0.001000,0.001000,0.001000,0.001000
1030.884615,0.047653,0.001000,0.001000,0.001000,0.001000,0.001000
1030.903846,0.048051,0.001000,0.001000,0.001000,0.001000,0.001000
1030.923077,0.048413,0.001000,0.001000,0.001000,0.001000,0.001000
1030.942308,0.048738,0.001000,0.001000,0.001000,0.001000,0.001000
1030.961538,0.049026,0.001000,0.001000,0.001000,0.001000,0.001000
1030.980769,0.049277,0.001000,0.001000,0.001000,0.001000,0.001000
1031.000000,0.049491,0.001000,0.001000,0.001000,0.001000,0.001000
1031.019231,0.049668,0.001000,0.001000,0.001000,0.001000,0.001000
1031.038462,0.049807,0.001000,0.001000,0.001000,0.001000,0.001000
1031.057692,0.049909,0.001000,0.001000,0.001000,0.001000,0.001000
1031.076923,0.049973,0.001000,0.001000,0.001000,0.001000,0.001000
1031.096154,0.049999,0.001000,0.001000,0.001000,0.001000,0.001000
1031.115385,0.049988,0.001000,0.001000,0.001000,0.001000,0.001000
1031.134615,0.049939,0.001000,0.001000,0.001000,0.001000,0.001000
1031.153846,0.049852,0.001000,0.001000,0.001000,0.001000,0.001000
1031.173077,0.049728,0.001000,0.001000,0.001000,0.001000,0.001000
1031.192308,0.049566,0.001000,0.001000,0.001000,0.001000,0.001000
1031.211538,0.049367,0.001000,0.001000,0.001000,0.001000,0.001000
1031.230769,0.049131,0.001000,0.001000,0.001000,0.001000,0.001000
1031.250000,0.048858,0.001000,0.001000,0.001000,0.001000,0.001000
1031.269231,0.048547,0.001000,0.001000,0.001000,0.001000,0.001000
1031.288462,0.048200,0.001000,0.001000,0.001000,0.001000,0.001000
1031.307692,0.047817,0.001000,0.001000,0.001000,0.001000,0.001000
1031.326923,0.047398,0.001000,0.001000,0.001000,0.001000,0.001000
1031.346154,0.046943,0.001000,0.001000,0.001000,0.001000,0.001000
1031.365385,0.046453,0.001000,0.001000,0.001000,0.001000,0.001000
1031.384615,0.045927,0.001000,0.001000,0.001000,0.001000,0.001000
1031.403846,0.045367,0.001000,0.001000,0.001000,0.001000,0.001000
1031.423077,0.044773,0.001000,0.001000,0.001000,0.001000,0.001000
1031.442308,0.044145,0.001000,0.001000,0.001000,0.001000,0.001000
1031.461538,0.043484,0.001000,0.001000,0.001000,0.001000,0.001000
1031.480769,0.042790,0.001000,0.001000,0.001000,0.001000,0.001000
1031.500000,0.042063,0.001000,0.001000,0.001000,0.001000,0.001000
1031.519231,0.041305,0.001000,0.001000,0.001000,0.001000,0.001000
1031.538462,0.040516,0.001000,0.001000,0.001000,0.001000,0.001000
1031.557692,0.039696,0.001000,0.001000,0.001000,0.001000,0.001000
1031.576923,0.038846,0.001000,0.001000,0.001000,0.001000,0.001000
1031.596154,0.037967,0.001000,0.001000,0.001000,0.001000,0.001000
1031.615385,0.037060,0.001000,0.001000,0.001000,0.001000,0.001000
1031.634615,0.036124,0.001000,0.001000,0.001000,0.001000,0.001000
1031.653846,0.035161,0.001000,0.001000,0.001000,0.001000,0.001000
1031.673077,0.034172,0.001000,0.001000,0.001000,0.001000,0.001000
1031.692308,0.033157,0.001000,0.001000,0.001000,0.001000,0.001000
1031.711538,0.032117,0.001000,0.001000,0.001000,0.001000,0.001000
1031.730769,0.031053,0.001000,0.001000,0.001000,0.001000,0.001000
1031.750000,0.029965,0.001000,0.001000,0.001000,0.001000,0.001000
1031.769231,0.028854,0.001000,0.001000,0.001000,0.001000,0.001000
1031.788462,0.027722,0.001000,0.001000,0.001000,0.001000,0.001000
1031.807692,0.026569,0.001000,0.001000,0.001000,0.001000,0.001000
1031.826923,0.025396,0.001000,0.001000,0.001000,0.001000,0.001000
1031.846154,0.024204,0.001000,0.001000,0.001000,0.001000,0.001000
1031.865385,0.022994,0.001000,0.001000,0.001000,0.001000,0.001000
1031.884615,0.021766,0.001000,0.001000,0.001000,0.001000,0.001000
1031.903846,0.020522,0.001000,0.001000,0.001000,0.001000,0.001000
1031.923077,0.019262,0.001000,0.001000,0.001000,0.001000,0.001000
1031.942308,0.017988,0.001000,0.001000,0.001000,0.001000,0.001000
1031.961538,0.016700,0.001000,0.001000,0.001000,0.001000,0.001000
1031.980769,0.015400,0.001000,0.001000,0.001000,0.001000,0.001000
1032.000000,0.014088,0.001000,0.001000,0.001000,0.001000,0.001000
1032.019231,0.012765,0.001000,0.001000,0.001000,0.001000,0.001000
1032.038462,0.011433,0.001000,0.001000,0.001000,0.001000,0.001000
1032.057692,0.010092,0.001000,0.001000,0.001000,0.001000,0.001000
1032.076923,0.008744,0.001000,0.001000,0.001000,0.001000,0.001000
1032.096154,0.007389,0.001000,0.001000,0.001000,0.001000,0.001000
1032.115385,0.006028,0.001000,0.001000,0.001000,0.001000,0.001000
1032.134615,0.004663,0.001000,0.001000,0.001000,0.001000,0.001000
1032.153846,0.003294,0.001000,0.001000,0.001000,0.001000,0.001000
1032.173077,0.001923,0.001000,0.001000,0.001000,0.001000,0.001000
1032.192308,0.000551,0.001000,0.001000,0.001000,0.001000,0.001000
1032.211538,-0.000822,0.001000,0.001000,0.001000,0.001000,0.001000
1032.230769,-0.002195,0.001000,0.001000,0.001000,0.001000,0.001000
1032.250000,-0.003565,0.001000,0.001000,0.001000,0.001000,0.001000
1032.269231,-0.004934,0.001000,0.001000,0.001000,0.001000,0.001000
1032.288462,-0.006298,0.001000,0.001000,0.001000,0.001000,0.001000
1032.307692,-0.007657,0.001000,0.001000,0.001000,0.001000,0.001000
1032.326923,-0.009011,0.001000,0.001000,0.001000,0.001000,0.001000
1032.346154,-0.010358,0.001000,0.001000,0.001000,0.001000,0.001000
1032.365385,-0.011697,0.001000,0.001000,0.001000,0.001000,0.001000
1032.384615,-0.013028,0.001000,0.001000,0.001000,0.001000,0.001000
1032.403846,-0.014348,0.001000,0.001000,0.001000,0.001000,0.001000
1032.423077,-0.015658,0.001000,0.001000,0.001000,0.001000,0.001000
1032.442308,-0.016956,0.001000,0.001000,0.001000,0.001000,0.001000
1032.461538,-0.018241,0.001000,0.001000,0.001000,0.001000,0.001000
1032.480769,-0.019513,0.001000,0.001000,0.001000,0.001000,0.001000
1032.500000,-0.020769,0.001000,0.001000,0.001000,0.001000,0.001000
1032.519231,-0.022010,0.001000,0.001000,0.001000,0.001000,0.001000
1032.538462,-0.023235,0.001000,0.001000,0.001000,0.001000,0.001000
1032.557692,-0.024442,0.001000,0.001000,0.001000,0.001000,0.001000
1032.576923,-0.025630,0.001000,0.001000,0.001000,0.001000,0.001000
1032.596154,-0.026799,0.001000,0.001000,0.001000,0.001000,0.001000
1032.615385,-0.027948,0.001000,0.001000,0.001000,0.001000,0.001000
1032.634615,-0.029076,0.001000,0.001000,0.001000,0.001000,0.001000
1032.653846,-0.030182,0.001000,0.001000,0.001000,0.001000,0.001000
1032.673077,-0.031265,0.001000,0.001000,0.001000,0.001000,0.001000
1032.692308,-0.032325,0.001000,0.001000,0.001000,0.001000,0.001000
1032.711538,-0.033360,0.001000,0.001000,0.001000,0.001000,0.001000
1032.730769,-0.034370,0.001000,0.001000,0.001000,0.001000,0.001000
1032.750000,-0.035354,0.001000,0.001000,0.001000,0.001000,0.001000
1032.769231,-0.036312,0.001000,0.001000,0.001000,0.001000,0.001000
1032.788462,-0.037242,0.001000,0.001000,0.001000,0.001000,0.001000
1032.807692,-0.038144,0.001000,0.001000,0.001000,0.001000,0.001000
1032.826923,-0.039017,0.001000,0.001000,0.001000,0.001000,0.001000
1032.846154,-0.039861,0.001000,0.001000,0.001000,0.001000,0.001000
1032.865385,-0.040675,0.001000,0.001000,0.001000,0.001000,0.001000
1032.884615,-0.041458,0.001000,0.001000,0.001000,0.001000,0.001000
1032.903846,-0.042209,0.001000,0.001000,0.001000,0.001000,0.001000
1032.923077,-0.042930,0.001000,0.001000,0.001000,0.001000,0.001000
1032.942308,-0.043617,0.001000,0.001000,0.001000,0.001000,0.001000
1032.961538,-0.044272,0.001000,0.001000,0.001000,0.001000,0.001000
1032.980769,-0.044893,0.001000,0.001000,0.001000,0.001000,0.001000
1033.000000,-0.045481,0.001000,0.001000,0.001000,0.001000,0.001000
1033.019231,-0.046034,0.001000,0.001000,0.001000,0.001000,0.001000
1033.038462,-0.046553,0.001000,0.001000,0.001000,0.001000,0.001000
1033.057692,-0.047036,0.001000,0.001000,0.001000,0.001000,0.001000
1033.076923,-0.047484,0.001000,0.001000,0.001000,0.001000,0.001000
1033.096154,-0.047896,0.001000,0.001000,0.001000,0.001000,0.001000
1033.115385,-0.048272,0.001000,0.001000,0.001000,0.001000,0.001000
1033.134615,-0.048612,0.001000,0.001000,0.001000,0.001000,0.001000
1033.153846,-0.048915,0.001000,0.001000,0.001000,0.001000,0.001000
1033.173077,-0.049181,0.001000,0.001000,0.001000,0.001000,0.001000
1033.192308,-0.049410,0.001000,0.001000,0.001000,0.001000,0.001000
1033.211538,-0.049601,0.001000,0.001000,0.001000,0.001000,0.001000
1033.230769,-0.049756,0.001000,0.001000,0.001000,0.001000,0.001000
1033.250000,-0.049872,0.001000,0.001000,0.001000,0.001000,0.001000
1033.269231,-0.049952,0.001000,0.001000,0.001000,0.001000,0.001000
1033.288462,-0.049993,0.001000,0.001000,0.001000,0.001000,0.001000
1033.307692,-0.049997,0.001000,0.001000,0.001000,0.001000,0.001000
1033.326923,-0.049963,0.001000,0.001000,0.001000,0.001000,0.001000
1033.346154,-0.049892,0.001000,0.001000,0.001000,0.001000,0.001000
1033.365385,-0.049782,0.001000,0.001000,0.001000,0.001000,0.001000
1033.384615,-0.049636,0.001000,0.001000,0.001000,0.001000,0.001000
1033.403846,-0.049452,0.001000,0.001000,0.001000,0.001000,0.001000
1033.423077,-0.049230,0.001000,0.001000,0.001000,0.001000,0.001000
1033.442308,-0.048972,0.001000,0.001000,0.001000,0.001000,0.001000
1033.461538,-0.048676,0.001000,0.001000,0.001000,0.001000,0.001000
1033.480769,-0.048344,0.001000,0.001000,0.001000,0.001000,0.001000
1033.500000,-0.047975,0.001000,0.001000,0.001000,0.001000,0.001000
1033.519231,-0.047570,0.001000,0.001000,0.001000,0.001000,0.001000
1033.538462,-0.047130,0.001000,0.001000,0.001000,0.001000,0.001000
1033.557692,-0.046654,0.001000,0.001000,0.001000,0.001000,0.001000
1033.576923,-0.046142,0.001000,0.001000,0.001000,0.001000,0.001000
1033.596154,-0.045596,0.001000,0.001000,0.001000,0.001000,0.001000
1033.615385,-0.045015,0.001000,0.001000,0.001000,0.001000,0.001000
1033.634615,-0.044401,0.001000,0.001000,0.001000,0.001000,0.001000
1033.653846,-0.043753,0.001000,0.001000,0.001000,0.001000,0.001000
1033.673077,-0.043072,0.001000,0.001000,0.001000,0.001000,0.001000
1033.692308,-0.042358,0.001000,0.001000,0.001000,0.001000,0.001000
1033.711538,-0.041613,0.001000,0.001000,0.001000,0.001000,0.001000
1033.730769,-0.040836,0.001000,0.001000,0.001000,0.001000,0.001000
1033.750000,-0.040029,0.001000,0.001000,0.001000,0.001000,0.001000
1033.769231,-0.039191,0.001000,0.001000,0.001000,0.001000,0.001000
1033.788462,-0.038323,0.001000,0.001000,0.001000,0.001000,0.001000
1033.807692,-0.037427,0.001000,0.001000,0.001000,0.001000,0.001000
1033.826923,-0.036503,0.001000,0.001000,0.001000,0.001000,0.001000
1033.846154,-0.035551,0.001000,0.001000,0.001000,0.001000,0.001000
1033.865385,-0.034572,0.001000,0.001000,0.001000,0.001000,0.001000
1033.884615,-0.033567,0.001000,0.001000,0.001000,0.001000,0.001000
1033.903846,-0.032537,0.001000,0.001000,0.001000,0.001000,0.001000
1033.923077,-0.031482,0.001000,0.001000,0.001000,0.001000,0.001000
1033.942308,-0.030404,0.001000,0.001000,0.001000,0.001000,0.001000
1033.961538,-0.029302,0.001000,0.001000,0.001000,0.001000,0.001000
1033.980769,-0.028179,0.001000,0.001000,0.001000,0.001000,0.001000
1034.000000,-0.027034,0.001000,0.001000,0.001000,0.001000,0.001000
1034.019231,-0.025869,0.001000,0.001000,0.001000,0.001000,0.001000
1034.038462,-0.024685,0.001000,0.001000,0.001000,0.001000,0.001000
1034.057692,-0.023481,0.001000,0.001000,0.001000,0.001000,0.001000
1034.076923,-0.022260,0.001000,0.001000,0.001000,0.001000,0.001000
1034.096154,-0.021023,0.001000,0.001000,0.001000,0.001000,0.001000
1034.115385,-0.019769,0.001000,0.001000,0.001000,0.001000,0.001000
1034.134615,-0.018501,0.001000,0.001000,0.001000,0.001000,0.001000
1034.153846,-0.017218,0.001000,0.001000,0.001000,0.001000,0.001000
1034.173077,-0.015923,0.001000,0.001000,0.001000,0.001000,0.001000
1034.192308,-0.014615,0.001000,0.001000,0.001000,0.001000,0.001000
1034.211538,-0.013297,0.001000,0.001000,0.001000,0.001000,0.001000
1034.230769,-0.011968,0.001000,0.001000,0.001000,0.001000,0.001000
1034.250000,-0.010631,0.001000,0.001000,0.001000,0.001000,0.001000
1034.269231,-0.009285,0.001000,0.001000,0.001000,0.001000,0.001000
1034.288462,-0.007933,0.001000,0.001000,0.001000,0.001000,0.001000
1034.307692,-0.006574,0.001000,0.001000,0.001000,0.001000,0.001000
1034.326923,-0.005211,0.001000,0.001000,0.001000,0.001000,0.001000
1034.346154,-0.003844,0.001000,0.001000,0.001000,0.001000,0.001000
1034.365385,-0.002473,0.001000,0.001000,0.001000,0.001000,0.001000
1034.384615,-0.001101,0.001000,0.001000,0.001000,0.001000,0.001000
1034.403846,0.000272,0.001000,0.001000,0.001000,0.001000,0.001000
1034.423077,0.001645,0.001000,0.001000,0.001000,0.001000,0.001000
1034.442308,0.003016,0.001000,0.001000,0.001000,0.001000,0.001000
1034.461538,0.004385,0.001000,0.001000,0.001000,0.001000,0.001000
1034.480769,0.005751,0.001000,0.001000,0.001000,0.001000,0.001000
1034.500000,0.007113,0.001000,0.001000,0.001000,0.001000,0.001000
1034.519231,0.008469,0.001000,0.001000,0.001000,0.001000,0.001000
1034.538462,0.009819,0.001000,0.001000,0.001000,0.001000,0.001000
1034.557692,0.011161,0.001000,0.001000,0.001000,0.001000,0.001000
1034.576923,0.012495,0.001000,0.001000,0.001000,0.001000,0.001000
1034.596154,0.013820,0.001000,0.001000,0.001000,0.001000,0.001000
1034.615385,0.015134,0.001000,0.001000,0.001000,0.001000,0.001000
1034.634615,0.016437,0.001000,0.001000,0.001000,0.001000,0.001000
1034.653846,0.017727,0.001000,0.001000,0.001000,0.001000,0.001000
1034.673077,0.019004,0.001000,0.001000,0.001000,0.001000,0.001000
