timestamp,ax,ay,az,gx,gy,gz
1000.000000,0.000000,0.001000,0.001000,0.001000,0.001000,0.001000
1000.019231,0.001318,0.001000,0.001000,0.001000,0.001000,0.001000
1000.038462,0.002636,0.001000,0.001000,0.001000,0.001000,0.001000
1000.057692,0.003951,0.001000,0.001000,0.001000,0.001000,0.001000
1000.076923,0.005264,0.001000,0.001000,0.001000,0.001000,0.001000
1000.096154,0.006573,0.001000,0.001000,0.001000,0.001000,0.001000
1000.115385,0.007878,0.001000,0.001000,0.001000,0.001000,0.001000
1000.134615,0.009177,0.001000,0.001000,0.001000,0.001000,0.001000
1000.153846,0.010469,0.001000,0.001000,0.001000,0.001000,0.001000
1000.173077,0.011755,0.001000,0.001000,0.001000,0.001000,0.001000
1000.192308,0.013032,0.001000,0.001000,0.001000,0.001000,0.001000
1000.211538,0.014300,0.001000,0.001000,0.001000,0.001000,0.001000
1000.230769,0.015559,0.001000,0.001000,0.001000,0.001000,0.001000
1000.250000,0.016806,0.001000,0.001000,0.001000,0.001000,0.001000
1000.269231,0.018042,0.001000,0.001000,0.001000,0.001000,0.001000
1000.288462,0.019265,0.001000,0.001000,0.001000,0.001000,0.001000
1000.307692,0.020475,0.001000,0.001000,0.001000,0.001000,0.001000
1000.326923,0.021670,0.001000,0.001000,0.001000,0.001000,0.001000
1000.346154,0.022851,0.001000,0.001000,0.001000,0.001000,0.001000
1000.365385,0.024015,0.001000,0.001000,0.001000,0.001000,0.001000
1000.384615,0.025163,0.001000,0.001000,0.001000,0.001000,0.001000
1000.403846,0.026294,0.001000,0.001000,0.001000,0.001000,0.001000
1000.423077,0.027406,0.001000,0.001000,0.001000,0.001000,0.001000
1000.442308,0.028499,0.001000,0.001000,0.001000,0.001000,0.001000
1000.461538,0.029572,0.001000,0.001000,0.001000,0.001000,0.001000
1000.480769,0.030625,0.001000,0.001000,0.001000,0.001000,0.001000
1000.500000,0.031656,0.001000,0.001000,0.001000,0.001000,0.001000
1000.519231,0.032666,0.001000,0.001000,0.001000,0.001000,0.001000
1000.538462,0.033653,0.001000,0.001000,0.001000,0.001000,0.001000
1000.557692,0.034616,0.001000,0.001000,0.001000,0.001000,0.001000
1000.576923,0.035555,0.001000,0.001000,0.001000,0.001000,0.001000
1000.596154,0.036470,0.001000,0.001000,0.001000,0.001000,0.001000
1000.615385,0.037359,0.001000,0.001000,0.001000,0.001000,0.001000
1000.634615,0.038222,0.001000,0.001000,0.001000,0.001000,0.001000
1000.653846,0.039059,0.001000,0.001000,0.001000,0.001000,0.001000
1000.673077,0.039868,0.001000,0.001000,0.001000,0.001000,0.001000
1000.692308,0.040650,0.001000,0.001000,0.001000,0.001000,0.001000
1000.711538,0.041403,0.001000,0.001000,0.001000,0.001000,0.001000
1000.730769,0.042128,0.001000,0.001000,0.001000,0.001000,0.001000
1000.750000,0.042823,0.001000,0.001000,0.001000,0.001000,0.001000
1000.769231,0.043489,0.001000,0.001000,0.001000,0.001000,0.001000
1000.788462,0.044124,0.001000,0.001000,0.001000,0.001000,0.001000
1000.807692,0.044729,0.001000,0.001000,0.001000,0.001000,0.001000
1000.826923,0.045303,0.001000,0.001000,0.001000,0.001000,0.001000
1000.846154,0.045845,0.001000,0.001000,0.001000,0.001000,0.001000
1000.865385,0.046355,0.001000,0.001000,0.001000,0.001000,0.001000
1000.884615,0.046833,0.001000,0.001000,0.001000,0.001000,0.001000
1000.903846,0.047278,0.001000,0.001000,0.001000,0.001000,0.001000
1000.923077,0.047691,0.001000,0.001000,0.001000,0.001000,0.001000
1000.942308,0.048070,0.001000,0.001000,0.001000,0.001000,0.001000
1000.961538,0.048416,0.001000,0.001000,0.001000,0.001000,0.001000
1000.980769,0.048729,0.001000,0.001000,0.001000,0.001000,0.001000
1001.000000,0.049007,0.001000,0.001000,0.001000,0.001000,0.001000
1001.019231,0.049251,0.001000,0.001000,0.001000,0.001000,0.001000
1001.038462,0.049462,0.001000,0.001000,0.001000,0.001000,0.001000
1001.057692,0.049637,0.001000,0.001000,0.001000,0.001000,0.001000
1001.076923,0.049779,0.001000,0.001000,0.001000,0.001000,0.001000
1001.096154,0.049885,0.001000,0.001000,0.001000,0.001000,0.001000
1001.115385,0.049957,0.001000,0.001000,0.001000,0.001000,0.001000
1001.134615,0.049994,0.001000,0.001000,0.001000,0.001000,0.001000
1001.153846,0.049997,0.001000,0.001000,0.001000,0.001000,0.001000
1001.173077,0.049964,0.001000,0.001000,0.001000,0.001000,0.001000
1001.192308,0.049897,0.001000,0.001000,0.001000,0.001000,0.001000
1001.211538,0.049796,0.001000,0.001000,0.001000,0.001000,0.001000
1001.230769,0.049659,0.001000,0.001000,0.001000,0.001000,0.001000
1001.250000,0.049488,0.001000,0.001000,0.001000,0.001000,0.001000
1001.269231,0.049283,0.001000,0.001000,0.001000,0.001000,0.001000
1001.288462,0.049044,0.001000,0.001000,0.001000,0.001000,0.001000
1001.307692,0.048770,0.001000,0.001000,0.001000,0.001000,0.001000
1001.326923,0.048462,0.001000,0.001000,0.001000,0.001000,0.001000
1001.346154,0.048121,0.001000,0.001000,0.001000,0.001000,0.001000
1001.365385,0.047746,0.001000,0.001000,0.001000,0.001000,0.001000
1001.384615,0.047338,0.001000,0.001000,0.001000,0.001000,0.001000
1001.403846,0.046898,0.001000,0.001000,0.001000,0.001000,0.001000
1001.423077,0.046424,0.001000,0.001000,0.001000,0.001000,0.001000
1001.442308,0.045918,0.001000,0.001000,0.001000,0.001000,0.001000
1001.461538,0.045381,0.001000,0.001000,0.001000,0.001000,0.001000
1001.480769,0.044812,0.001000,0.001000,0.001000,0.001000,0.001000
1001.500000,0.044211,0.001000,0.001000,0.001000,0.001000,0.001000
1001.519231,0.043580,0.001000,0.001000,0.001000,0.001000,0.001000
1001.538462,0.042919,0.001000,0.001000,0.001000,0.001000,0.001000
1001.557692,0.042227,0.001000,0.001000,0.001000,0.001000,0.001000
1001.576923,0.041507,0.001000,0.001000,0.001000,0.001000,0.001000
1001.596154,0.040757,0.001000,0.001000,0.001000,0.001000,0.001000
1001.615385,0.039980,0.001000,0.001000,0.001000,0.001000,0.001000
1001.634615,0.039174,0.001000,0.001000,0.001000,0.001000,0.001000
1001.653846,0.038341,0.001000,0.001000,0.001000,0.001000,0.001000
1001.673077,0.037482,0.001000,0.001000,0.001000,0.001000,0.001000
1001.692308,0.036596,0.001000,0.001000,0.001000,0.001000,0.001000
1001.711538,0.035685,0.001000,0.001000,0.001000,0.001000,0.001000
1001.730769,0.034749,0.001000,0.001000,0.001000,0.001000,0.001000
1001.750000,0.033789,0.001000,0.001000,0.001000,0.001000,0.001000
1001.769231,0.032806,0.001000,0.001000,0.001000,0.001000,0.001000
1001.788462,0.031800,0.001000,0.001000,0.001000,0.001000,0.001000
1001.807692,0.030771,0.001000,0.001000,0.001000,0.001000,0.001000
1001.826923,0.029722,0.001000,0.001000,0.001000,0.001000,0.001000
1001.846154,0.028651,0.001000,0.001000,0.001000,0.001000,0.001000
1001.865385,0.027561,0.001000,0.001000,0.001000,0.001000,0.001000
1001.884615,0.026451,0.001000,0.001000,0.001000,0.001000,0.001000
1001.903846,0.025323,0.001000,0.001000,0.001000,0.001000,0.001000
1001.923077,0.024178,0.001000,0.001000,0.001000,0.001000,0.001000
1001.942308,0.023016,0.001000,0.001000,0.001000,0.001000,0.001000
1001.961538,0.021837,0.001000,0.001000,0.001000,0.001000,0.001000
1001.980769,0.020644,0.001000,0.001000,0.001000,0.001000,0.001000
1002.000000,0.019436,0.001000,0.001000,0.001000,0.001000,0.001000
1002.019231,0.018215,0.001000,0.001000,0.001000,0.001000,0.001000
1002.038462,0.016980,0.001000,0.001000,0.001000,0.001000,0.001000
1002.057692,0.015735,0.001000,0.001000,0.001000,0.001000,0.001000
1002.076923,0.014478,0.001000,0.001000,0.001000,0.001000,0.001000
1002.096154,0.013211,0.001000,0.001000,0.001000,0.001000,0.001000
1002.115385,0.011935,0.001000,0.001000,0.001000,0.001000,0.001000
1002.134615,0.010651,0.001000,0.001000,0.001000,0.001000,0.001000
1002.153846,0.009359,0.001000,0.001000,0.001000,0.001000,0.001000
1002.173077,0.008061,0.001000,0.001000,0.001000,0.001000,0.001000
1002.192308,0.006757,0.001000,0.001000,0.001000,0.001000,0.001000
1002.211538,0.005448,0.001000,0.001000,0.001000,0.001000,0.001000
1002.230769,0.004136,0.001000,0.001000,0.001000,0.001000,0.001000
1002.250000,0.002821,0.001000,0.001000,0.001000,0.001000,0.001000
1002.269231,0.001504,0.001000,0.001000,0.001000,0.001000,0.001000
1002.288462,0.000185,0.001000,0.001000,0.001000,0.001000,0.001000
1002.307692,-0.001133,0.001000,0.001000,0.001000,0.001000,0.001000
1002.326923,-0.002451,0.001000,0.001000,0.001000,0.001000,0.001000
1002.346154,-0.003766,0.001000,0.001000,0.001000,0.001000,0.001000
1002.365385,-0.005080,0.001000,0.001000,0.001000,0.001000,0.001000
1002.384615,-0.006389,0.001000,0.001000,0.001000,0.001000,0.001000
1002.403846,-0.007695,0.001000,0.001000,0.001000,0.001000,0.001000
1002.423077,-0.008994,0.001000,0.001000,0.001000,0.001000,0.001000
1002.442308,-0.010288,0.001000,0.001000,0.001000,0.001000,0.001000
1002.461538,-0.011575,0.001000,0.001000,0.001000,0.001000,0.001000
1002.480769,-0.012853,0.001000,0.001000,0.001000,0.001000,0.001000
1002.500000,-0.014123,0.001000,0.001000,0.001000,0.001000,0.001000
1002.519231,-0.015382,0.001000,0.001000,0.001000,0.001000,0.001000
1002.538462,-0.016631,0.001000,0.001000,0.001000,0.001000,0.001000
1002.557692,-0.017869,0.001000,0.001000,0.001000,0.001000,0.001000
1002.576923,-0.019094,0.001000,0.001000,0.001000,0.001000,0.001000
1002.596154,-0.020305,0.001000,0.001000,0.001000,0.001000,0.001000
1002.615385,-0.021503,0.001000,0.001000,0.001000,0.001000,0.001000
1002.634615,-0.022686,0.001000,0.001000,0.001000,0.001000,0.001000
1002.653846,-0.023853,0.001000,0.001000,0.001000,0.001000,0.001000
1002.673077,-0.025003,0.001000,0.001000,0.001000,0.001000,0.001000
1002.692308,-0.026136,0.001000,0.001000,0.001000,0.001000,0.001000
1002.711538,-0.027251,0.001000,0.001000,0.001000,0.001000,0.001000
1002.730769,-0.028347,0.001000,0.001000,0.001000,0.001000,0.001000
1002.750000,-0.029423,0.001000,0.001000,0.001000,0.001000,0.001000
1002.769231,-0.030478,0.001000,0.001000,0.001000,0.001000,0.001000
1002.788462,-0.031513,0.001000,0.001000,0.001000,0.001000,0.001000
1002.807692,-0.032525,0.001000,0.001000,0.001000,0.001000,0.001000
1002.826923,-0.033515,0.001000,0.001000,0.001000,0.001000,0.001000
1002.846154,-0.034482,0.001000,0.001000,0.001000,0.001000,0.001000
1002.865385,-0.035424,0.001000,0.001000,0.001000,0.001000,0.001000
1002.884615,-0.036343,0.001000,0.001000,0.001000,0.001000,0.001000
1002.903846,-0.037235,0.001000,0.001000,0.001000,0.001000,0.001000
1002.923077,-0.038102,0.001000,0.001000,0.001000,0.001000,0.001000
1002.942308,-0.038943,0.001000,0.001000,0.001000,0.001000,0.001000
1002.961538,-0.039756,0.001000,0.001000,0.001000,0.001000,0.001000
1002.980769,-0.040541,0.001000,0.001000,0.001000,0.001000,0.001000
1003.000000,-0.041299,0.001000,0.001000,0.001000,0.001000,0.001000
1003.019231,-0.042028,0.001000,0.001000,0.001000,0.001000,0.001000
1003.038462,-0.042727,0.001000,0.001000,0.001000,0.001000,0.001000
1003.057692,-0.043397,0.001000,0.001000,0.001000,0.001000,0.001000
1003.076923,-0.044037,0.001000,0.001000,0.001000,0.001000,0.001000
1003.096154,-0.044646,0.001000,0.001000,0.001000,0.001000,0.001000
1003.115385,-0.045224,0.001000,0.001000,0.001000,0.001000,0.001000
1003.134615,-0.045770,0.001000,0.001000,0.001000,0.001000,0.001000
1003.153846,-0.046285,0.001000,0.001000,0.001000,0.001000,0.001000
1003.173077,-0.046768,0.001000,0.001000,0.001000,0.001000,0.001000
1003.192308,-0.047218,0.001000,0.001000,0.001000,0.001000,0.001000
1003.211538,-0.047635,0.001000,0.001000,0.001000,0.001000,0.001000
1003.230769,-0.048019,0.001000,0.001000,0.001000,0.001000,0.001000
1003.250000,-0.048370,0.001000,0.001000,0.001000,0.001000,0.001000
1003.269231,-0.048687,0.001000,0.001000,0.001000,0.001000,0.001000
1003.288462,-0.048970,0.001000,0.001000,0.001000,0.001000,0.001000
1003.307692,-0.049219,0.001000,0.001000,0.001000,0.001000,0.001000
1003.326923,-0.049434,0.001000,0.001000,0.001000,0.001000,0.001000
1003.346154,-0.049615,0.001000,0.001000,0.001000,0.001000,0.001000
1003.365385,-0.049761,0.001000,0.001000,0.001000,0.001000,0.001000
1003.384615,-0.049872,0.001000,0.001000,0.001000,0.001000,0.001000
1003.403846,-0.049949,0.001000,0.001000,0.001000,0.001000,0.001000
1003.423077,-0.049991,0.001000,0.001000,0.001000,0.001000,0.001000
1003.442308,-0.049999,0.001000,0.001000,0.001000,0.001000,0.001000
1003.461538,-0.049971,0.001000,0.001000,0.001000,0.001000,0.001000
1003.480769,-0.049909,0.001000,0.001000,0.001000,0.001000,0.001000
1003.500000,-0.049812,0.001000,0.001000,0.001000,0.001000,0.001000
1003.519231,-0.049681,0.001000,0.001000,0.001000,0.001000,0.001000
1003.538462,-0.049515,0.001000,0.001000,0.001000,0.001000,0.001000
1003.557692,-0.049314,0.001000,0.001000,0.001000,0.001000,0.001000
1003.576923,-0.049079,0.001000,0.001000,0.001000,0.001000,0.001000
1003.596154,-0.048810,0.001000,0.001000,0.001000,0.001000,0.001000
1003.615385,-0.048508,0.001000,0.001000,0.001000,0.001000,0.001000
1003.634615,-0.048171,0.001000,0.001000,0.001000,0.001000,0.001000
1003.653846,-0.047801,0.001000,0.001000,0.001000,0.001000,0.001000
1003.673077,-0.047398,0.001000,0.001000,0.001000,0.001000,0.001000
1003.692308,-0.046961,0.001000,0.001000,0.001000,0.001000,0.001000
1003.711538,-0.046493,0.001000,0.001000,0.001000,0.001000,0.001000
1003.730769,-0.045991,0.001000,0.001000,0.001000,0.001000,0.001000
1003.750000,-0.045458,0.001000,0.001000,0.001000,0.001000,0.001000
1003.769231,-0.044893,0.001000,0.001000,0.001000,0.001000,0.001000
1003.788462,-0.044297,0.001000,0.001000,0.001000,0.001000,0.001000
1003.807692,-0.043671,0.001000,0.001000,0.001000,0.001000,0.001000
1003.826923,-0.043013,0.001000,0.001000,0.001000,0.001000,0.001000
1003.846154,-0.042326,0.001000,0.001000,0.001000,0.001000,0.001000
1003.865385,-0.041610,0.001000,0.001000,0.001000,0.001000,0.001000
1003.884615,-0.040864,0.001000,0.001000,0.001000,0.001000,0.001000
1003.903846,-0.040091,0.001000,0.001000,0.001000,0.001000,0.001000
1003.923077,-0.039289,0.001000,0.001000,0.001000,0.001000,0.001000
1003.942308,-0.038460,0.001000,0.001000,0.001000,0.001000,0.001000
1003.961538,-0.037604,0.001000,0.001000,0.001000,0.001000,0.001000
1003.980769,-0.036722,0.001000,0.001000,0.001000,0.001000,0.001000
1004.000000,-0.035815,0.001000,0.001000,0.001000,0.001000,0.001000
1004.019231,-0.034882,0.001000,0.001000,0.001000,0.001000,0.001000
1004.038462,-0.033926,0.001000,0.001000,0.001000,0.001000,0.001000
1004.057692,-0.032946,0.001000,0.001000,0.001000,0.001000,0.001000
1004.076923,-0.031943,0.001000,0.001000,0.001000,0.001000,0.001000
1004.096154,-0.030917,0.001000,0.001000,0.001000,0.001000,0.001000
1004.115385,-0.029870,0.001000,0.001000,0.001000,0.001000,0.001000
1004.134615,-0.028803,0.001000,0.001000,0.001000,0.001000,0.001000
1004.153846,-0.027715,0.001000,0.001000,0.001000,0.001000,0.001000
1004.173077,-0.026608,0.001000,0.001000,0.001000,0.001000,0.001000
1004.192308,-0.025483,0.001000,0.001000,0.001000,0.001000,0.001000
1004.211538,-0.024340,0.001000,0.001000,0.001000,0.001000,0.001000
1004.230769,-0.023180,0.001000,0.001000,0.001000,0.001000,0.001000
1004.250000,-0.022004,0.001000,0.001000,0.001000,0.001000,0.001000
1004.269231,-0.020812,0.001000,0.001000,0.001000,0.001000,0.001000
1004.288462,-0.019607,0.001000,0.001000,0.001000,0.001000,0.001000
1004.307692,-0.018387,0.001000,0.001000,0.001000,0.001000,0.001000
1004.326923,-0.017155,0.001000,0.001000,0.001000,0.001000,0.001000
1004.346154,-0.015910,0.001000,0.001000,0.001000,0.001000,0.001000
1004.365385,-0.014655,0.001000,0.001000,0.001000,0.001000,0.001000
1004.384615,-0.013390,0.001000,0.001000,0.001000,0.001000,0.001000
1004.403846,-0.012115,0.001000,0.001000,0.001000,0.001000,0.001000
1004.423077,-0.010832,0.001000,0.001000,0.001000,0.001000,0.001000
1004.442308,-0.009541,0.001000,0.001000,0.001000,0.001000,0.001000
1004.461538,-0.008244,0.001000,0.001000,0.001000,0.001000,0.001000
1004.480769,-0.006940,0.001000,0.001000,0.001000,0.001000,0.001000
1004.500000,-0.005633,0.001000,0.001000,0.001000,0.001000,0.001000
1004.519231,-0.004321,0.001000,0.001000,0.001000,0.001000,0.001000
1004.538462,-0.003006,0.001000,0.001000,0.001000,0.001000,0.001000
1004.557692,-0.001689,0.001000,0.001000,0.001000,0.001000,0.001000
1004.576923,-0.000371,0.001000,0.001000,0.001000,0.001000,0.001000
1004.596154,0.000948,0.001000,0.001000,0.001000,0.001000,0.001000
1004.615385,0.002265,0.001000,0.001000,0.001000,0.001000,0.001000
1004.634615,0.003581,0.001000,0.001000,0.001000,0.001000,0.001000
1004.653846,0.004895,0.001000,0.001000,0.001000,0.001000,0.001000
1004.673077,0.006205,0.001000,0.001000,0.001000,0.001000,0.001000
1004.692308,0.007511,0.001000,0.001000,0.001000,0.001000,0.001000
1004.711538,0.008812,0.001000,0.001000,0.001000,0.001000,0.001000
1004.730769,0.010107,0.001000,0.001000,0.001000,0.001000,0.001000
1004.750000,0.011394,0.001000,0.001000,0.001000,0.001000,0.001000
1004.769231,0.012674,0.001000,0.001000,0.001000,0.001000,0.001000
1004.788462,0.013945,0.001000,0.001000,0.001000,0.001000,0.001000
1004.807692,0.015206,0.001000,0.001000,0.001000,0.001000,0.001000
1004.826923,0.016456,0.001000,0.001000,0.001000,0.001000,0.001000
1004.846154,0.017695,0.001000,0.001000,0.001000,0.001000,0.001000
1004.865385,0.018922,0.001000,0.001000,0.001000,0.001000,0.001000
1004.884615,0.020136,0.001000,0.001000,0.001000,0.001000,0.001000
1004.903846,0.021336,0.001000,0.001000,0.001000,0.001000,0.001000
1004.923077,0.022520,0.001000,0.001000,0.001000,0.001000,0.001000
1004.942308,0.023690,0.001000,0.001000,0.001000,0.001000,0.001000
1004.961538,0.024842,0.001000,0.001000,0.001000,0.001000,0.001000
1004.980769,0.025978,0.001000,0.001000,0.001000,0.001000,0.001000
1005.000000,0.027095,0.001000,0.001000,0.001000,0.001000,0.001000
1005.019231,0.028194,0.001000,0.001000,0.001000,0.001000,0.001000
1005.038462,0.029273,0.001000,0.001000,0.001000,0.001000,0.001000
1005.057692,0.030331,0.001000,0.001000,0.001000,0.001000,0.001000
1005.076923,0.031369,0.001000,0.001000,0.001000,0.001000,0.001000
1005.096154,0.032384,0.001000,0.001000,0.001000,0.001000,0.001000
1005.115385,0.033377,0.001000,0.001000,0.001000,0.001000,0.001000
1005.134615,0.034347,0.001000,0.001000,0.001000,0.001000,0.001000
1005.153846,0.035293,0.001000,0.001000,0.001000,0.001000,0.001000
1005.173077,0.036215,0.001000,0.001000,0.001000,0.001000,0.001000
1005.192308,0.037111,0.001000,0.001000,0.001000,0.001000,0.001000
1005.211538,0.037982,0.001000,0.001000,0.001000,0.001000,0.001000
1005.230769,0.038826,0.001000,0.001000,0.001000,0.001000,0.001000
1005.250000,0.039643,0.001000,0.001000,0.001000,0.001000,0.001000
1005.269231,0.040433,0.001000,0.001000,0.001000,0.001000,0.001000
1005.288462,0.041194,0.001000,0.001000,0.001000,0.001000,0.001000
1005.307692,0.041927,0.001000,0.001000,0.001000,0.001000,0.001000
1005.326923,0.042631,0.001000,0.001000,0.001000,0.001000,0.001000
1005.346154,0.043305,0.001000,0.001000,0.001000,0.001000,0.001000
1005.365385,0.043949,0.001000,0.001000,0.001000,0.001000,0.001000
1005.384615,0.044562,0.001000,0.001000,0.001000,0.001000,0.001000
1005.403846,0.045144,0.001000,0.001000,0.001000,0.001000,0.001000
1005.423077,0.045695,0.001000,0.001000,0.001000,0.001000,0.001000
1005.442308,0.046215,0.001000,0.001000,0.001000,0.001000,0.001000
1005.461538,0.046702,0.001000,0.001000,0.001000,0.001000,0.001000
1005.480769,0.047156,0.001000,0.001000,0.001000,0.001000,0.001000
1005.500000,0.047578,0.001000,0.001000,0.001000,0.001000,0.001000
1005.519231,0.047967,0.001000,0.001000,0.001000,0.001000,0.001000
1005.538462,0.048322,0.001000,0.001000,0.001000,0.001000,0.001000
1005.557692,0.048644,0.001000,0.001000,0.001000,0.001000,0.001000
1005.576923,0.048932,0.001000,0.001000,0.001000,0.001000,0.001000
1005.596154,0.049186,0.001000,0.001000,0.001000,0.001000,0.001000
1005.615385,0.049406,0.001000,0.001000,0.001000,0.001000,0.001000
1005.634615,0.049591,0.001000,0.001000,0.001000,0.001000,0.001000
1005.653846,0.049742,0.001000,0.001000,0.001000,0.001000,0.001000
1005.673077,0.049859,0.001000,0.001000,0.001000,0.001000,0.001000
1005.692308,0.049940,0.001000,0.001000,0.001000,0.001000,0.001000
1005.711538,0.049987,0.001000,0.001000,0.001000,0.001000,0.001000
1005.730769,0.050000,0.001000,0.001000,0.001000,0.001000,0.001000
1005.750000,0.049977,0.001000,0.001000,0.001000,0.001000,0.001000
1005.769231,0.049920,0.001000,0.001000,0.001000,0.001000,0.001000
1005.788462,0.049828,0.001000,0.001000,0.001000,0.001000,0.001000
1005.807692,0.049701,0.001000,0.001000,0.001000,0.001000,0.001000
1005.826923,0.049540,0.001000,0.001000,0.001000,0.001000,0.001000
1005.846154,0.049344,0.001000,0.001000,0.001000,0.001000,0.001000
1005.865385,0.049114,0.001000,0.001000,0.001000,0.001000,0.001000
1005.884615,0.048850,0.001000,0.001000,0.001000,0.001000,0.001000
1005.903846,0.048552,0.001000,0.001000,0.001000,0.001000,0.001000
1005.923077,0.048220,0.001000,0.001000,0.001000,0.001000,0.001000
1005.942308,0.047855,0.001000,0.001000,0.001000,0.001000,0.001000
1005.961538,0.047456,0.001000,0.001000,0.001000,0.001000,0.001000
1005.980769,0.047025,0.001000,0.001000,0.001000,0.001000,0.001000
1006.000000,0.046560,0.001000,0.001000,0.001000,0.001000,0.001000
1006.019231,0.046064,0.001000,0.001000,0.001000,0.001000,0.001000
1006.038462,0.045535,0.001000,0.001000,0.001000,0.001000,0.001000
1006.057692,0.044975,0.001000,0.001000,0.001000,0.001000,0.001000
1006.076923,0.044383,0.001000,0.001000,0.001000,0.001000,0.001000
1006.096154,0.043761,0.001000,0.001000,0.001000,0.001000,0.001000
1006.115385,0.043108,0.001000,0.001000,0.001000,0.001000,0.001000
1006.134615,0.042425,0.001000,0.001000,0.001000,0.001000,0.001000
1006.153846,0.041712,0.001000,0.001000,0.001000,0.001000,0.001000
1006.173077,0.040971,0.001000,0.001000,0.001000,0.001000,0.001000
1006.192308,0.040201,0.001000,0.001000,0.001000,0.001000,0.001000
1006.211538,0.039403,0.001000,0.001000,0.001000,0.001000,0.001000
1006.230769,0.038578,0.001000,0.001000,0.001000,0.001000,0.001000
1006.250000,0.037726,0.001000,0.001000,0.001000,0.001000,0.001000
1006.269231,0.036848,0.001000,0.001000,0.001000,0.001000,0.001000
1006.288462,0.035944,0.001000,0.001000,0.001000,0.001000,0.001000
1006.307692,0.035015,0.001000,0.001000,0.001000,0.001000,0.001000
1006.326923,0.034062,0.001000,0.001000,0.001000,0.001000,0.001000
1006.346154,0.033085,0.001000,0.001000,0.001000,0.001000,0.001000
1006.365385,0.032085,0.001000,0.001000,0.001000,0.001000,0.001000
1006.384615,0.031063,0.001000,0.001000,0.001000,0.001000,0.001000
1006.403846,0.030019,0.001000,0.001000,0.001000,0.001000,0.001000
1006.423077,0.028954,0.001000,0.001000,0.001000,0.001000,0.001000
1006.442308,0.027869,0.001000,0.001000,0.001000,0.001000,0.001000
1006.461538,0.026765,0.001000,0.001000,0.001000,0.001000,0.001000
1006.480769,0.025642,0.001000,0.001000,0.001000,0.001000,0.001000
1006.500000,0.024502,0.001000,0.001000,0.001000,0.001000,0.001000
1006.519231,0.023344,0.001000,0.001000,0.001000,0.001000,0.001000
1006.538462,0.022170,0.001000,0.001000,0.001000,0.001000,0.001000
1006.557692,0.020981,0.001000,0.001000,0.001000,0.001000,0.001000
1006.576923,0.019777,0.001000,0.001000,0.001000,0.001000,0.001000
1006.596154,0.018559,0.001000,0.001000,0.001000,0.001000,0.001000
1006.615385,0.017329,0.001000,0.001000,0.001000,0.001000,0.001000
1006.634615,0.016086,0.001000,0.001000,0.001000,0.001000,0.001000
1006.653846,0.014832,0.001000,0.001000,0.001000,0.001000,0.001000
1006.673077,0.013568,0.001000,0.001000,0.001000,0.001000,0.001000
1006.692308,0.012295,0.001000,0.001000,0.001000,0.001000,0.001000
1006.711538,0.011013,0.001000,0.001000,0.001000,0.001000,0.001000
1006.730769,0.009723,0.001000,0.001000,0.001000,0.001000,0.001000
1006.750000,0.008426,0.001000,0.001000,0.001000,0.001000,0.001000
1006.769231,0.007124,0.001000,0.001000,0.001000,0.001000,0.001000
1006.788462,0.005817,0.001000,0.001000,0.001000,0.001000,0.001000
1006.807692,0.004505,0.001000,0.001000,0.001000,0.001000,0.001000
1006.826923,0.003191,0.001000,0.001000,0.001000,0.001000,0.001000
1006.846154,0.001874,0.001000,0.001000,0.001000,0.001000,0.001000
1006.865385,0.000556,0.001000,0.001000,0.001000,0.001000,0.001000
1006.884615,-0.000762,0.001000,0.001000,0.001000,0.001000,0.001000
1006.903846,-0.002080,0.001000,0.001000,0.001000,0.001000,0.001000
1006.923077,-0.003397,0.001000,0.001000,0.001000,0.001000,0.001000
1006.942308,-0.004711,0.001000,0.001000,0.001000,0.001000,0.001000
1006.961538,-0.006021,0.001000,0.001000,0.001000,0.001000,0.001000
1006.980769,-0.007328,0.001000,0.001000,0.001000,0.001000,0.001000
1007.000000,-0.008629,0.001000,0.001000,0.001000,0.001000,0.001000
1007.019231,-0.009925,0.001000,0.001000,0.001000,0.001000,0.001000
1007.038462,-0.011214,0.001000,0.001000,0.001000,0.001000,0.001000
1007.057692,-0.012494,0.001000,0.001000,0.001000,0.001000,0.001000
1007.076923,-0.013767,0.001000,0.001000,0.001000,0.001000,0.001000
1007.096154,-0.015029,0.001000,0.001000,0.001000,0.001000,0.001000
1007.115385,-0.016281,0.001000,0.001000,0.001000,0.001000,0.001000
1007.134615,-0.017522,0.001000,0.001000,0.001000,0.001000,0.001000
1007.153846,-0.018751,0.001000,0.001000,0.001000,0.001000,0.001000
1007.173077,-0.019966,0.001000,0.001000,0.001000,0.001000,0.001000
1007.192308,-0.021168,0.001000,0.001000,0.001000,0.001000,0.001000
1007.211538,-0.022355,0.001000,0.001000,0.001000,0.001000,0.001000
1007.230769,-0.023526,0.001000,0.001000,0.001000,0.001000,0.001000
1007.250000,-0.024681,0.001000,0.001000,0.001000,0.001000,0.001000
1007.269231,-0.025819,0.001000,0.001000,0.001000,0.001000,0.001000
1007.288462,-0.026939,0.001000,0.001000,0.001000,0.001000,0.001000
1007.307692,-0.028040,0.001000,0.001000,0.001000,0.001000,0.001000
1007.326923,-0.029122,0.001000,0.001000,0.001000,0.001000,0.001000
1007.346154,-0.030184,0.001000,0.001000,0.001000,0.001000,0.001000
1007.365385,-0.031224,0.001000,0.001000,0.001000,0.001000,0.001000
1007.384615,-0.032243,0.001000,0.001000,0.001000,0.001000,0.001000
1007.403846,-0.033239,0.001000,0.001000,0.001000,0.001000,0.001000
1007.423077,-0.034212,0.001000,0.001000,0.001000,0.001000,0.001000
1007.442308,-0.035162,0.001000,0.001000,0.001000,0.001000,0.001000
1007.461538,-0.036087,0.001000,0.001000,0.001000,0.001000,0.001000
1007.480769,-0.036987,0.001000,0.001000,0.001000,0.001000,0.001000
1007.500000,-0.037861,0.001000,0.001000,0.001000,0.001000,0.001000
1007.519231,-0.038709,0.001000,0.001000,0.001000,0.001000,0.001000
1007.538462,-0.039530,0.001000,0.001000,0.001000,0.001000,0.001000
1007.557692,-0.040323,0.001000,0.001000,0.001000,0.001000,0.001000
1007.576923,-0.041089,0.001000,0.001000,0.001000,0.001000,0.001000
1007.596154,-0.041826,0.001000,0.001000,0.001000,0.001000,0.001000
1007.615385,-0.042534,0.001000,0.001000,0.001000,0.001000,0.001000
1007.634615,-0.043212,0.001000,0.001000,0.001000,0.001000,0.001000
1007.653846,-0.043860,0.001000,0.001000,0.001000,0.001000,0.001000
1007.673077,-0.044478,0.001000,0.001000,0.001000,0.001000,0.001000
1007.692308,-0.045064,0.001000,0.001000,0.001000,0.001000,0.001000
1007.711538,-0.045620,0.001000,0.001000,0.001000,0.001000,0.001000
1007.730769,-0.046144,0.001000,0.001000,0.001000,0.001000,0.001000
1007.750000,-0.046635,0.001000,0.001000,0.001000,0.001000,0.001000
1007.769231,-0.047094,0.001000,0.001000,0.001000,0.001000,0.001000
1007.788462,-0.047521,0.001000,0.001000,0.001000,0.001000,0.001000
1007.807692,-0.047914,0.001000,0.001000,0.001000,0.001000,0.001000
1007.826923,-0.048274,0.001000,0.001000,0.001000,0.001000,0.001000
1007.846154,-0.048601,0.001000,0.001000,0.001000,0.001000,0.001000
1007.865385,-0.048894,0.001000,0.001000,0.001000,0.001000,0.001000
1007.884615,-0.049153,0.001000,0.001000,0.001000,0.001000,0.001000
1007.903846,-0.049377,0.001000,0.001000,0.001000,0.001000,0.001000
1007.923077,-0.049567,0.001000,0.001000,0.001000,0.001000,0.001000
1007.942308,-0.049723,0.001000,0.001000,0.001000,0.001000,0.001000
1007.961538,-0.049844,0.001000,0.001000,0.001000,0.001000,0.001000
1007.980769,-0.049931,0.001000,0.001000,0.001000,0.001000,0.001000
1008.000000,-0.049983,0.001000,0.001000,0.001000,0.001000,0.001000
1008.019231,-0.050000,0.001000,0.001000,0.001000,0.001000,0.001000
1008.038462,-0.049982,0.001000,0.001000,0.001000,0.001000,0.001000
1008.057692,-0.049930,0.001000,0.001000,0.001000,0.001000,0.001000
1008.076923,-0.049843,0.001000,0.001000,0.001000,0.001000,0.001000
1008.096154,-0.049721,0.001000,0.001000,0.001000,0.001000,0.001000
1008.115385,-0.049565,0.001000,0.001000,0.001000,0.001000,0.001000
1008.134615,-0.049374,0.001000,0.001000,0.001000,0.001000,0.001000
1008.153846,-0.049149,0.001000,0.001000,0.001000,0.001000,0.001000
1008.173077,-0.048889,0.001000,0.001000,0.001000,0.001000,0.001000
1008.192308,-0.048596,0.001000,0.001000,0.001000,0.001000,0.001000
1008.211538,-0.048269,0.001000,0.001000,0.001000,0.001000,0.001000
1008.230769,-0.047908,0.001000,0.001000,0.001000,0.001000,0.001000
1008.250000,-0.047514,0.001000,0.001000,0.001000,0.001000,0.001000
1008.269231,-0.047087,0.001000,0.001000,0.001000,0.001000,0.001000
1008.288462,-0.046628,0.001000,0.001000,0.001000,0.001000,0.001000
1008.307692,-0.046136,0.001000,0.001000,0.001000,0.001000,0.001000
1008.326923,-0.045611,0.001000,0.001000,0.001000,0.001000,0.001000
1008.346154,-0.045055,0.001000,0.001000,0.001000,0.001000,0.001000
1008.365385,-0.044468,0.001000,0.001000,0.001000,0.001000,0.001000
1008.384615,-0.043850,0.001000,0.001000,0.001000,0.001000,0.001000
1008.403846,-0.043201,0.001000,0.001000,0.001000,0.001000,0.001000
1008.423077,-0.042523,0.001000,0.001000,0.001000,0.001000,0.001000
1008.442308,-0.041814,0.001000,0.001000,0.001000,0.001000,0.001000
1008.461538,-0.041077,0.001000,0.001000,0.001000,0.001000,0.001000
1008.480769,-0.040311,0.001000,0.001000,0.001000,0.001000,0.001000
1008.500000,-0.039517,0.001000,0.001000,0.001000,0.001000,0.001000
1008.519231,-0.038696,0.001000,0.001000,0.001000,0.001000,0.001000
1008.538462,-0.037847,0.001000,0.001000,0.001000,0.001000,0.001000
1008.557692,-0.036973,0.001000,0.001000,0.001000,0.001000,0.001000
1008.576923,-0.036073,0.001000,0.001000,0.001000,0.001000,0.001000
1008.596154,-0.035147,0.001000,0.001000,0.001000,0.001000,0.001000
1008.615385,-0.034197,0.001000,0.001000,0.001000,0.001000,0.001000
1008.634615,-0.033224,0.001000,0.001000,0.001000,0.001000,0.001000
1008.653846,-0.032227,0.001000,0.001000,0.001000,0.001000,0.001000
1008.673077,-0.031208,0.001000,0.001000,0.001000,0.001000,0.001000
1008.692308,-0.030167,0.001000,0.001000,0.001000,0.001000,0.001000
1008.711538,-0.029105,0.001000,0.001000,0.001000,0.001000,0.001000
1008.730769,-0.028023,0.001000,0.001000,0.001000,0.001000,0.001000
1008.750000,-0.026922,0.001000,0.001000,0.001000,0.001000,0.001000
1008.769231,-0.025801,0.001000,0.001000,0.001000,0.001000,0.001000
1008.788462,-0.024663,0.001000,0.001000,0.001000,0.001000,0.001000
1008.807692,-0.023508,0.001000,0.001000,0.001000,0.001000,0.001000
1008.826923,-0.022336,0.001000,0.001000,0.001000,0.001000,0.001000
1008.846154,-0.021149,0.001000,0.001000,0.001000,0.001000,0.001000
1008.865385,-0.019947,0.001000,0.001000,0.001000,0.001000,0.001000
1008.884615,-0.018731,0.001000,0.001000,0.001000,0.001000,0.001000
1008.903846,-0.017503,0.001000,0.001000,0.001000,0.001000,0.001000
1008.923077,-0.016262,0.001000,0.001000,0.001000,0.001000,0.001000
1008.942308,-0.015009,0.001000,0.001000,0.001000,0.001000,0.001000
1008.961538,-0.013747,0.001000,0.001000,0.001000,0.001000,0.001000
1008.980769,-0.012474,0.001000,0.001000,0.001000,0.001000,0.001000
1009.000000,-0.011193,0.001000,0.001000,0.001000,0.001000,0.001000
1009.019231,-0.009905,0.001000,0.001000,0.001000,0.001000,0.001000
1009.038462,-0.008609,0.001000,0.001000,0.001000,0.001000,0.001000
1009.057692,-0.007307,0.001000,0.001000,0.001000,0.001000,0.001000
1009.076923,-0.006001,0.001000,0.001000,0.001000,0.001000,0.001000
1009.096154,-0.004690,0.001000,0.001000,0.001000,0.001000,0.001000
1009.115385,-0.003376,0.001000,0.001000,0.001000,0.001000,0.001000
1009.134615,-0.002059,0.001000,0.001000,0.001000,0.001000,0.001000
1009.153846,-0.000742,0.001000,0.001000,0.001000,0.001000,0.001000
1009.173077,0.000577,0.001000,0.001000,0.001000,0.001000,0.001000
1009.192308,0.001895,0.001000,0.001000,0.001000,0.001000,0.001000
1009.211538,0.003212,0.001000,0.001000,0.001000,0.001000,0.001000
1009.230769,0.004526,0.001000,0.001000,0.001000,0.001000,0.001000
1009.250000,0.005837,0.001000,0.001000,0.001000,0.001000,0.001000
1009.269231,0.007145,0.001000,0.001000,0.001000,0.001000,0.001000
1009.288462,0.008447,0.001000,0.001000,0.001000,0.001000,0.001000
1009.307692,0.009743,0.001000,0.001000,0.001000,0.001000,0.001000
1009.326923,0.011033,0.001000,0.001000,0.001000,0.001000,0.001000
1009.346154,0.012315,0.001000,0.001000,0.001000,0.001000,0.001000
1009.365385,0.013588,0.001000,0.001000,0.001000,0.001000,0.001000
1009.384615,0.014852,0.001000,0.001000,0.001000,0.001000,0.001000
1009.403846,0.016106,0.001000,0.001000,0.001000,0.001000,0.001000
1009.423077,0.017348,0.001000,0.001000,0.001000,0.001000,0.001000
1009.442308,0.018579,0.001000,0.001000,0.001000,0.001000,0.001000
1009.461538,0.019796,0.001000,0.001000,0.001000,0.001000,0.001000
1009.480769,0.021000,0.001000,0.001000,0.001000,0.001000,0.001000
1009.500000,0.022189,0.001000,0.001000,0.001000,0.001000,0.001000
1009.519231,0.023362,0.001000,0.001000,0.001000,0.001000,0.001000
1009.538462,0.024520,0.001000,0.001000,0.001000,0.001000,0.001000
1009.557692,0.025660,0.001000,0.001000,0.001000,0.001000,0.001000
1009.576923,0.026783,0.001000,0.001000,0.001000,0.001000,0.001000
1009.596154,0.027887,0.001000,0.001000,0.001000,0.001000,0.001000
1009.615385,0.028971,0.001000,0.001000,0.001000,0.001000,0.001000
1009.634615,0.030035,0.001000,0.001000,0.001000,0.001000,0.001000
1009.653846,0.031079,0.001000,0.001000,0.001000,0.001000,0.001000
1009.673077,0.032101,0.001000,0.001000,0.001000,0.001000,0.001000
1009.692308,0.033100,0.001000,0.001000,0.001000,0.001000,0.001000
1009.711538,0.034077,0.001000,0.001000,0.001000,0.001000,0.001000
1009.730769,0.035030,0.001000,0.001000,0.001000,0.001000,0.001000
1009.750000,0.035958,0.001000,0.001000,0.001000,0.001000,0.001000
1009.769231,0.036862,0.001000,0.001000,0.001000,0.001000,0.001000
1009.788462,0.037740,0.001000,0.001000,0.001000,0.001000,0.001000
1009.807692,0.038591,0.001000,0.001000,0.001000,0.001000,0.001000
1009.826923,0.039416,0.001000,0.001000,0.001000,0.001000,0.001000
1009.846154,0.040213,0.001000,0.001000,0.001000,0.001000,0.001000
1009.865385,0.040983,0.001000,0.001000,0.001000,0.001000,0.001000
1009.884615,0.041724,0.001000,0.001000,0.001000,0.001000,0.001000
1009.903846,0.042436,0.001000,0.001000,0.001000,0.001000,0.001000
1009.923077,0.043118,0.001000,0.001000,0.001000,0.001000,0.001000
1009.942308,0.043771,0.001000,0.001000,0.001000,0.001000,0.001000
1009.961538,0.044393,0.001000,0.001000,0.001000,0.001000,0.001000
1009.980769,0.044984,0.001000,0.001000,0.001000,0.001000,0.001000
1010.000000,0.045544,0.001000,0.001000,0.001000,0.001000,0.001000
1010.019231,0.046072,0.001000,0.001000,0.001000,0.001000,0.001000
1010.038462,0.046568,0.001000,0.001000,0.001000,0.001000,0.001000
1010.057692,0.047032,0.001000,0.001000,0.001000,0.001000,0.001000
1010.076923,0.047463,0.001000,0.001000,0.001000,0.001000,0.001000
1010.096154,0.047861,0.001000,0.001000,0.001000,0.001000,0.001000
1010.115385,0.048226,0.001000,0.001000,0.001000,0.001000,0.001000
1010.134615,0.048557,0.001000,0.001000,0.001000,0.001000,0.001000
1010.153846,0.048855,0.001000,0.001000,0.001000,0.001000,0.001000
1010.173077,0.049118,0.001000,0.001000,0.001000,0.001000,0.001000
1010.192308,0.049348,0.001000,0.001000,0.001000,0.001000,0.001000
1010.211538,0.049543,0.001000,0.001000,0.001000,0.001000,0.001000
1010.230769,0.049703,0.001000,0.001000,0.001000,0.001000,0.001000
1010.250000,0.049830,0.001000,0.001000,0.001000,0.001000,0.001000
1010.269231,0.049921,0.001000,0.001000,0.001000,0.001000,0.001000
1010.288462,0.049978,0.001000,0.001000,0.001000,0.001000,0.001000
1010.307692,0.050000,0.001000,0.001000,0.001000,0.001000,0.001000
1010.326923,0.049987,0.001000,0.001000,0.001000,0.001000,0.001000
1010.346154,0.049939,0.001000,0.001000,0.001000,0.001000,0.001000
1010.365385,0.049857,0.001000,0.001000,0.001000,0.001000,0.001000
1010.384615,0.049740,0.001000,0.001000,0.001000,0.001000,0.001000
1010.403846,0.049589,0.001000,0.001000,0.001000,0.001000,0.001000
1010.423077,0.049403,0.001000,0.001000,0.001000,0.001000,0.001000
1010.442308,0.049182,0.001000,0.001000,0.001000,0.001000,0.001000
1010.461538,0.048928,0.001000,0.001000,0.001000,0.001000,0.001000
1010.480769,0.048639,0.001000,0.001000,0.001000,0.001000,0.001000
1010.500000,0.048317,0.001000,0.001000,0.001000,0.001000,0.001000
1010.519231,0.047961,0.001000,0.001000,0.001000,0.001000,0.001000
1010.538462,0.047572,0.001000,0.001000,0.001000,0.001000,0.001000
1010.557692,0.047149,0.001000,0.001000,0.001000,0.001000,0.001000
1010.576923,0.046694,0.001000,0.001000,0.001000,0.001000,0.001000
1010.596154,0.046207,0.001000,0.001000,0.001000,0.001000,0.001000
1010.615385,0.045687,0.001000,0.001000,0.001000,0.001000,0.001000
1010.634615,0.045135,0.001000,0.001000,0.001000,0.001000,0.001000
1010.653846,0.044553,0.001000,0.001000,0.001000,0.001000,0.001000
1010.673077,0.043939,0.001000,0.001000,0.001000,0.001000,0.001000
1010.692308,0.043294,0.001000,0.001000,0.001000,0.001000,0.001000
1010.711538,0.042620,0.001000,0.001000,0.001000,0.001000,0.001000
1010.730769,0.041916,0.001000,0.001000,0.001000,0.001000,0.001000
1010.750000,0.041182,0.001000,0.001000,0.001000,0.001000,0.001000
1010.769231,0.040420,0.001000,0.001000,0.001000,0.001000,0.001000
1010.788462,0.039630,0.001000,0.001000,0.001000,0.001000,0.001000
1010.807692,0.038813,0.001000,0.001000,0.001000,0.001000,0.001000
1010.826923,0.037968,0.001000,0.001000,0.001000,0.001000,0.001000
1010.846154,0.037097,0.001000,0.001000,0.001000,0.001000,0.001000
1010.865385,0.036201,0.001000,0.001000,0.001000,0.001000,0.001000
1010.884615,0.035279,0.001000,0.001000,0.001000,0.001000,0.001000
1010.903846,0.034332,0.001000,0.001000,0.001000,0.001000,0.001000
1010.923077,0.033362,0.001000,0.001000,0.001000,0.001000,0.001000
1010.942308,0.032368,0.001000,0.001000,0.001000,0.001000,0.001000
1010.961538,0.031352,0.001000,0.001000,0.001000,0.001000,0.001000
1010.980769,0.030315,0.001000,0.001000,0.001000,0.001000,0.001000
1011.000000,0.029256,0.001000,0.001000,0.001000,0.001000,0.001000
1011.019231,0.028176,0.001000,0.001000,0.001000,0.001000,0.001000
1011.038462,0.027078,0.001000,0.001000,0.001000,0.001000,0.001000
1011.057692,0.025960,0.001000,0.001000,0.001000,0.001000,0.001000
1011.076923,0.024824,0.001000,0.001000,0.001000,0.001000,0.001000
1011.096154,0.023671,0.001000,0.001000,0.001000,0.001000,0.001000
1011.115385,0.022502,0.001000,0.001000,0.001000,0.001000,0.001000
1011.134615,0.021317,0.001000,0.001000,0.001000,0.001000,0.001000
1011.153846,0.020117,0.001000,0.001000,0.001000,0.001000,0.001000
1011.173077,0.018903,0.001000,0.001000,0.001000,0.001000,0.001000
1011.192308,0.017676,0.001000,0.001000,0.001000,0.001000,0.001000
1011.211538,0.016437,0.001000,0.001000,0.001000,0.001000,0.001000
1011.230769,0.015186,0.001000,0.001000,0.001000,0.001000,0.001000
1011.250000,0.013925,0.001000,0.001000,0.001000,0.001000,0.001000
1011.269231,0.012654,0.001000,0.001000,0.001000,0.001000,0.001000
1011.288462,0.011374,0.001000,0.001000,0.001000,0.001000,0.001000
1011.307692,0.010086,0.001000,0.001000,0.001000,0.001000,0.001000
1011.326923,0.008792,0.001000,0.001000,0.001000,0.001000,0.001000
1011.346154,0.007491,0.001000,0.001000,0.001000,0.001000,0.001000
1011.365385,0.006185,0.001000,0.001000,0.001000,0.001000,0.001000
1011.384615,0.004874,0.001000,0.001000,0.001000,0.001000,0.001000
1011.403846,0.003561,0.001000,0.001000,0.001000,0.001000,0.001000
1011.423077,0.002245,0.001000,0.001000,0.001000,0.001000,0.001000
1011.442308,0.000927,0.001000,0.001000,0.001000,0.001000,0.001000
1011.461538,-0.000392,0.001000,0.001000,0.001000,0.001000,0.001000
1011.480769,-0.001710,0.001000,0.001000,0.001000,0.001000,0.001000
1011.500000,-0.003027,0.001000,0.001000,0.001000,0.001000,0.001000
1011.519231,-0.004341,0.001000,0.001000,0.001000,0.001000,0.001000
1011.538462,-0.005653,0.001000,0.001000,0.001000,0.001000,0.001000
1011.557692,-0.006961,0.001000,0.001000,0.001000,0.001000,0.001000
1011.576923,-0.008264,0.001000,0.001000,0.001000,0.001000,0.001000
1011.596154,-0.009561,0.001000,0.001000,0.001000,0.001000,0.001000
1011.615385,-0.010852,0.001000,0.001000,0.001000,0.001000,0.001000
1011.634615,-0.012135,0.001000,0.001000,0.001000,0.001000,0.001000
1011.653846,-0.013410,0.001000,0.001000,0.001000,0.001000,0.001000
1011.673077,-0.014675,0.001000,0.001000,0.001000,0.001000,0.001000
1011.692308,-0.015930,0.001000,0.001000,0.001000,0.001000,0.001000
1011.711538,-0.017174,0.001000,0.001000,0.001000,0.001000,0.001000
1011.730769,-0.018406,0.001000,0.001000,0.001000,0.001000,0.001000
1011.750000,-0.019626,0.001000,0.001000,0.001000,0.001000,0.001000
1011.769231,-0.020831,0.001000,0.001000,0.001000,0.001000,0.001000
1011.788462,-0.022022,0.001000,0.001000,0.001000,0.001000,0.001000
1011.807692,-0.023198,0.001000,0.001000,0.001000,0.001000,0.001000
1011.826923,-0.024358,0.001000,0.001000,0.001000,0.001000,0.001000
1011.846154,-0.025501,0.001000,0.001000,0.001000,0.001000,0.001000
1011.865385,-0.026626,0.001000,0.001000,0.001000,0.001000,0.001000
1011.884615,-0.027733,0.001000,0.001000,0.001000,0.001000,0.001000
1011.903846,-0.028820,0.001000,0.001000,0.001000,0.001000,0.001000
1011.923077,-0.029887,0.001000,0.001000,0.001000,0.001000,0.001000
1011.942308,-0.030934,0.001000,0.001000,0.001000,0.001000,0.001000
1011.961538,-0.031959,0.001000,0.001000,0.001000,0.001000,0.001000
1011.980769,-0.032961,0.001000,0.001000,0.001000,0.001000,0.001000
1012.000000,-0.033941,0.001000,0.001000,0.001000,0.001000,0.001000
1012.019231,-0.034897,0.001000,0.001000,0.001000,0.001000,0.001000
1012.038462,-0.035829,0.001000,0.001000,0.001000,0.001000,0.001000
1012.057692,-0.036736,0.001000,0.001000,0.001000,0.001000,0.001000
1012.076923,-0.037618,0.001000,0.001000,0.001000,0.001000,0.001000
1012.096154,-0.038473,0.001000,0.001000,0.001000,0.001000,0.001000
1012.115385,-0.039302,0.001000,0.001000,0.001000,0.001000,0.001000
1012.134615,-0.040103,0.001000,0.001000,0.001000,0.001000,0.001000
1012.153846,-0.040876,0.001000,0.001000,0.001000,0.001000,0.001000
1012.173077,-0.041621,0.001000,0.001000,0.001000,0.001000,0.001000
1012.192308,-0.042337,0.001000,0.001000,0.001000,0.001000,0.001000
1012.211538,-0.043024,0.001000,0.001000,0.001000,0.001000,0.001000
1012.230769,-0.043681,0.001000,0.001000,0.001000,0.001000,0.001000
1012.250000,-0.044307,0.001000,0.001000,0.001000,0.001000,0.001000
1012.269231,-0.044903,0.001000,0.001000,0.001000,0.001000,0.001000
1012.288462,-0.045467,0.001000,0.001000,0.001000,0.001000,0.001000
1012.307692,-0.046000,0.001000,0.001000,0.001000,0.001000,0.001000
1012.326923,-0.046500,0.001000,0.001000,0.001000,0.001000,0.001000
1012.346154,-0.046969,0.001000,0.001000,0.001000,0.001000,0.001000
1012.365385,-0.047404,0.001000,0.001000,0.001000,0.001000,0.001000
1012.384615,-0.047807,0.001000,0.001000,0.001000,0.001000,0.001000
1012.403846,-0.048177,0.001000,0.001000,0.001000,0.001000,0.001000
1012.423077,-0.048513,0.001000,0.001000,0.001000,0.001000,0.001000
1012.442308,-0.048815,0.001000,0.001000,0.001000,0.001000,0.001000
1012.461538,-0.049083,0.001000,0.001000,0.001000,0.001000,0.001000
1012.480769,-0.049317,0.001000,0.001000,0.001000,0.001000,0.001000
1012.500000,-0.049517,0.001000,0.001000,0.001000,0.001000,0.001000
1012.519231,-0.049683,0.001000,0.001000,0.001000,0.001000,0.001000
1012.538462,-0.049814,0.001000,0.001000,0.001000,0.001000,0.001000
1012.557692,-0.049910,0.001000,0.001000,0.001000,0.001000,0.001000
1012.576923,-0.049972,0.001000,0.001000,0.001000,0.001000,0.001000
1012.596154,-0.049999,0.001000,0.001000,0.001000,0.001000,0.001000
1012.615385,-0.049991,0.001000,0.001000,0.001000,0.001000,0.001000
1012.634615,-0.049948,0.001000,0.001000,0.001000,0.001000,0.001000
1012.653846,-0.049871,0.001000,0.001000,0.001000,0.001000,0.001000
1012.673077,-0.049759,0.001000,0.001000,0.001000,0.001000,0.001000
1012.692308,-0.049612,0.001000,0.001000,0.001000,0.001000,0.001000
1012.711538,-0.049431,0.001000,0.001000,0.001000,0.001000,0.001000
1012.730769,-0.049216,0.001000,0.001000,0.001000,0.001000,0.001000
1012.750000,-0.048966,0.001000,0.001000,0.001000,0.001000,0.001000
1012.769231,-0.048682,0.001000,0.001000,0.001000,0.001000,0.001000
1012.788462,-0.048364,0.001000,0.001000,0.001000,0.001000,0.001000
1012.807692,-0.048013,0.001000,0.001000,0.001000,0.001000,0.001000
1012.826923,-0.047629,0.001000,0.001000,0.001000,0.001000,0.001000
1012.846154,-0.047211,0.001000,0.001000,0.001000,0.001000,0.001000
1012.865385,-0.046760,0.001000,0.001000,0.001000,0.001000,0.001000
1012.884615,-0.046277,0.001000,0.001000,0.001000,0.001000,0.001000
1012.903846,-0.045762,0.001000,0.001000,0.001000,0.001000,0.001000
1012.923077,-0.045215,0.001000,0.001000,0.001000,0.001000,0.001000
1012.942308,-0.044636,0.001000,0.001000,0.001000,0.001000,0.001000
1012.961538,-0.044027,0.001000,0.001000,0.001000,0.001000,0.001000
1012.980769,-0.043387,0.001000,0.001000,0.001000,0.001000,0.001000
1013.000000,-0.042716,0.001000,0.001000,0.001000,0.001000,0.001000
1013.019231,-0.042016,0.001000,0.001000,0.001000,0.001000,0.001000
1013.038462,-0.041287,0.001000,0.001000,0.001000,0.001000,0.001000
1013.057692,-0.040529,0.001000,0.001000,0.001000,0.001000,0.001000
1013.076923,-0.039743,0.001000,0.001000,0.001000,0.001000,0.001000
1013.096154,-0.038929,0.001000,0.001000,0.001000,0.001000,0.001000
1013.115385,-0.038089,0.001000,0.001000,0.001000,0.001000,0.001000
1013.134615,-0.037221,0.001000,0.001000,0.001000,0.001000,0.001000
1013.153846,-0.036328,0.001000,0.001000,0.001000,0.001000,0.001000
1013.173077,-0.035410,0.001000,0.001000,0.001000,0.001000,0.001000
1013.192308,-0.034467,0.001000,0.001000,0.001000,0.001000,0.001000
1013.211538,-0.033500,0.001000,0.001000,0.001000,0.001000,0.001000
1013.230769,-0.032509,0.001000,0.001000,0.001000,0.001000,0.001000
1013.250000,-0.031497,0.001000,0.001000,0.001000,0.001000,0.001000
1013.269231,-0.030462,0.001000,0.001000,0.001000,0.001000,0.001000
1013.288462,-0.029406,0.001000,0.001000,0.001000,0.001000,0.001000
1013.307692,-0.028329,0.001000,0.001000,0.001000,0.001000,0.001000
1013.326923,-0.027233,0.001000,0.001000,0.001000,0.001000,0.001000
1013.346154,-0.026118,0.001000,0.001000,0.001000,0.001000,0.001000
1013.365385,-0.024985,0.001000,0.001000,0.001000,0.001000,0.001000
1013.384615,-0.023834,0.001000,0.001000,0.001000,0.001000,0.001000
1013.403846,-0.022667,0.001000,0.001000,0.001000,0.001000,0.001000
1013.423077,-0.021484,0.001000,0.001000,0.001000,0.001000,0.001000
1013.442308,-0.020287,0.001000,0.001000,0.001000,0.001000,0.001000
1013.461538,-0.019075,0.001000,0.001000,0.001000,0.001000,0.001000
1013.480769,-0.017849,0.001000,0.001000,0.001000,0.001000,0.001000
1013.500000,-0.016612,0.001000,0.001000,0.001000,0.001000,0.001000
1013.519231,-0.015363,0.001000,0.001000,0.001000,0.001000,0.001000
1013.538462,-0.014103,0.001000,0.001000,0.001000,0.001000,0.001000
1013.557692,-0.012833,0.001000,0.001000,0.001000,0.001000,0.001000
1013.576923,-0.011554,0.001000,0.001000,0.001000,0.001000,0.001000
1013.596154,-0.010268,0.001000,0.001000,0.001000,0.001000,0.001000
1013.615385,-0.008974,0.001000,0.001000,0.001000,0.001000,0.001000
1013.634615,-0.007674,0.001000,0.001000,0.001000,0.001000,0.001000
1013.653846,-0.006369,0.001000,0.001000,0.001000,0.001000,0.001000
1013.673077,-0.005059,0.001000,0.001000,0.001000,0.001000,0.001000
1013.692308,-0.003746,0.001000,0.001000,0.001000,0.001000,0.001000
1013.711538,-0.002430,0.001000,0.001000,0.001000,0.001000,0.001000
1013.730769,-0.001112,0.001000,0.001000,0.001000,0.001000,0.001000
1013.750000,0.000206,0.001000,0.001000,0.001000,0.001000,0.001000
1013.769231,0.001524,0.001000,0.001000,0.001000,0.001000,0.001000
1013.788462,0.002841,0.001000,0.001000,0.001000,0.001000,0.001000
1013.807692,0.004157,0.001000,0.001000,0.001000,0.001000,0.001000
1013.826923,0.005469,0.001000,0.001000,0.001000,0.001000,0.001000
1013.846154,0.006777,0.001000,0.001000,0.001000,0.001000,0.001000
1013.865385,0.008081,0.001000,0.001000,0.001000,0.001000,0.001000
1013.884615,0.009379,0.001000,0.001000,0.001000,0.001000,0.001000
1013.903846,0.010671,0.001000,0.001000,0.001000,0.001000,0.001000
1013.923077,0.011955,0.001000,0.001000,0.001000,0.001000,0.001000
1013.942308,0.013231,0.001000,0.001000,0.001000,0.001000,0.001000
1013.961538,0.014498,0.001000,0.001000,0.001000,0.001000,0.001000
1013.980769,0.015754,0.001000,0.001000,0.001000,0.001000,0.001000
1014.000000,0.017000,0.001000,0.001000,0.001000,0.001000,0.001000
1014.019231,0.018234,0.001000,0.001000,0.001000,0.001000,0.001000
1014.038462,0.019455,0.001000,0.001000,0.001000,0.001000,0.001000
1014.057692,0.020663,0.001000,0.001000,0.001000,0.001000,0.001000
1014.076923,0.021856,0.001000,0.001000,0.001000,0.001000,0.001000
1014.096154,0.023034,0.001000,0.001000,0.001000,0.001000,0.001000
1014.115385,0.024196,0.001000,0.001000,0.001000,0.001000,0.001000
1014.134615,0.025341,0.001000,0.001000,0.001000,0.001000,0.001000
1014.153846,0.026469,0.001000,0.001000,0.001000,0.001000,0.001000
1014.173077,0.027578,0.001000,0.001000,0.001000,0.001000,0.001000
1014.192308,0.028668,0.001000,0.001000,0.001000,0.001000,0.001000
1014.211538,0.029738,0.001000,0.001000,0.001000,0.001000,0.001000
1014.230769,0.030788,0.001000,0.001000,0.001000,0.001000,0.001000
1014.250000,0.031816,0.001000,0.001000,0.001000,0.001000,0.001000
1014.269231,0.032822,0.001000,0.001000,0.001000,0.001000,0.001000
1014.288462,0.033805,0.001000,0.001000,0.001000,0.001000,0.001000
1014.307692,0.034764,0.001000,0.001000,0.001000,0.001000,0.001000
1014.326923,0.035700,0.001000,0.001000,0.001000,0.001000,0.001000
1014.346154,0.036610,0.001000,0.001000,0.001000,0.001000,0.001000
1014.365385,0.037495,0.001000,0.001000,0.001000,0.001000,0.001000
1014.384615,0.038354,0.001000,0.001000,0.001000,0.001000,0.001000
1014.403846,0.039187,0.001000,0.001000,0.001000,0.001000,0.001000
1014.423077,0.039992,0.001000,0.001000,0.001000,0.001000,0.001000
1014.442308,0.040769,0.001000,0.001000,0.001000,0.001000,0.001000
1014.461538,0.041518,0.001000,0.001000,0.001000,0.001000,0.001000
1014.480769,0.042239,0.001000,0.001000,0.001000,0.001000,0.001000
1014.500000,0.042929,0.001000,0.001000,0.001000,0.001000,0.001000
1014.519231,0.043590,0.001000,0.001000,0.001000,0.001000,0.001000
1014.538462,0.044221,0.001000,0.001000,0.001000,0.001000,0.001000
1014.557692,0.044821,0.001000,0.001000,0.001000,0.001000,0.001000
1014.576923,0.045389,0.001000,0.001000,0.001000,0.001000,0.001000
1014.596154,0.045927,0.001000,0.001000,0.001000,0.001000,0.001000
1014.615385,0.046432,0.001000,0.001000,0.001000,0.001000,0.001000
1014.634615,0.046905,0.001000,0.001000,0.001000,0.001000,0.001000
1014.653846,0.047345,0.001000,0.001000,0.001000,0.001000,0.001000
1014.673077,0.047752,0.001000,0.001000,0.001000,0.001000,0.001000
1014.692308,0.048127,0.001000,0.001000,0.001000,0.001000,0.001000
1014.711538,0.048467,0.001000,0.001000,0.001000,0.001000,0.001000
1014.730769,0.048774,0.001000,0.001000,0.001000,0.001000,0.001000
1014.750000,0.049048,0.001000,0.001000,0.001000,0.001000,0.001000
1014.769231,0.049287,0.001000,0.001000,0.001000,0.001000,0.001000
1014.788462,0.049491,0.001000,0.001000,0.001000,0.001000,0.001000
1014.807692,0.049662,0.001000,0.001000,0.001000,0.001000,0.001000
1014.826923,0.049798,0.001000,0.001000,0.001000,0.001000,0.001000
1014.846154,0.049899,0.001000,0.001000,0.001000,0.001000,0.001000
1014.865385,0.049965,0.001000,0.001000,0.001000,0.001000,0.001000
1014.884615,0.049997,0.001000,0.001000,0.001000,0.001000,0.001000
1014.903846,0.049994,0.001000,0.001000,0.001000,0.001000,0.001000
1014.923077,0.049956,0.001000,0.001000,0.001000,0.001000,0.001000
1014.942308,0.049884,0.001000,0.001000,0.001000,0.001000,0.001000
1014.961538,0.049777,0.001000,0.001000,0.001000,0.001000,0.001000
1014.980769,0.049635,0.001000,0.001000,0.001000,0.001000,0.001000
1015.000000,0.049459,0.001000,0.001000,0.001000,0.001000,0.001000
1015.019231,0.049248,0.001000,0.001000,0.001000,0.001000,0.001000
1015.038462,0.049003,0.001000,0.001000,0.001000,0.001000,0.001000
1015.057692,0.048724,0.001000,0.001000,0.001000,0.001000,0.001000
1015.076923,0.048411,0.001000,0.001000,0.001000,0.001000,0.001000
1015.096154,0.048065,0.001000,0.001000,0.001000,0.001000,0.001000
1015.115385,0.047685,0.001000,0.001000,0.001000,0.001000,0.001000
1015.134615,0.047272,0.001000,0.001000,0.001000,0.001000,0.001000
1015.153846,0.046826,0.001000,0.001000,0.001000,0.001000,0.001000
1015.173077,0.046347,0.001000,0.001000,0.001000,0.001000,0.001000
1015.192308,0.045836,0.001000,0.001000,0.001000,0.001000,0.001000
1015.211538,0.045294,0.001000,0.001000,0.001000,0.001000,0.001000
1015.230769,0.044720,0.001000,0.001000,0.001000,0.001000,0.001000
1015.250000,0.044114,0.001000,0.001000,0.001000,0.001000,0.001000
1015.269231,0.043479,0.001000,0.001000,0.001000,0.001000,0.001000
1015.288462,0.042813,0.001000,0.001000,0.001000,0.001000,0.001000
1015.307692,0.042117,0.001000,0.001000,0.001000,0.001000,0.001000
1015.326923,0.041392,0.001000,0.001000,0.001000,0.001000,0.001000
1015.346154,0.040638,0.001000,0.001000,0.001000,0.001000,0.001000
1015.365385,0.039855,0.001000,0.001000,0.001000,0.001000,0.001000
1015.384615,0.039046,0.001000,0.001000,0.001000,0.001000,0.001000
1015.403846,0.038209,0.001000,0.001000,0.001000,0.001000,0.001000
1015.423077,0.037345,0.001000,0.001000,0.001000,0.001000,0.001000
1015.442308,0.036455,0.001000,0.001000,0.001000,0.001000,0.001000
1015.461538,0.035540,0.001000,0.001000,0.001000,0.001000,0.001000
1015.480769,0.034601,0.001000,0.001000,0.001000,0.001000,0.001000
1015.500000,0.033637,0.001000,0.001000,0.001000,0.001000,0.001000
1015.519231,0.032650,0.001000,0.001000,0.001000,0.001000,0.001000
1015.538462,0.031640,0.001000,0.001000,0.001000,0.001000,0.001000
1015.557692,0.030609,0.001000,0.001000,0.001000,0.001000,0.001000
1015.576923,0.029556,0.001000,0.001000,0.001000,0.001000,0.001000
1015.596154,0.028482,0.001000,0.001000,0.001000,0.001000,0.001000
1015.615385,0.027389,0.001000,0.001000,0.001000,0.001000,0.001000
1015.634615,0.026276,0.001000,0.001000,0.001000,0.001000,0.001000
1015.653846,0.025145,0.001000,0.001000,0.001000,0.001000,0.001000
1015.673077,0.023997,0.001000,0.001000,0.001000,0.001000,0.001000
1015.692308,0.022832,0.001000,0.001000,0.001000,0.001000,0.001000
1015.711538,0.021652,0.001000,0.001000,0.001000,0.001000,0.001000
1015.730769,0.020456,0.001000,0.001000,0.001000,0.001000,0.001000
1015.750000,0.019246,0.001000,0.001000,0.001000,0.001000,0.001000
1015.769231,0.018022,0.001000,0.001000,0.001000,0.001000,0.001000
1015.788462,0.016786,0.001000,0.001000,0.001000,0.001000,0.001000
1015.807692,0.015539,0.001000,0.001000,0.001000,0.001000,0.001000
1015.826923,0.014280,0.001000,0.001000,0.001000,0.001000,0.001000
1015.846154,0.013012,0.001000,0.001000,0.001000,0.001000,0.001000
1015.865385,0.011735,0.001000,0.001000,0.001000,0.001000,0.001000
1015.884615,0.010449,0.001000,0.001000,0.001000,0.001000,0.001000
1015.903846,0.009156,0.001000,0.001000,0.001000,0.001000,0.001000
1015.923077,0.007857,0.001000,0.001000,0.001000,0.001000,0.001000
1015.942308,0.006553,0.001000,0.001000,0.001000,0.001000,0.001000
1015.961538,0.005243,0.001000,0.001000,0.001000,0.001000,0.001000
1015.980769,0.003930,0.001000,0.001000,0.001000,0.001000,0.001000
1016.000000,0.002615,0.001000,0.001000,0.001000,0.001000,0.001000
1016.019231,0.001298,0.001000,0.001000,0.001000,0.001000,0.001000
1016.038462,-0.000021,0.001000,0.001000,0.001000,0.001000,0.001000
1016.057692,-0.001339,0.001000,0.001000,0.001000,0.001000,0.001000
1016.076923,-0.002656,0.001000,0.001000,0.001000,0.001000,0.001000
1016.096154,-0.003972,0.001000,0.001000,0.001000,0.001000,0.001000
1016.115385,-0.005285,0.001000,0.001000,0.001000,0.001000,0.001000
1016.134615,-0.006594,0.001000,0.001000,0.001000,0.001000,0.001000
1016.153846,-0.007898,0.001000,0.001000,0.001000,0.001000,0.001000
1016.173077,-0.009197,0.001000,0.001000,0.001000,0.001000,0.001000
1016.192308,-0.010490,0.001000,0.001000,0.001000,0.001000,0.001000
1016.211538,-0.011775,0.001000,0.001000,0.001000,0.001000,0.001000
1016.230769,-0.013052,0.001000,0.001000,0.001000,0.001000,0.001000
1016.250000,-0.014320,0.001000,0.001000,0.001000,0.001000,0.001000
1016.269231,-0.015578,0.001000,0.001000,0.001000,0.001000,0.001000
1016.288462,-0.016826,0.001000,0.001000,0.001000,0.001000,0.001000
1016.307692,-0.018061,0.001000,0.001000,0.001000,0.001000,0.001000
1016.326923,-0.019284,0.001000,0.001000,0.001000,0.001000,0.001000
1016.346154,-0.020494,0.001000,0.001000,0.001000,0.001000,0.001000
1016.365385,-0.021689,0.001000,0.001000,0.001000,0.001000,0.001000
1016.384615,-0.022869,0.001000,0.001000,0.001000,0.001000,0.001000
1016.403846,-0.024034,0.001000,0.001000,0.001000,0.001000,0.001000
1016.423077,-0.025181,0.001000,0.001000,0.001000,0.001000,0.001000
1016.442308,-0.026311,0.001000,0.001000,0.001000,0.001000,0.001000
1016.461538,-0.027423,0.001000,0.001000,0.001000,0.001000,0.001000
1016.480769,-0.028516,0.001000,0.001000,0.001000,0.001000,0.001000
1016.500000,-0.029589,0.001000,0.001000,0.001000,0.001000,0.001000
1016.519231,-0.030641,0.001000,0.001000,0.001000,0.001000,0.001000
1016.538462,-0.031672,0.001000,0.001000,0.001000,0.001000,0.001000
1016.557692,-0.032682,0.001000,0.001000,0.001000,0.001000,0.001000
1016.576923,-0.033668,0.001000,0.001000,0.001000,0.001000,0.001000
1016.596154,-0.034631,0.001000,0.001000,0.001000,0.001000,0.001000
1016.615385,-0.035570,0.001000,0.001000,0.001000,0.001000,0.001000
1016.634615,-0.036484,0.001000,0.001000,0.001000,0.001000,0.001000
1016.653846,-0.037373,0.001000,0.001000,0.001000,0.001000,0.001000
1016.673077,-0.038235,0.001000,0.001000,0.001000,0.001000,0.001000
1016.692308,-0.039071,0.001000,0.001000,0.001000,0.001000,0.001000
1016.711538,-0.039881,0.001000,0.001000,0.001000,0.001000,0.001000
1016.730769,-0.040662,0.001000,0.001000,0.001000,0.001000,0.001000
1016.750000,-0.041415,0.001000,0.001000,0.001000,0.001000,0.001000
1016.769231,-0.042139,0.001000,0.001000,0.001000,0.001000,0.001000
1016.788462,-0.042834,0.001000,0.001000,0.001000,0.001000,0.001000
1016.807692,-0.043499,0.001000,0.001000,0.001000,0.001000,0.001000
1016.826923,-0.044134,0.001000,0.001000,0.001000,0.001000,0.001000
1016.846154,-0.044738,0.001000,0.001000,0.001000,0.001000,0.001000
1016.865385,-0.045311,0.001000,0.001000,0.001000,0.001000,0.001000
1016.884615,-0.045853,0.001000,0.001000,0.001000,0.001000,0.001000
1016.903846,-0.046363,0.001000,0.001000,0.001000,0.001000,0.001000
1016.923077,-0.046840,0.001000,0.001000,0.001000,0.001000,0.001000
1016.942308,-0.047285,0.001000,0.001000,0.001000,0.001000,0.001000
1016.961538,-0.047697,0.001000,0.001000,0.001000,0.001000,0.001000
1016.980769,-0.048076,0.001000,0.001000,0.001000,0.001000,0.001000
1017.000000,-0.048422,0.001000,0.001000,0.001000,0.001000,0.001000
1017.019231,-0.048733,0.001000,0.001000,0.001000,0.001000,0.001000
1017.038462,-0.049011,0.001000,0.001000,0.001000,0.001000,0.001000
1017.057692,-0.049255,0.001000,0.001000,0.001000,0.001000,0.001000
1017.076923,-0.049465,0.001000,0.001000,0.001000,0.001000,0.001000
1017.096154,-0.049640,0.001000,0.001000,0.001000,0.001000,0.001000
1017.115385,-0.049781,0.001000,0.001000,0.001000,0.001000,0.001000
1017.134615,-0.049887,0.001000,0.001000,0.001000,0.001000,0.001000
1017.153846,-0.049958,0.001000,0.001000,0.001000,0.001000,0.001000
1017.173077,-0.049995,0.001000,0.001000,0.001000,0.001000,0.001000
1017.192308,-0.049997,0.001000,0.001000,0.001000,0.001000,0.001000
1017.211538,-0.049964,0.001000,0.001000,0.001000,0.001000,0.001000
1017.230769,-0.049896,0.001000,0.001000,0.001000,0.001000,0.001000
1017.250000,-0.049794,0.001000,0.001000,0.001000,0.001000,0.001000
1017.269231,-0.049657,0.001000,0.001000,0.001000,0.001000,0.001000
1017.288462,-0.049485,0.001000,0.001000,0.001000,0.001000,0.001000
1017.307692,-0.049280,0.001000,0.001000,0.001000,0.001000,0.001000
1017.326923,-0.049039,0.001000,0.001000,0.001000,0.001000,0.001000
1017.346154,-0.048765,0.001000,0.001000,0.001000,0.001000,0.001000
1017.365385,-0.048457,0.001000,0.001000,0.001000,0.001000,0.001000
1017.384615,-0.048115,0.001000,0.001000,0.001000,0.001000,0.001000
1017.403846,-0.047740,0.001000,0.001000,0.001000,0.001000,0.001000
1017.423077,-0.047332,0.001000,0.001000,0.001000,0.001000,0.001000
1017.442308,-0.046890,0.001000,0.001000,0.001000,0.001000,0.001000
1017.461538,-0.046416,0.001000,0.001000,0.001000,0.001000,0.001000
1017.480769,-0.045910,0.001000,0.001000,0.001000,0.001000,0.001000
1017.500000,-0.045372,0.001000,0.001000,0.001000,0.001000,0.001000
1017.519231,-0.044802,0.001000,0.001000,0.001000,0.001000,0.001000
1017.538462,-0.044201,0.001000,0.001000,0.001000,0.001000,0.001000
1017.557692,-0.043570,0.001000,0.001000,0.001000,0.001000,0.001000
1017.576923,-0.042908,0.001000,0.001000,0.001000,0.001000,0.001000
1017.596154,-0.042216,0.001000,0.001000,0.001000,0.001000,0.001000
1017.615385,-0.041495,0.001000,0.001000,0.001000,0.001000,0.001000
1017.634615,-0.040745,0.001000,0.001000,0.001000,0.001000,0.001000
1017.653846,-0.039967,0.001000,0.001000,0.001000,0.001000,0.001000
1017.673077,-0.039161,0.001000,0.001000,0.001000,0.001000,0.001000
1017.692308,-0.038328,0.001000,0.001000,0.001000,0.001000,0.001000
1017.711538,-0.037468,0.001000,0.001000,0.001000,0.001000,0.001000
1017.730769,-0.036582,0.001000,0.001000,0.001000,0.001000,0.001000
1017.750000,-0.035671,0.001000,0.001000,0.001000,0.001000,0.001000
1017.769231,-0.034734,0.001000,0.001000,0.001000,0.001000,0.001000
1017.788462,-0.033774,0.001000,0.001000,0.001000,0.001000,0.001000
1017.807692,-0.032790,0.001000,0.001000,0.001000,0.001000,0.001000
1017.826923,-0.031784,0.001000,0.001000,0.001000,0.001000,0.001000
1017.846154,-0.030755,0.001000,0.001000,0.001000,0.001000,0.001000
1017.865385,-0.029705,0.001000,0.001000,0.001000,0.001000,0.001000
1017.884615,-0.028634,0.001000,0.001000,0.001000,0.001000,0.001000
1017.903846,-0.027543,0.001000,0.001000,0.001000,0.001000,0.001000
1017.923077,-0.026434,0.001000,0.001000,0.001000,0.001000,0.001000
1017.942308,-0.025305,0.001000,0.001000,0.001000,0.001000,0.001000
1017.961538,-0.024160,0.001000,0.001000,0.001000,0.001000,0.001000
1017.980769,-0.022997,0.001000,0.001000,0.001000,0.001000,0.001000
1018.000000,-0.021819,0.001000,0.001000,0.001000,0.001000,0.001000
1018.019231,-0.020625,0.001000,0.001000,0.001000,0.001000,0.001000
1018.038462,-0.019417,0.001000,0.001000,0.001000,0.001000,0.001000
1018.057692,-0.018195,0.001000,0.001000,0.001000,0.001000,0.001000
1018.076923,-0.016961,0.001000,0.001000,0.001000,0.001000,0.001000
1018.096154,-0.015715,0.001000,0.001000,0.001000,0.001000,0.001000
1018.115385,-0.014458,0.001000,0.001000,0.001000,0.001000,0.001000
1018.134615,-0.013191,0.001000,0.001000,0.001000,0.001000,0.001000
1018.153846,-0.011915,0.001000,0.001000,0.001000,0.001000,0.001000
1018.173077,-0.010630,0.001000,0.001000,0.001000,0.001000,0.001000
1018.192308,-0.009339,0.001000,0.001000,0.001000,0.001000,0.001000
1018.211538,-0.008040,0.001000,0.001000,0.001000,0.001000,0.001000
1018.230769,-0.006736,0.001000,0.001000,0.001000,0.001000,0.001000
1018.250000,-0.005428,0.001000,0.001000,0.001000,0.001000,0.001000
1018.269231,-0.004115,0.001000,0.001000,0.001000,0.001000,0.001000
1018.288462,-0.002800,0.001000,0.001000,0.001000,0.001000,0.001000
1018.307692,-0.001483,0.001000,0.001000,0.001000,0.001000,0.001000
1018.326923,-0.000165,0.001000,0.001000,0.001000,0.001000,0.001000
1018.346154,0.001154,0.001000,0.001000,0.001000,0.001000,0.001000
1018.365385,0.002471,0.001000,0.001000,0.001000,0.001000,0.001000
1018.384615,0.003787,0.001000,0.001000,0.001000,0.001000,0.001000
1018.403846,0.005100,0.001000,0.001000,0.001000,0.001000,0.001000
1018.423077,0.006410,0.001000,0.001000,0.001000,0.001000,0.001000
1018.442308,0.007715,0.001000,0.001000,0.001000,0.001000,0.001000
1018.461538,0.009015,0.001000,0.001000,0.001000,0.001000,0.001000
1018.480769,0.010308,0.001000,0.001000,0.001000,0.001000,0.001000
1018.500000,0.011595,0.001000,0.001000,0.001000,0.001000,0.001000
1018.519231,0.012873,0.001000,0.001000,0.001000,0.001000,0.001000
1018.538462,0.014142,0.001000,0.001000,0.001000,0.001000,0.001000
1018.557692,0.015402,0.001000,0.001000,0.001000,0.001000,0.001000
1018.576923,0.016651,0.001000,0.001000,0.001000,0.001000,0.001000
1018.596154,0.017888,0.001000,0.001000,0.001000,0.001000,0.001000
1018.615385,0.019113,0.001000,0.001000,0.001000,0.001000,0.001000
1018.634615,0.020324,0.001000,0.001000,0.001000,0.001000,0.001000
1018.653846,0.021522,0.001000,0.001000,0.001000,0.001000,0.001000
1018.673077,0.022704,0.001000,0.001000,0.001000,0.001000,0.001000
1018.692308,0.023871,0.001000,0.001000,0.001000,0.001000,0.001000
1018.711538,0.025021,0.001000,0.001000,0.001000,0.001000,0.001000
1018.730769,0.026154,0.001000,0.001000,0.001000,0.001000,0.001000
1018.750000,0.027268,0.001000,0.001000,0.001000,0.001000,0.001000
1018.769231,0.028364,0.001000,0.001000,0.001000,0.001000,0.001000
1018.788462,0.029439,0.001000,0.001000,0.001000,0.001000,0.001000
1018.807692,0.030495,0.001000,0.001000,0.001000,0.001000,0.001000
1018.826923,0.031529,0.001000,0.001000,0.001000,0.001000,0.001000
1018.846154,0.032541,0.001000,0.001000,0.001000,0.001000,0.001000
1018.865385,0.033531,0.001000,0.001000,0.001000,0.001000,0.001000
1018.884615,0.034497,0.001000,0.001000,0.001000,0.001000,0.001000
1018.903846,0.035439,0.001000,0.001000,0.001000,0.001000,0.001000
1018.923077,0.036357,0.001000,0.001000,0.001000,0.001000,0.001000
1018.942308,0.037249,0.001000,0.001000,0.001000,0.001000,0.001000
1018.961538,0.038116,0.001000,0.001000,0.001000,0.001000,0.001000
1018.980769,0.038956,0.001000,0.001000,0.001000,0.001000,0.001000
1019.000000,0.039768,0.001000,0.001000,0.001000,0.001000,0.001000
1019.019231,0.040554,0.001000,0.001000,0.001000,0.001000,0.001000
1019.038462,0.041311,0.001000,0.001000,0.001000,0.001000,0.001000
1019.057692,0.042039,0.001000,0.001000,0.001000,0.001000,0.001000
1019.076923,0.042738,0.001000,0.001000,0.001000,0.001000,0.001000
1019.096154,0.043407,0.001000,0.001000,0.001000,0.001000,0.001000
1019.115385,0.044047,0.001000,0.001000,0.001000,0.001000,0.001000
1019.134615,0.044655,0.001000,0.001000,0.001000,0.001000,0.001000
1019.153846,0.045233,0.001000,0.001000,0.001000,0.001000,0.001000
1019.173077,0.045779,0.001000,0.001000,0.001000,0.001000,0.001000
1019.192308,0.046293,0.001000,0.001000,0.001000,0.001000,0.001000
1019.211538,0.046775,0.001000,0.001000,0.001000,0.001000,0.001000
1019.230769,0.047225,0.001000,0.001000,0.001000,0.001000,0.001000
1019.250000,0.047641,0.001000,0.001000,0.001000,0.001000,0.001000
1019.269231,0.048025,0.001000,0.001000,0.001000,0.001000,0.001000
1019.288462,0.048375,0.001000,0.001000,0.001000,0.001000,0.001000
1019.307692,0.048692,0.001000,0.001000,0.001000,0.001000,0.001000
1019.326923,0.048974,0.001000,0.001000,0.001000,0.001000,0.001000
1019.346154,0.049223,0.001000,0.001000,0.001000,0.001000,0.001000
1019.365385,0.049437,0.001000,0.001000,0.001000,0.001000,0.001000
1019.384615,0.049617,0.001000,0.001000,0.001000,0.001000,0.001000
1019.403846,0.049763,0.001000,0.001000,0.001000,0.001000,0.001000
1019.423077,0.049874,0.001000,0.001000,0.001000,0.001000,0.001000
1019.442308,0.049950,0.001000,0.001000,0.001000,0.001000,0.001000
1019.461538,0.049992,0.001000,0.001000,0.001000,0.001000,0.001000
1019.480769,0.049998,0.001000,0.001000,0.001000,0.001000,0.001000
1019.500000,0.049970,0.001000,0.001000,0.001000,0.001000,0.001000
1019.519231,0.049908,0.001000,0.001000,0.001000,0.001000,0.001000
1019.538462,0.049810,0.001000,0.001000,0.001000,0.001000,0.001000
1019.557692,0.049678,0.001000,0.001000,0.001000,0.001000,0.001000
1019.576923,0.049512,0.001000,0.001000,0.001000,0.001000,0.001000
1019.596154,0.049311,0.001000,0.001000,0.001000,0.001000,0.001000
1019.615385,0.049075,0.001000,0.001000,0.001000,0.001000,0.001000
1019.634615,0.048806,0.001000,0.001000,0.001000,0.001000,0.001000
1019.653846,0.048503,0.001000,0.001000,0.001000,0.001000,0.001000
1019.673077,0.048165,0.001000,0.001000,0.001000,0.001000,0.001000
1019.692308,0.047795,0.001000,0.001000,0.001000,0.001000,0.001000
1019.711538,0.047391,0.001000,0.001000,0.001000,0.001000,0.001000
1019.730769,0.046954,0.001000,0.001000,0.001000,0.001000,0.001000
1019.750000,0.046485,0.001000,0.001000,0.001000,0.001000,0.001000
1019.769231,0.045983,0.001000,0.001000,0.001000,0.001000,0.001000
1019.788462,0.045450,0.001000,0.001000,0.001000,0.001000,0.001000
1019.807692,0.044884,0.001000,0.001000,0.001000,0.001000,0.001000
1019.826923,0.044288,0.001000,0.001000,0.001000,0.001000,0.001000
1019.846154,0.043661,0.001000,0.001000,0.001000,0.001000,0.001000
1019.865385,0.043003,0.001000,0.001000,0.001000,0.001000,0.001000
1019.884615,0.042315,0.001000,0.001000,0.001000,0.001000,0.001000
1019.903846,0.041598,0.001000,0.001000,0.001000,0.001000,0.001000
1019.923077,0.040853,0.001000,0.001000,0.001000,0.001000,0.001000
1019.942308,0.040078,0.001000,0.001000,0.001000,0.001000,0.001000
1019.961538,0.039276,0.001000,0.001000,0.001000,0.001000,0.001000
1019.980769,0.038447,0.001000,0.001000,0.001000,0.001000,0.001000
1020.000000,0.037590,0.001000,0.001000,0.001000,0.001000,0.001000
1020.019231,0.036708,0.001000,0.001000,0.001000,0.001000,0.001000
1020.038462,0.035800,0.001000,0.001000,0.001000,0.001000,0.001000
1020.057692,0.034868,0.001000,0.001000,0.001000,0.001000,0.001000
1020.076923,0.033911,0.001000,0.001000,0.001000,0.001000,0.001000
1020.096154,0.032930,0.001000,0.001000,0.001000,0.001000,0.001000
1020.115385,0.031927,0.001000,0.001000,0.001000,0.001000,0.001000
1020.134615,0.030901,0.001000,0.001000,0.001000,0.001000,0.001000
1020.153846,0.029854,0.001000,0.001000,0.001000,0.001000,0.001000
1020.173077,0.028786,0.001000,0.001000,0.001000,0.001000,0.001000
1020.192308,0.027698,0.001000,0.001000,0.001000,0.001000,0.001000
1020.211538,0.026591,0.001000,0.001000,0.001000,0.001000,0.001000
1020.230769,0.025465,0.001000,0.001000,0.001000,0.001000,0.001000
1020.250000,0.024322,0.001000,0.001000,0.001000,0.001000,0.001000
1020.269231,0.023162,0.001000,0.001000,0.001000,0.001000,0.001000
1020.288462,0.021985,0.001000,0.001000,0.001000,0.001000,0.001000
1020.307692,0.020794,0.001000,0.001000,0.001000,0.001000,0.001000
1020.326923,0.019587,0.001000,0.001000,0.001000,0.001000,0.001000
1020.346154,0.018368,0.001000,0.001000,0.001000,0.001000,0.001000
1020.365385,0.017135,0.001000,0.001000,0.001000,0.001000,0.001000
1020.384615,0.015891,0.001000,0.001000,0.001000,0.001000,0.001000
1020.403846,0.014635,0.001000,0.001000,0.001000,0.001000,0.001000
1020.423077,0.013370,0.001000,0.001000,0.001000,0.001000,0.001000
1020.442308,0.012095,0.001000,0.001000,0.001000,0.001000,0.001000
1020.461538,0.010811,0.001000,0.001000,0.001000,0.001000,0.001000
1020.480769,0.009521,0.001000,0.001000,0.001000,0.001000,0.001000
1020.500000,0.008223,0.001000,0.001000,0.001000,0.001000,0.001000
1020.519231,0.006920,0.001000,0.001000,0.001000,0.001000,0.001000
1020.538462,0.005612,0.001000,0.001000,0.001000,0.001000,0.001000
1020.557692,0.004300,0.001000,0.001000,0.001000,0.001000,0.001000
1020.576923,0.002985,0.001000,0.001000,0.001000,0.001000,0.001000
1020.596154,0.001668,0.001000,0.001000,0.001000,0.001000,0.001000
1020.615385,0.000350,0.001000,0.001000,0.001000,0.001000,0.001000
1020.634615,-0.000968,0.001000,0.001000,0.001000,0.001000,0.001000
1020.653846,-0.002286,0.001000,0.001000,0.001000,0.001000,0.001000
1020.673077,-0.003602,0.001000,0.001000,0.001000,0.001000,0.001000
1020.692308,-0.004916,0.001000,0.001000,0.001000,0.001000,0.001000
1020.711538,-0.006226,0.001000,0.001000,0.001000,0.001000,0.001000
1020.730769,-0.007532,0.001000,0.001000,0.001000,0.001000,0.001000
1020.750000,-0.008832,0.001000,0.001000,0.001000,0.001000,0.001000
1020.769231,-0.010127,0.001000,0.001000,0.001000,0.001000,0.001000
1020.788462,-0.011414,0.001000,0.001000,0.001000,0.001000,0.001000
1020.807692,-0.012694,0.001000,0.001000,0.001000,0.001000,0.001000
1020.826923,-0.013965,0.001000,0.001000,0.001000,0.001000,0.001000
1020.846154,-0.015226,0.001000,0.001000,0.001000,0.001000,0.001000
1020.865385,-0.016476,0.001000,0.001000,0.001000,0.001000,0.001000
1020.884615,-0.017715,0.001000,0.001000,0.001000,0.001000,0.001000
1020.903846,-0.018941,0.001000,0.001000,0.001000,0.001000,0.001000
1020.923077,-0.020155,0.001000,0.001000,0.001000,0.001000,0.001000
1020.942308,-0.021354,0.001000,0.001000,0.001000,0.001000,0.001000
1020.961538,-0.022539,0.001000,0.001000,0.001000,0.001000,0.001000
1020.980769,-0.023708,0.001000,0.001000,0.001000,0.001000,0.001000
1021.000000,-0.024860,0.001000,0.001000,0.001000,0.001000,0.001000
1021.019231,-0.025995,0.001000,0.001000,0.001000,0.001000,0.001000
1021.038462,-0.027113,0.001000,0.001000,0.001000,0.001000,0.001000
1021.057692,-0.028211,0.001000,0.001000,0.001000,0.001000,0.001000
1021.076923,-0.029289,0.001000,0.001000,0.001000,0.001000,0.001000
1021.096154,-0.030348,0.001000,0.001000,0.001000,0.001000,0.001000
1021.115385,-0.031385,0.001000,0.001000,0.001000,0.001000,0.001000
1021.134615,-0.032400,0.001000,0.001000,0.001000,0.001000,0.001000
1021.153846,-0.033393,0.001000,0.001000,0.001000,0.001000,0.001000
1021.173077,-0.034362,0.001000,0.001000,0.001000,0.001000,0.001000
1021.192308,-0.035308,0.001000,0.001000,0.001000,0.001000,0.001000
1021.211538,-0.036229,0.001000,0.001000,0.001000,0.001000,0.001000
1021.230769,-0.037125,0.001000,0.001000,0.001000,0.001000,0.001000
1021.250000,-0.037995,0.001000,0.001000,0.001000,0.001000,0.001000
1021.269231,-0.038839,0.001000,0.001000,0.001000,0.001000,0.001000
1021.288462,-0.039656,0.001000,0.001000,0.001000,0.001000,0.001000
1021.307692,-0.040445,0.001000,0.001000,0.001000,0.001000,0.001000
1021.326923,-0.041206,0.001000,0.001000,0.001000,0.001000,0.001000
1021.346154,-0.041938,0.001000,0.001000,0.001000,0.001000,0.001000
1021.365385,-0.042642,0.001000,0.001000,0.001000,0.001000,0.001000
1021.384615,-0.043315,0.001000,0.001000,0.001000,0.001000,0.001000
1021.403846,-0.043959,0.001000,0.001000,0.001000,0.001000,0.001000
1021.423077,-0.044571,0.001000,0.001000,0.001000,0.001000,0.001000
1021.442308,-0.045153,0.001000,0.001000,0.001000,0.001000,0.001000
1021.461538,-0.045704,0.001000,0.001000,0.001000,0.001000,0.001000
1021.480769,-0.046223,0.001000,0.001000,0.001000,0.001000,0.001000
1021.500000,-0.046709,0.001000,0.001000,0.001000,0.001000,0.001000
1021.519231,-0.047163,0.001000,0.001000,0.001000,0.001000,0.001000
1021.538462,-0.047585,0.001000,0.001000,0.001000,0.001000,0.001000
1021.557692,-0.047973,0.001000,0.001000,0.001000,0.001000,0.001000
1021.576923,-0.048328,0.001000,0.001000,0.001000,0.001000,0.001000
1021.596154,-0.048649,0.001000,0.001000,0.001000,0.001000,0.001000
1021.615385,-0.048936,0.001000,0.001000,0.001000,0.001000,0.001000
1021.634615,-0.049190,0.001000,0.001000,0.001000,0.001000,0.001000
1021.653846,-0.049409,0.001000,0.001000,0.001000,0.001000,0.001000
1021.673077,-0.049594,0.001000,0.001000,0.001000,0.001000,0.001000
1021.692308,-0.049744,0.001000,0.001000,0.001000,0.001000,0.001000
1021.711538,-0.049860,0.001000,0.001000,0.001000,0.001000,0.001000
1021.730769,-0.049941,0.001000,0.001000,0.001000,0.001000,0.001000
1021.750000,-0.049988,0.001000,0.001000,0.001000,0.001000,0.001000
1021.769231,-0.050000,0.001000,0.001000,0.001000,0.001000,0.001000
1021.788462,-0.049976,0.001000,0.001000,0.001000,0.001000,0.001000
1021.807692,-0.049919,0.001000,0.001000,0.001000,0.001000,0.001000
1021.826923,-0.049826,0.001000,0.001000,0.001000,0.001000,0.001000
1021.846154,-0.049699,0.001000,0.001000,0.001000,0.001000,0.001000
1021.865385,-0.049537,0.001000,0.001000,0.001000,0.001000,0.001000
1021.884615,-0.049341,0.001000,0.001000,0.001000,0.001000,0.001000
1021.903846,-0.049110,0.001000,0.001000,0.001000,0.001000,0.001000
1021.923077,-0.048846,0.001000,0.001000,0.001000,0.001000,0.001000
1021.942308,-0.048547,0.001000,0.001000,0.001000,0.001000,0.001000
1021.961538,-0.048215,0.001000,0.001000,0.001000,0.001000,0.001000
1021.980769,-0.047849,0.001000,0.001000,0.001000,0.001000,0.001000
1022.000000,-0.047450,0.001000,0.001000,0.001000,0.001000,0.001000
1022.019231,-0.047018,0.001000,0.001000,0.001000,0.001000,0.001000
1022.038462,-0.046553,0.001000,0.001000,0.001000,0.001000,0.001000
1022.057692,-0.046056,0.001000,0.001000,0.001000,0.001000,0.001000
1022.076923,-0.045527,0.001000,0.001000,0.001000,0.001000,0.001000
1022.096154,-0.044966,0.001000,0.001000,0.001000,0.001000,0.001000
1022.115385,-0.044374,0.001000,0.001000,0.001000,0.001000,0.001000
1022.134615,-0.043751,0.001000,0.001000,0.001000,0.001000,0.001000
1022.153846,-0.043097,0.001000,0.001000,0.001000,0.001000,0.001000
1022.173077,-0.042414,0.001000,0.001000,0.001000,0.001000,0.001000
1022.192308,-0.041701,0.001000,0.001000,0.001000,0.001000,0.001000
1022.211538,-0.040959,0.001000,0.001000,0.001000,0.001000,0.001000
1022.230769,-0.040189,0.001000,0.001000,0.001000,0.001000,0.001000
1022.250000,-0.039391,0.001000,0.001000,0.001000,0.001000,0.001000
1022.269231,-0.038565,0.001000,0.001000,0.001000,0.001000,0.001000
1022.288462,-0.037712,0.001000,0.001000,0.001000,0.001000,0.001000
1022.307692,-0.036834,0.001000,0.001000,0.001000,0.001000,0.001000
1022.326923,-0.035929,0.001000,0.001000,0.001000,0.001000,0.001000
1022.346154,-0.035000,0.001000,0.001000,0.001000,0.001000,0.001000
1022.365385,-0.034047,0.001000,0.001000,0.001000,0.001000,0.001000
1022.384615,-0.033069,0.001000,0.001000,0.001000,0.001000,0.001000
1022.403846,-0.032069,0.001000,0.001000,0.001000,0.001000,0.001000
1022.423077,-0.031046,0.001000,0.001000,0.001000,0.001000,0.001000
1022.442308,-0.030002,0.001000,0.001000,0.001000,0.001000,0.001000
1022.461538,-0.028937,0.001000,0.001000,0.001000,0.001000,0.001000
1022.480769,-0.027852,0.001000,0.001000,0.001000,0.001000,0.001000
1022.500000,-0.026748,0.001000,0.001000,0.001000,0.001000,0.001000
1022.519231,-0.025625,0.001000,0.001000,0.001000,0.001000,0.001000
1022.538462,-0.024484,0.001000,0.001000,0.001000,0.001000,0.001000
1022.557692,-0.023326,0.001000,0.001000,0.001000,0.001000,0.001000
1022.576923,-0.022152,0.001000,0.001000,0.001000,0.001000,0.001000
1022.596154,-0.020962,0.001000,0.001000,0.001000,0.001000,0.001000
1022.615385,-0.019758,0.001000,0.001000,0.001000,0.001000,0.001000
1022.634615,-0.018540,0.001000,0.001000,0.001000,0.001000,0.001000
1022.653846,-0.017309,0.001000,0.001000,0.001000,0.001000,0.001000
1022.673077,-0.016066,0.001000,0.001000,0.001000,0.001000,0.001000
1022.692308,-0.014813,0.001000,0.001000,0.001000,0.001000,0.001000
1022.711538,-0.013548,0.001000,0.001000,0.001000,0.001000,0.001000
1022.730769,-0.012275,0.001000,0.001000,0.001000,0.001000,0.001000
1022.750000,-0.010992,0.001000,0.001000,0.001000,0.001000,0.001000
1022.769231,-0.009703,0.001000,0.001000,0.001000,0.001000,0.001000
1022.788462,-0.008406,0.001000,0.001000,0.001000,0.001000,0.001000
1022.807692,-0.007103,0.001000,0.001000,0.001000,0.001000,0.001000
1022.826923,-0.005796,0.001000,0.001000,0.001000,0.001000,0.001000
1022.846154,-0.004485,0.001000,0.001000,0.001000,0.001000,0.001000
1022.865385,-0.003170,0.001000,0.001000,0.001000,0.001000,0.001000
1022.884615,-0.001853,0.001000,0.001000,0.001000,0.001000,0.001000
1022.903846,-0.000535,0.001000,0.001000,0.001000,0.001000,0.001000
1022.923077,0.000783,0.001000,0.001000,0.001000,0.001000,0.001000
1022.942308,0.002101,0.001000,0.001000,0.001000,0.001000,0.001000
1022.961538,0.003417,0.001000,0.001000,0.001000,0.001000,0.001000
1022.980769,0.004731,0.001000,0.001000,0.001000,0.001000,0.001000
1023.000000,0.006042,0.001000,0.001000,0.001000,0.001000,0.001000
1023.019231,0.007349,0.001000,0.001000,0.001000,0.001000,0.001000
1023.038462,0.008650,0.001000,0.001000,0.001000,0.001000,0.001000
1023.057692,0.009945,0.001000,0.001000,0.001000,0.001000,0.001000
1023.076923,0.011234,0.001000,0.001000,0.001000,0.001000,0.001000
1023.096154,0.012515,0.001000,0.001000,0.001000,0.001000,0.001000
1023.115385,0.013786,0.001000,0.001000,0.001000,0.001000,0.001000
1023.134615,0.015049,0.001000,0.001000,0.001000,0.001000,0.001000
1023.153846,0.016301,0.001000,0.001000,0.001000,0.001000,0.001000
1023.173077,0.017541,0.001000,0.001000,0.001000,0.001000,0.001000
1023.192308,0.018770,0.001000,0.001000,0.001000,0.001000,0.001000
1023.211538,0.019985,0.001000,0.001000,0.001000,0.001000,0.001000
1023.230769,0.021187,0.001000,0.001000,0.001000,0.001000,0.001000
1023.250000,0.022373,0.001000,0.001000,0.001000,0.001000,0.001000
1023.269231,0.023544,0.001000,0.001000,0.001000,0.001000,0.001000
1023.288462,0.024699,0.001000,0.001000,0.001000,0.001000,0.001000
1023.307692,0.025837,0.001000,0.001000,0.001000,0.001000,0.001000
1023.326923,0.026957,0.001000,0.001000,0.001000,0.001000,0.001000
1023.346154,0.028057,0.001000,0.001000,0.001000,0.001000,0.001000
1023.365385,0.029139,0.001000,0.001000,0.001000,0.001000,0.001000
1023.384615,0.030200,0.001000,0.001000,0.001000,0.001000,0.001000
1023.403846,0.031240,0.001000,0.001000,0.001000,0.001000,0.001000
1023.423077,0.032259,0.001000,0.001000,0.001000,0.001000,0.001000
1023.442308,0.033255,0.001000,0.001000,0.001000,0.001000,0.001000
1023.461538,0.034228,0.001000,0.001000,0.001000,0.001000,0.001000
1023.480769,0.035177,0.001000,0.001000,0.001000,0.001000,0.001000
1023.500000,0.036101,0.001000,0.001000,0.001000,0.001000,0.001000
1023.519231,0.037001,0.001000,0.001000,0.001000,0.001000,0.001000
1023.538462,0.037875,0.001000,0.001000,0.001000,0.001000,0.001000
1023.557692,0.038722,0.001000,0.001000,0.001000,0.001000,0.001000
1023.576923,0.039543,0.001000,0.001000,0.001000,0.001000,0.001000
1023.596154,0.040336,0.001000,0.001000,0.001000,0.001000,0.001000
1023.615385,0.041101,0.001000,0.001000,0.001000,0.001000,0.001000
1023.634615,0.041837,0.001000,0.001000,0.001000,0.001000,0.001000
1023.653846,0.042544,0.001000,0.001000,0.001000,0.001000,0.001000
1023.673077,0.043222,0.001000,0.001000,0.001000,0.001000,0.001000
1023.692308,0.043870,0.001000,0.001000,0.001000,0.001000,0.001000
1023.711538,0.044487,0.001000,0.001000,0.001000,0.001000,0.001000
1023.730769,0.045073,0.001000,0.001000,0.001000,0.001000,0.001000
1023.750000,0.045628,0.001000,0.001000,0.001000,0.001000,0.001000
1023.769231,0.046152,0.001000,0.001000,0.001000,0.001000,0.001000
1023.788462,0.046643,0.001000,0.001000,0.001000,0.001000,0.001000
1023.807692,0.047101,0.001000,0.001000,0.001000,0.001000,0.001000
1023.826923,0.047527,0.001000,0.001000,0.001000,0.001000,0.001000
1023.846154,0.047920,0.001000,0.001000,0.001000,0.001000,0.001000
1023.865385,0.048280,0.001000,0.001000,0.001000,0.001000,0.001000
1023.884615,0.048606,0.001000,0.001000,0.001000,0.001000,0.001000
1023.903846,0.048898,0.001000,0.001000,0.001000,0.001000,0.001000
1023.923077,0.049156,0.001000,0.001000,0.001000,0.001000,0.001000
1023.942308,0.049380,0.001000,0.001000,0.001000,0.001000,0.001000
1023.961538,0.049570,0.001000,0.001000,0.001000,0.001000,0.001000
1023.980769,0.049725,0.001000,0.001000,0.001000,0.001000,0.001000
1024.000000,0.049846,0.001000,0.001000,0.001000,0.001000,0.001000
1024.019231,0.049932,0.001000,0.001000,0.001000,0.001000,0.001000
1024.038462,0.049983,0.001000,0.001000,0.001000,0.001000,0.001000
1024.057692,0.050000,0.001000,0.001000,0.001000,0.001000,0.001000
1024.076923,0.049982,0.001000,0.001000,0.001000,0.001000,0.001000
1024.096154,0.049929,0.001000,0.001000,0.001000,0.001000,0.001000
1024.115385,0.049841,0.001000,0.001000,0.001000,0.001000,0.001000
1024.134615,0.049719,0.001000,0.001000,0.001000,0.001000,0.001000
1024.153846,0.049562,0.001000,0.001000,0.001000,0.001000,0.001000
1024.173077,0.049371,0.001000,0.001000,0.001000,0.001000,0.001000
1024.192308,0.049145,0.001000,0.001000,0.001000,0.001000,0.001000
1024.211538,0.048885,0.001000,0.001000,0.001000,0.001000,0.001000
1024.230769,0.048591,0.001000,0.001000,0.001000,0.001000,0.001000
1024.250000,0.048264,0.001000,0.001000,0.001000,0.001000,0.001000
1024.269231,0.047902,0.001000,0.001000,0.001000,0.001000,0.001000
1024.288462,0.047508,0.001000,0.001000,0.001000,0.001000,0.001000
1024.307692,0.047080,0.001000,0.001000,0.001000,0.001000,0.001000
1024.326923,0.046620,0.001000,0.001000,0.001000,0.001000,0.001000
1024.346154,0.046128,0.001000,0.001000,0.001000,0.001000,0.001000
1024.365385,0.045603,0.001000,0.001000,0.001000,0.001000,0.001000
1024.384615,0.045046,0.001000,0.001000,0.001000,0.001000,0.001000
1024.403846,0.044459,0.001000,0.001000,0.001000,0.001000,0.001000
1024.423077,0.043840,0.001000,0.001000,0.001000,0.001000,0.001000
1024.442308,0.043191,0.001000,0.001000,0.001000,0.001000,0.001000
1024.461538,0.042512,0.001000,0.001000,0.001000,0.001000,0.001000
1024.480769,0.041803,0.001000,0.001000,0.001000,0.001000,0.001000
1024.500000,0.041065,0.001000,0.001000,0.001000,0.001000,0.001000
1024.519231,0.040299,0.001000,0.001000,0.001000,0.001000,0.001000
1024.538462,0.039504,0.001000,0.001000,0.001000,0.001000,0.001000
1024.557692,0.038683,0.001000,0.001000,0.001000,0.001000,0.001000
1024.576923,0.037834,0.001000,0.001000,0.001000,0.001000,0.001000
1024.596154,0.036959,0.001000,0.001000,0.001000,0.001000,0.001000
1024.615385,0.036058,0.001000,0.001000,0.001000,0.001000,0.001000
1024.634615,0.035132,0.001000,0.001000,0.001000,0.001000,0.001000
1024.653846,0.034182,0.001000,0.001000,0.001000,0.001000,0.001000
1024.673077,0.033208,0.001000,0.001000,0.001000,0.001000,0.001000
1024.692308,0.032211,0.001000,0.001000,0.001000,0.001000,0.001000
1024.711538,0.031192,0.001000,0.001000,0.001000,0.001000,0.001000
1024.730769,0.030150,0.001000,0.001000,0.001000,0.001000,0.001000
1024.750000,0.029088,0.001000,0.001000,0.001000,0.001000,0.001000
1024.769231,0.028006,0.001000,0.001000,0.001000,0.001000,0.001000
1024.788462,0.026904,0.001000,0.001000,0.001000,0.001000,0.001000
1024.807692,0.025784,0.001000,0.001000,0.001000,0.001000,0.001000
1024.826923,0.024645,0.001000,0.001000,0.001000,0.001000,0.001000
1024.846154,0.023490,0.001000,0.001000,0.001000,0.001000,0.001000
1024.865385,0.022318,0.001000,0.001000,0.001000,0.001000,0.001000
1024.884615,0.021130,0.001000,0.001000,0.001000,0.001000,0.001000
1024.903846,0.019928,0.001000,0.001000,0.001000,0.001000,0.001000
1024.923077,0.018712,0.001000,0.001000,0.001000,0.001000,0.001000
1024.942308,0.017483,0.001000,0.001000,0.001000,0.001000,0.001000
1024.961538,0.016242,0.001000,0.001000,0.001000,0.001000,0.001000
1024.980769,0.014989,0.001000,0.001000,0.001000,0.001000,0.001000
1025.000000,0.013727,0.001000,0.001000,0.001000,0.001000,0.001000
1025.019231,0.012454,0.001000,0.001000,0.001000,0.001000,0.001000
1025.038462,0.011173,0.001000,0.001000,0.001000,0.001000,0.001000
1025.057692,0.009884,0.001000,0.001000,0.001000,0.001000,0.001000
1025.076923,0.008589,0.001000,0.001000,0.001000,0.001000,0.001000
1025.096154,0.007287,0.001000,0.001000,0.001000,0.001000,0.001000
1025.115385,0.005980,0.001000,0.001000,0.001000,0.001000,0.001000
1025.134615,0.004669,0.001000,0.001000,0.001000,0.001000,0.001000
1025.153846,0.003355,0.001000,0.001000,0.001000,0.001000,0.001000
1025.173077,0.002039,0.001000,0.001000,0.001000,0.001000,0.001000
1025.192308,0.000721,0.001000,0.001000,0.001000,0.001000,0.001000
1025.211538,-0.000598,0.001000,0.001000,0.001000,0.001000,0.001000
1025.230769,-0.001916,0.001000,0.001000,0.001000,0.001000,0.001000
1025.250000,-0.003232,0.001000,0.001000,0.001000,0.001000,0.001000
1025.269231,-0.004547,0.001000,0.001000,0.001000,0.001000,0.001000
1025.288462,-0.005858,0.001000,0.001000,0.001000,0.001000,0.001000
1025.307692,-0.007165,0.001000,0.001000,0.001000,0.001000,0.001000
1025.326923,-0.008467,0.001000,0.001000,0.001000,0.001000,0.001000
1025.346154,-0.009764,0.001000,0.001000,0.001000,0.001000,0.001000
1025.365385,-0.011053,0.001000,0.001000,0.001000,0.001000,0.001000
1025.384615,-0.012335,0.001000,0.001000,0.001000,0.001000,0.001000
1025.403846,-0.013608,0.001000,0.001000,0.001000,0.001000,0.001000
1025.423077,-0.014872,0.001000,0.001000,0.001000,0.001000,0.001000
1025.442308,-0.016125,0.001000,0.001000,0.001000,0.001000,0.001000
1025.461538,-0.017368,0.001000,0.001000,0.001000,0.001000,0.001000
1025.480769,-0.018598,0.001000,0.001000,0.001000,0.001000,0.001000
1025.500000,-0.019815,0.001000,0.001000,0.001000,0.001000,0.001000
1025.519231,-0.021019,0.001000,0.001000,0.001000,0.001000,0.001000
1025.538462,-0.022207,0.001000,0.001000,0.001000,0.001000,0.001000
1025.557692,-0.023381,0.001000,0.001000,0.001000,0.001000,0.001000
1025.576923,-0.024538,0.001000,0.001000,0.001000,0.001000,0.001000
1025.596154,-0.025678,0.001000,0.001000,0.001000,0.001000,0.001000
1025.615385,-0.026800,0.001000,0.001000,0.001000,0.001000,0.001000
1025.634615,-0.027904,0.001000,0.001000,0.001000,0.001000,0.001000
1025.653846,-0.028988,0.001000,0.001000,0.001000,0.001000,0.001000
1025.673077,-0.030052,0.001000,0.001000,0.001000,0.001000,0.001000
1025.692308,-0.031095,0.001000,0.001000,0.001000,0.001000,0.001000
1025.711538,-0.032117,0.001000,0.001000,0.001000,0.001000,0.001000
1025.730769,-0.033116,0.001000,0.001000,0.001000,0.001000,0.001000
1025.750000,-0.034092,0.001000,0.001000,0.001000,0.001000,0.001000
1025.769231,-0.035045,0.001000,0.001000,0.001000,0.001000,0.001000
1025.788462,-0.035973,0.001000,0.001000,0.001000,0.001000,0.001000
1025.807692,-0.036876,0.001000,0.001000,0.001000,0.001000,0.001000
1025.826923,-0.037753,0.001000,0.001000,0.001000,0.001000,0.001000
1025.846154,-0.038604,0.001000,0.001000,0.001000,0.001000,0.001000
1025.865385,-0.039429,0.001000,0.001000,0.001000,0.001000,0.001000
1025.884615,-0.040226,0.001000,0.001000,0.001000,0.001000,0.001000
1025.903846,-0.040995,0.001000,0.001000,0.001000,0.001000,0.001000
1025.923077,-0.041735,0.001000,0.001000,0.001000,0.001000,0.001000
1025.942308,-0.042447,0.001000,0.001000,0.001000,0.001000,0.001000
1025.961538,-0.043129,0.001000,0.001000,0.001000,0.001000,0.001000
1025.980769,-0.043781,0.001000,0.001000,0.001000,0.001000,0.001000
1026.000000,-0.044402,0.001000,0.001000,0.001000,0.001000,0.001000
1026.019231,-0.044993,0.001000,0.001000,0.001000,0.001000,0.001000
1026.038462,-0.045552,0.001000,0.001000,0.001000,0.001000,0.001000
1026.057692,-0.046080,0.001000,0.001000,0.001000,0.001000,0.001000
1026.076923,-0.046576,0.001000,0.001000,0.001000,0.001000,0.001000
1026.096154,-0.047039,0.001000,0.001000,0.001000,0.001000,0.001000
1026.115385,-0.047469,0.001000,0.001000,0.001000,0.001000,0.001000
1026.134615,-0.047867,0.001000,0.001000,0.001000,0.001000,0.001000
1026.153846,-0.048231,0.001000,0.001000,0.001000,0.001000,0.001000
1026.173077,-0.048562,0.001000,0.001000,0.001000,0.001000,0.001000
1026.192308,-0.048859,0.001000,0.001000,0.001000,0.001000,0.001000
1026.211538,-0.049122,0.001000,0.001000,0.001000,0.001000,0.001000
1026.230769,-0.049351,0.001000,0.001000,0.001000,0.001000,0.001000
1026.250000,-0.049546,0.001000,0.001000,0.001000,0.001000,0.001000
1026.269231,-0.049706,0.001000,0.001000,0.001000,0.001000,0.001000
1026.288462,-0.049831,0.001000,0.001000,0.001000,0.001000,0.001000
1026.307692,-0.049922,0.001000,0.001000,0.001000,0.001000,0.001000
1026.326923,-0.049978,0.001000,0.001000,0.001000,0.001000,0.001000
1026.346154,-0.050000,0.001000,0.001000,0.001000,0.001000,0.001000
1026.365385,-0.049986,0.001000,0.001000,0.001000,0.001000,0.001000
1026.384615,-0.049938,0.001000,0.001000,0.001000,0.001000,0.001000
1026.403846,-0.049856,0.001000,0.001000,0.001000,0.001000,0.001000
1026.423077,-0.049738,0.001000,0.001000,0.001000,0.001000,0.001000
1026.442308,-0.049586,0.001000,0.001000,0.001000,0.001000,0.001000
1026.461538,-0.049400,0.001000,0.001000,0.001000,0.001000,0.001000
1026.480769,-0.049179,0.001000,0.001000,0.001000,0.001000,0.001000
1026.500000,-0.048924,0.001000,0.001000,0.001000,0.001000,0.001000
1026.519231,-0.048635,0.001000,0.001000,0.001000,0.001000,0.001000
1026.538462,-0.048312,0.001000,0.001000,0.001000,0.001000,0.001000
1026.557692,-0.047955,0.001000,0.001000,0.001000,0.001000,0.001000
1026.576923,-0.047565,0.001000,0.001000,0.001000,0.001000,0.001000
1026.596154,-0.047143,0.001000,0.001000,0.001000,0.001000,0.001000
1026.615385,-0.046687,0.001000,0.001000,0.001000,0.001000,0.001000
1026.634615,-0.046199,0.001000,0.001000,0.001000,0.001000,0.001000
1026.653846,-0.045679,0.001000,0.001000,0.001000,0.001000,0.001000
1026.673077,-0.045127,0.001000,0.001000,0.001000,0.001000,0.001000
1026.692308,-0.044543,0.001000,0.001000,0.001000,0.001000,0.001000
1026.711538,-0.043929,0.001000,0.001000,0.001000,0.001000,0.001000
1026.730769,-0.043284,0.001000,0.001000,0.001000,0.001000,0.001000
1026.750000,-0.042609,0.001000,0.001000,0.001000,0.001000,0.001000
1026.769231,-0.041904,0.001000,0.001000,0.001000,0.001000,0.001000
1026.788462,-0.041171,0.001000,0.001000,0.001000,0.001000,0.001000
1026.807692,-0.040408,0.001000,0.001000,0.001000,0.001000,0.001000
1026.826923,-0.039618,0.001000,0.001000,0.001000,0.001000,0.001000
1026.846154,-0.038800,0.001000,0.001000,0.001000,0.001000,0.001000
1026.865385,-0.037955,0.001000,0.001000,0.001000,0.001000,0.001000
1026.884615,-0.037083,0.001000,0.001000,0.001000,0.001000,0.001000
1026.903846,-0.036186,0.001000,0.001000,0.001000,0.001000,0.001000
1026.923077,-0.035264,0.001000,0.001000,0.001000,0.001000,0.001000
1026.942308,-0.034317,0.001000,0.001000,0.001000,0.001000,0.001000
1026.961538,-0.033346,0.001000,0.001000,0.001000,0.001000,0.001000
1026.980769,-0.032353,0.001000,0.001000,0.001000,0.001000,0.001000
1027.000000,-0.031336,0.001000,0.001000,0.001000,0.001000,0.001000
1027.019231,-0.030298,0.001000,0.001000,0.001000,0.001000,0.001000
1027.038462,-0.029239,0.001000,0.001000,0.001000,0.001000,0.001000
1027.057692,-0.028159,0.001000,0.001000,0.001000,0.001000,0.001000
1027.076923,-0.027060,0.001000,0.001000,0.001000,0.001000,0.001000
1027.096154,-0.025942,0.001000,0.001000,0.001000,0.001000,0.001000
1027.115385,-0.024806,0.001000,0.001000,0.001000,0.001000,0.001000
1027.134615,-0.023653,0.001000,0.001000,0.001000,0.001000,0.001000
1027.153846,-0.022483,0.001000,0.001000,0.001000,0.001000,0.001000
1027.173077,-0.021298,0.001000,0.001000,0.001000,0.001000,0.001000
1027.192308,-0.020098,0.001000,0.001000,0.001000,0.001000,0.001000
1027.211538,-0.018884,0.001000,0.001000,0.001000,0.001000,0.001000
1027.230769,-0.017657,0.001000,0.001000,0.001000,0.001000,0.001000
1027.250000,-0.016417,0.001000,0.001000,0.001000,0.001000,0.001000
1027.269231,-0.015166,0.001000,0.001000,0.001000,0.001000,0.001000
1027.288462,-0.013905,0.001000,0.001000,0.001000,0.001000,0.001000
1027.307692,-0.012634,0.001000,0.001000,0.001000,0.001000,0.001000
1027.326923,-0.011354,0.001000,0.001000,0.001000,0.001000,0.001000
1027.346154,-0.010066,0.001000,0.001000,0.001000,0.001000,0.001000
1027.365385,-0.008771,0.001000,0.001000,0.001000,0.001000,0.001000
1027.384615,-0.007470,0.001000,0.001000,0.001000,0.001000,0.001000
1027.403846,-0.006164,0.001000,0.001000,0.001000,0.001000,0.001000
1027.423077,-0.004854,0.001000,0.001000,0.001000,0.001000,0.001000
1027.442308,-0.003540,0.001000,0.001000,0.001000,0.001000,0.001000
1027.461538,-0.002224,0.001000,0.001000,0.001000,0.001000,0.001000
1027.480769,-0.000906,0.001000,0.001000,0.001000,0.001000,0.001000
1027.500000,0.000412,0.001000,0.001000,0.001000,0.001000,0.001000
1027.519231,0.001730,0.001000,0.001000,0.001000,0.001000,0.001000
1027.538462,0.003047,0.001000,0.001000,0.001000,0.001000,0.001000
1027.557692,0.004362,0.001000,0.001000,0.001000,0.001000,0.001000
1027.576923,0.005674,0.001000,0.001000,0.001000,0.001000,0.001000
1027.596154,0.006982,0.001000,0.001000,0.001000,0.001000,0.001000
1027.615385,0.008285,0.001000,0.001000,0.001000,0.001000,0.001000
1027.634615,0.009582,0.001000,0.001000,0.001000,0.001000,0.001000
1027.653846,0.010872,0.001000,0.001000,0.001000,0.001000,0.001000
1027.673077,0.012155,0.001000,0.001000,0.001000,0.001000,0.001000
1027.692308,0.013430,0.001000,0.001000,0.001000,0.001000,0.001000
1027.711538,0.014695,0.001000,0.001000,0.001000,0.001000,0.001000
1027.730769,0.015950,0.001000,0.001000,0.001000,0.001000,0.001000
1027.750000,0.017194,0.001000,0.001000,0.001000,0.001000,0.001000
1027.769231,0.018426,0.001000,0.001000,0.001000,0.001000,0.001000
1027.788462,0.019645,0.001000,0.001000,0.001000,0.001000,0.001000
1027.807692,0.020850,0.001000,0.001000,0.001000,0.001000,0.001000
1027.826923,0.022041,0.001000,0.001000,0.001000,0.001000,0.001000
1027.846154,0.023217,0.001000,0.001000,0.001000,0.001000,0.001000
1027.865385,0.024376,0.001000,0.001000,0.001000,0.001000,0.001000
1027.884615,0.025519,0.001000,0.001000,0.001000,0.001000,0.001000
1027.903846,0.026644,0.001000,0.001000,0.001000,0.001000,0.001000
1027.923077,0.027750,0.001000,0.001000,0.001000,0.001000,0.001000
1027.942308,0.028837,0.001000,0.001000,0.001000,0.001000,0.001000
1027.961538,0.029904,0.001000,0.001000,0.001000,0.001000,0.001000
1027.980769,0.030950,0.001000,0.001000,0.001000,0.001000,0.001000
1028.000000,0.031974,0.001000,0.001000,0.001000,0.001000,0.001000
1028.019231,0.032977,0.001000,0.001000,0.001000,0.001000,0.001000
1028.038462,0.033956,0.001000,0.001000,0.001000,0.001000,0.001000
1028.057692,0.034912,0.001000,0.001000,0.001000,0.001000,0.001000
1028.076923,0.035844,0.001000,0.001000,0.001000,0.001000,0.001000
1028.096154,0.036750,0.001000,0.001000,0.001000,0.001000,0.001000
1028.115385,0.037631,0.001000,0.001000,0.001000,0.001000,0.001000
1028.134615,0.038486,0.001000,0.001000,0.001000,0.001000,0.001000
1028.153846,0.039315,0.001000,0.001000,0.001000,0.001000,0.001000
1028.173077,0.040115,0.001000,0.001000,0.001000,0.001000,0.001000
1028.192308,0.040888,0.001000,0.001000,0.001000,0.001000,0.001000
1028.211538,0.041633,0.001000,0.001000,0.001000,0.001000,0.001000
1028.230769,0.042348,0.001000,0.001000,0.001000,0.001000,0.001000
1028.250000,0.043035,0.001000,0.001000,0.001000,0.001000,0.001000
1028.269231,0.043691,0.001000,0.001000,0.001000,0.001000,0.001000
1028.288462,0.044317,0.001000,0.001000,0.001000,0.001000,0.001000
1028.307692,0.044912,0.001000,0.001000,0.001000,0.001000,0.001000
1028.326923,0.045475,0.001000,0.001000,0.001000,0.001000,0.001000
1028.346154,0.046008,0.001000,0.001000,0.001000,0.001000,0.001000
1028.365385,0.046508,0.001000,0.001000,0.001000,0.001000,0.001000
1028.384615,0.046976,0.001000,0.001000,0.001000,0.001000,0.001000
1028.403846,0.047411,0.001000,0.001000,0.001000,0.001000,0.001000
1028.423077,0.047813,0.001000,0.001000,0.001000,0.001000,0.001000
1028.442308,0.048182,0.001000,0.001000,0.001000,0.001000,0.001000
1028.461538,0.048518,0.001000,0.001000,0.001000,0.001000,0.001000
1028.480769,0.048819,0.001000,0.001000,0.001000,0.001000,0.001000
1028.500000,0.049087,0.001000,0.001000,0.001000,0.001000,0.001000
1028.519231,0.049321,0.001000,0.001000,0.001000,0.001000,0.001000
1028.538462,0.049520,0.001000,0.001000,0.001000,0.001000,0.001000
1028.557692,0.049685,0.001000,0.001000,0.001000,0.001000,0.001000
1028.576923,0.049816,0.001000,0.001000,0.001000,0.001000,0.001000
1028.596154,0.049911,0.001000,0.001000,0.001000,0.001000,0.001000
1028.615385,0.049973,0.001000,0.001000,0.001000,0.001000,0.001000
1028.634615,0.049999,0.001000,0.001000,0.001000,0.001000,0.001000
1028.653846,0.049990,0.001000,0.001000,0.001000,0.001000,0.001000
1028.673077,0.049947,0.001000,0.001000,0.001000,0.001000,0.001000
1028.692308,0.049869,0.001000,0.001000,0.001000,0.001000,0.001000
1028.711538,0.049757,0.001000,0.001000,0.001000,0.001000,0.001000
1028.730769,0.049610,0.001000,0.001000,0.001000,0.001000,0.001000
1028.750000,0.049428,0.001000,0.001000,0.001000,0.001000,0.001000
1028.769231,0.049212,0.001000,0.001000,0.001000,0.001000,0.001000
1028.788462,0.048962,0.001000,0.001000,0.001000,0.001000,0.001000
1028.807692,0.048677,0.001000,0.001000,0.001000,0.001000,0.001000
1028.826923,0.048359,0.001000,0.001000,0.001000,0.001000,0.001000
1028.846154,0.048007,0.001000,0.001000,0.001000,0.001000,0.001000
1028.865385,0.047622,0.001000,0.001000,0.001000,0.001000,0.001000
1028.884615,0.047204,0.001000,0.001000,0.001000,0.001000,0.001000
1028.903846,0.046753,0.001000,0.001000,0.001000,0.001000,0.001000
1028.923077,0.046269,0.001000,0.001000,0.001000,0.001000,0.001000
1028.942308,0.045754,0.001000,0.001000,0.001000,0.001000,0.001000
1028.961538,0.045206,0.001000,0.001000,0.001000,0.001000,0.001000
1028.980769,0.044627,0.001000,0.001000,0.001000,0.001000,0.001000
1029.000000,0.044017,0.001000,0.001000,0.001000,0.001000,0.001000
1029.019231,0.043376,0.001000,0.001000,0.001000,0.001000,0.001000
1029.038462,0.042706,0.001000,0.001000,0.001000,0.001000,0.001000
1029.057692,0.042005,0.001000,0.001000,0.001000,0.001000,0.001000
1029.076923,0.041276,0.001000,0.001000,0.001000,0.001000,0.001000
1029.096154,0.040517,0.001000,0.001000,0.001000,0.001000,0.001000
1029.115385,0.039731,0.001000,0.001000,0.001000,0.001000,0.001000
1029.134615,0.038916,0.001000,0.001000,0.001000,0.001000,0.001000
1029.153846,0.038075,0.001000,0.001000,0.001000,0.001000,0.001000
1029.173077,0.037208,0.001000,0.001000,0.001000,0.001000,0.001000
1029.192308,0.036314,0.001000,0.001000,0.001000,0.001000,0.001000
1029.211538,0.035395,0.001000,0.001000,0.001000,0.001000,0.001000
1029.230769,0.034452,0.001000,0.001000,0.001000,0.001000,0.001000
1029.250000,0.033484,0.001000,0.001000,0.001000,0.001000,0.001000
1029.269231,0.032494,0.001000,0.001000,0.001000,0.001000,0.001000
1029.288462,0.031480,0.001000,0.001000,0.001000,0.001000,0.001000
1029.307692,0.030445,0.001000,0.001000,0.001000,0.001000,0.001000
1029.326923,0.029389,0.001000,0.001000,0.001000,0.001000,0.001000
1029.346154,0.028312,0.001000,0.001000,0.001000,0.001000,0.001000
1029.365385,0.027216,0.001000,0.001000,0.001000,0.001000,0.001000
1029.384615,0.026101,0.001000,0.001000,0.001000,0.001000,0.001000
1029.403846,0.024967,0.001000,0.001000,0.001000,0.001000,0.001000
1029.423077,0.023816,0.001000,0.001000,0.001000,0.001000,0.001000
1029.442308,0.022649,0.001000,0.001000,0.001000,0.001000,0.001000
1029.461538,0.021466,0.001000,0.001000,0.001000,0.001000,0.001000
1029.480769,0.020268,0.001000,0.001000,0.001000,0.001000,0.001000
1029.500000,0.019055,0.001000,0.001000,0.001000,0.001000,0.001000
1029.519231,0.017830,0.001000,0.001000,0.001000,0.001000,0.001000
1029.538462,0.016592,0.001000,0.001000,0.001000,0.001000,0.001000
1029.557692,0.015343,0.001000,0.001000,0.001000,0.001000,0.001000
1029.576923,0.014083,0.001000,0.001000,0.001000,0.001000,0.001000
1029.596154,0.012813,0.001000,0.001000,0.001000,0.001000,0.001000
1029.615385,0.011534,0.001000,0.001000,0.001000,0.001000,0.001000
1029.634615,0.010247,0.001000,0.001000,0.001000,0.001000,0.001000
1029.653846,0.008954,0.001000,0.001000,0.001000,0.001000,0.001000
1029.673077,0.007654,0.001000,0.001000,0.001000,0.001000,0.001000
1029.692308,0.006348,0.001000,0.001000,0.001000,0.001000,0.001000
1029.711538,0.005038,0.001000,0.001000,0.001000,0.001000,0.001000
1029.730769,0.003725,0.001000,0.001000,0.001000,0.001000,0.001000
1029.750000,0.002409,0.001000,0.001000,0.001000,0.001000,0.001000
1029.769231,0.001091,0.001000,0.001000,0.001000,0.001000,0.001000
1029.788462,-0.000227,0.001000,0.001000,0.001000,0.001000,0.001000
1029.807692,-0.001545,0.001000,0.001000,0.001000,0.001000,0.001000
1029.826923,-0.002862,0.001000,0.001000,0.001000,0.001000,0.001000
1029.846154,-0.004177,0.001000,0.001000,0.001000,0.001000,0.001000
1029.865385,-0.005490,0.001000,0.001000,0.001000,0.001000,0.001000
1029.884615,-0.006798,0.001000,0.001000,0.001000,0.001000,0.001000
1029.903846,-0.008102,0.001000,0.001000,0.001000,0.001000,0.001000
1029.923077,-0.009400,0.001000,0.001000,0.001000,0.001000,0.001000
1029.942308,-0.010691,0.001000,0.001000,0.001000,0.001000,0.001000
1029.961538,-0.011975,0.001000,0.001000,0.001000,0.001000,0.001000
1029.980769,-0.013251,0.001000,0.001000,0.001000,0.001000,0.001000
1030.000000,0.000000,0.001000,0.001000,0.001000,0.001000,0.001000
1030.019231,0.001247,0.001000,0.001000,0.001000,0.001000,0.001000
1030.038462,0.002494,0.001000,0.001000,0.001000,0.001000,0.001000
1030.057692,0.003738,0.001000,0.001000,0.001000,0.001000,0.001000
1030.076923,0.004981,0.001000,0.001000,0.001000,0.001000,0.001000
1030.096154,0.006220,0.001000,0.001000,0.001000,0.001000,0.001000
1030.115385,0.007456,0.001000,0.001000,0.001000,0.001000,0.001000
1030.134615,0.008687,0.001000,0.001000,0.001000,0.001000,0.001000
1030.153846,0.009912,0.001000,0.001000,0.001000,0.001000,0.001000
1030.173077,0.011132,0.001000,0.001000,0.001000,0.001000,0.001000
1030.192308,0.012344,0.001000,0.001000,0.001000,0.001000,0.001000
1030.211538,0.013549,0.001000,0.001000,0.001000,0.001000,0.001000
1030.230769,0.014745,0.001000,0.001000,0.001000,0.001000,0.001000
1030.250000,0.015932,0.001000,0.001000,0.001000,0.001000,0.001000
1030.269231,0.017110,0.001000,0.001000,0.001000,0.001000,0.001000
1030.288462,0.018276,0.001000,0.001000,0.001000,0.001000,0.001000
1030.307692,0.019431,0.001000,0.001000,0.001000,0.001000,0.001000
1030.326923,0.020574,0.001000,0.001000,0.001000,0.001000,0.001000
1030.346154,0.021705,0.001000,0.001000,0.001000,0.001000,0.001000
1030.365385,0.022821,0.001000,0.001000,0.001000,0.001000,0.001000
1030.384615,0.023924,0.001000,0.001000,0.001000,0.001000,0.001000
1030.403846,0.025012,0.001000,0.001000,0.001000,0.001000,0.001000
1030.423077,0.026084,0.001000,0.001000,0.001000,0.001000,0.001000
1030.442308,0.027140,0.001000,0.001000,0.001000,0.001000,0.001000
1030.461538,0.028179,0.001000,0.001000,0.001000,0.001000,0.001000
1030.480769,0.029200,0.001000,0.001000,0.001000,0.001000,0.001000
1030.500000,0.030204,0.001000,0.001000,0.001000,0.001000,0.001000
1030.519231,0.031188,0.001000,0.001000,0.001000,0.001000,0.001000
1030.538462,0.032153,0.001000,0.001000,0.001000,0.001000,0.001000
1030.557692,0.033098,0.001000,0.001000,0.001000,0.001000,0.001000
1030.576923,0.034023,0.001000,0.001000,0.001000,0.001000,0.001000
1030.596154,0.034926,0.001000,0.001000,0.001000,0.001000,0.001000
1030.615385,0.035808,0.001000,0.001000,0.001000,0.001000,0.001000
1030.634615,0.036667,0.001000,0.001000,0.001000,0.001000,0.001000
1030.653846,0.037504,0.001000,0.001000,0.001000,0.001000,0.001000
1030.673077,0.038317,0.001000,0.001000,0.001000,0.001000,0.001000
1030.692308,0.039106,0.001000,0.001000,0.001000,0.001000,0.001000
1030.711538,0.039871,0.001000,0.001000,0.001000,0.001000,0.001000
1030.730769,0.040611,0.001000,0.001000,0.001000,0.001000,0.001000
1030.750000,0.041326,0.001000,0.001000,0.001000,0.001000,0.001000
1030.769231,0.042015,0.001000,0.001000,0.001000,0.001000,0.001000
1030.788462,0.042678,0.001000,0.001000,0.001000,0.001000,0.001000
1030.807692,0.043315,0.001000,0.001000,0.001000,0.001000,0.001000
1030.826923,0.043924,0.001000,0.001000,0.001000,0.001000,0.001000
1030.846154,0.044507,0.001000,0.001000,0.001000,0.001000,0.001000
1030.865385,0.045061,0.001000,0.001000,0.001000,0.001000,0.001000
1030.884615,0.045588,0.001000,0.001000,0.001000,0.001000,0.001000
1030.903846,0.046086,0.001000,0.001000,0.001000,0.001000,0.001000
1030.923077,0.046555,0.001000,0.001000,0.001000,0.001000,0.001000
1030.942308,0.046995,0.001000,0.001000,0.001000,0.001000,0.001000
1030.961538,0.047407,0.001000,0.001000,0.001000,0.001000,0.001000
1030.980769,0.047788,0.001000,0.001000,0.001000,0.001000,0.001000
1031.000000,0.048140,0.001000,0.001000,0.001000,0.001000,0.001000
1031.019231,0.048462,0.001000,0.001000,0.001000,0.001000,0.001000
1031.038462,0.048754,0.001000,0.001000,0.001000,0.001000,0.001000
1031.057692,0.049016,0.001000,0.001000,0.001000,0.001000,0.001000
1031.076923,0.049247,0.001000,0.001000,0.001000,0.001000,0.001000
1031.096154,0.049447,0.001000,0.001000,0.001000,0.001000,0.001000
1031.115385,0.049617,0.001000,0.001000,0.001000,0.001000,0.001000
1031.134615,0.049755,0.001000,0.001000,0.001000,0.001000,0.001000
1031.153846,0.049863,0.001000,0.001000,0.001000,0.001000,0.001000
1031.173077,0.049940,0.001000,0.001000,0.001000,0.001000,0.001000
1031.192308,0.049985,0.001000,0.001000,0.001000,0.001000,0.001000
1031.211538,0.050000,0.001000,0.001000,0.001000,0.001000,0.001000
1031.230769,0.049983,0.001000,0.001000,0.001000,0.001000,0.001000
1031.250000,0.049936,0.001000,0.001000,0.001000,0.001000,0.001000
1031.269231,0.049857,0.001000,0.001000,0.001000,0.001000,0.001000
1031.288462,0.049747,0.001000,0.001000,0.001000,0.001000,0.001000
1031.307692,0.049606,0.001000,0.001000,0.001000,0.001000,0.001000
1031.326923,0.049435,0.001000,0.001000,0.001000,0.001000,0.001000
1031.346154,0.049232,0.001000,0.001000,0.001000,0.001000,0.001000
1031.365385,0.048999,0.001000,0.001000,0.001000,0.001000,0.001000
1031.384615,0.048736,0.001000,0.001000,0.001000,0.001000,0.001000
1031.403846,0.048442,0.001000,0.001000,0.001000,0.001000,0.001000
1031.423077,0.048118,0.001000,0.001000,0.001000,0.001000,0.001000
1031.442308,0.047764,0.001000,0.001000,0.001000,0.001000,0.001000
1031.461538,0.047381,0.001000,0.001000,0.001000,0.001000,0.001000
1031.480769,0.046968,0.001000,0.001000,0.001000,0.001000,0.001000
1031.500000,0.046525,0.001000,0.001000,0.001000,0.001000,0.001000
1031.519231,0.046054,0.001000,0.001000,0.001000,0.001000,0.001000
1031.538462,0.045554,0.001000,0.001000,0.001000,0.001000,0.001000
1031.557692,0.045026,0.001000,0.001000,0.001000,0.001000,0.001000
1031.576923,0.044469,0.001000,0.001000,0.001000,0.001000,0.001000
1031.596154,0.043885,0.001000,0.001000,0.001000,0.001000,0.001000
1031.615385,0.043274,0.001000,0.001000,0.001000,0.001000,0.001000
1031.634615,0.042636,0.001000,0.001000,0.001000,0.001000,0.001000
1031.653846,0.041971,0.001000,0.001000,0.001000,0.001000,0.001000
1031.673077,0.041280,0.001000,0.001000,0.001000,0.001000,0.001000
1031.692308,0.040564,0.001000,0.001000,0.001000,0.001000,0.001000
1031.711538,0.039822,0.001000,0.001000,0.001000,0.001000,0.001000
1031.730769,0.039055,0.001000,0.001000,0.001000,0.001000,0.001000
1031.750000,0.038264,0.001000,0.001000,0.001000,0.001000,0.001000
1031.769231,0.037450,0.001000,0.001000,0.001000,0.001000,0.001000
1031.788462,0.036612,0.001000,0.001000,0.001000,0.001000,0.001000
1031.807692,0.035751,0.001000,0.001000,0.001000,0.001000,0.001000
1031.826923,0.034868,0.001000,0.001000,0.001000,0.001000,0.001000
1031.846154,0.033963,0.001000,0.001000,0.001000,0.001000,0.001000
1031.865385,0.033037,0.001000,0.001000,0.001000,0.001000,0.001000
1031.884615,0.032091,0.001000,0.001000,0.001000,0.001000,0.001000
1031.903846,0.031124,0.001000,0.001000,0.001000,0.001000,0.001000
1031.923077,0.030139,0.001000,0.001000,0.001000,0.001000,0.001000
1031.942308,0.029134,0.001000,0.001000,0.001000,0.001000,0.001000
1031.961538,0.028111,0.001000,0.001000,0.001000,0.001000,0.001000
1031.980769,0.027071,0.001000,0.001000,0.001000,0.001000,0.001000
1032.000000,0.026014,0.001000,0.001000,0.001000,0.001000,0.001000
1032.019231,0.024941,0.001000,0.001000,0.001000,0.001000,0.001000
1032.038462,0.023852,0.001000,0.001000,0.001000,0.001000,0.001000
1032.057692,0.022749,0.001000,0.001000,0.001000,0.001000,0.001000
1032.076923,0.021631,0.001000,0.001000,0.001000,0.001000,0.001000
1032.096154,0.020500,0.001000,0.001000,0.001000,0.001000,0.001000
1032.115385,0.019356,0.001000,0.001000,0.001000,0.001000,0.001000
1032.134615,0.018200,0.001000,0.001000,0.001000,0.001000,0.001000
1032.153846,0.017033,0.001000,0.001000,0.001000,0.001000,0.001000
1032.173077,0.015855,0.001000,0.001000,0.001000,0.001000,0.001000
1032.192308,0.014667,0.001000,0.001000,0.001000,0.001000,0.001000
1032.211538,0.013470,0.001000,0.001000,0.001000,0.001000,0.001000
1032.230769,0.012265,0.001000,0.001000,0.001000,0.001000,0.001000
1032.250000,0.011052,0.001000,0.001000,0.001000,0.001000,0.001000
1032.269231,0.009832,0.001000,0.001000,0.001000,0.001000,0.001000
1032.288462,0.008606,0.001000,0.001000,0.001000,0.001000,0.001000
1032.307692,0.007375,0.001000,0.001000,0.001000,0.001000,0.001000
1032.326923,0.006139,0.001000,0.001000,0.001000,0.001000,0.001000
1032.346154,0.004900,0.001000,0.001000,0.001000,0.001000,0.001000
1032.365385,0.003657,0.001000,0.001000,0.001000,0.001000,0.001000
1032.384615,0.002412,0.001000,0.001000,0.001000,0.001000,0.001000
1032.403846,0.001166,0.001000,0.001000,0.001000,0.001000,0.001000
1032.423077,-0.000082,0.001000,0.001000,0.001000,0.001000,0.001000
1032.442308,-0.001329,0.001000,0.001000,0.001000,0.001000,0.001000
1032.461538,-0.002575,0.001000,0.001000,0.001000,0.001000,0.001000
1032.480769,-0.003820,0.001000,0.001000,0.001000,0.001000,0.001000
1032.500000,-0.005062,0.001000,0.001000,0.001000,0.001000,0.001000
1032.519231,-0.006301,0.001000,0.001000,0.001000,0.001000,0.001000
1032.538462,-0.007537,0.001000,0.001000,0.001000,0.001000,0.001000
1032.557692,-0.008767,0.001000,0.001000,0.001000,0.001000,0.001000
1032.576923,-0.009992,0.001000,0.001000,0.001000,0.001000,0.001000
1032.596154,-0.011211,0.001000,0.001000,0.001000,0.001000,0.001000
1032.615385,-0.012423,0.001000,0.001000,0.001000,0.001000,0.001000
1032.634615,-0.013628,0.001000,0.001000,0.001000,0.001000,0.001000
1032.653846,-0.014823,0.001000,0.001000,0.001000,0.001000,0.001000
1032.673077,-0.016010,0.001000,0.001000,0.001000,0.001000,0.001000
1032.692308,-0.017186,0.001000,0.001000,0.001000,0.001000,0.001000
1032.711538,-0.018352,0.001000,0.001000,0.001000,0.001000,0.001000
1032.730769,-0.019507,0.001000,0.001000,0.001000,0.001000,0.001000
1032.750000,-0.020649,0.001000,0.001000,0.001000,0.001000,0.001000
1032.769231,-0.021778,0.001000,0.001000,0.001000,0.001000,0.001000
1032.788462,-0.022894,0.001000,0.001000,0.001000,0.001000,0.001000
1032.807692,-0.023996,0.001000,0.001000,0.001000,0.001000,0.001000
1032.826923,-0.025082,0.001000,0.001000,0.001000,0.001000,0.001000
1032.846154,-0.026154,0.001000,0.001000,0.001000,0.001000,0.001000
1032.865385,-0.027208,0.001000,0.001000,0.001000,0.001000,0.001000
1032.884615,-0.028246,0.001000,0.001000,0.001000,0.001000,0.001000
1032.903846,-0.029267,0.001000,0.001000,0.001000,0.001000,0.001000
1032.923077,-0.030269,0.001000,0.001000,0.001000,0.001000,0.001000
1032.942308,-0.031252,0.001000,0.001000,0.001000,0.001000,0.001000
1032.961538,-0.032216,0.001000,0.001000,0.001000,0.001000,0.001000
1032.980769,-0.033160,0.001000,0.001000,0.001000,0.001000,0.001000
1033.000000,-0.034083,0.001000,0.001000,0.001000,0.001000,0.001000
1033.019231,-0.034985,0.001000,0.001000,0.001000,0.001000,0.001000
1033.038462,-0.035865,0.001000,0.001000,0.001000,0.001000,0.001000
1033.057692,-0.036723,0.001000,0.001000,0.001000,0.001000,0.001000
1033.076923,-0.037558,0.001000,0.001000,0.001000,0.001000,0.001000
1033.096154,-0.038369,0.001000,0.001000,0.001000,0.001000,0.001000
1033.115385,-0.039157,0.001000,0.001000,0.001000,0.001000,0.001000
1033.134615,-0.039920,0.001000,0.001000,0.001000,0.001000,0.001000
1033.153846,-0.040659,0.001000,0.001000,0.001000,0.001000,0.001000
1033.173077,-0.041372,0.001000,0.001000,0.001000,0.001000,0.001000
1033.192308,-0.042060,0.001000,0.001000,0.001000,0.001000,0.001000
1033.211538,-0.042721,0.001000,0.001000,0.001000,0.001000,0.001000
1033.230769,-0.043356,0.001000,0.001000,0.001000,0.001000,0.001000
1033.250000,-0.043963,0.001000,0.001000,0.001000,0.001000,0.001000
1033.269231,-0.044544,0.001000,0.001000,0.001000,0.001000,0.001000
1033.288462,-0.045096,0.001000,0.001000,0.001000,0.001000,0.001000
1033.307692,-0.045621,0.001000,0.001000,0.001000,0.001000,0.001000
1033.326923,-0.046117,0.001000,0.001000,0.001000,0.001000,0.001000
1033.346154,-0.046585,0.001000,0.001000,0.001000,0.001000,0.001000
1033.365385,-0.047023,0.001000,0.001000,0.001000,0.001000,0.001000
1033.384615,-0.047433,0.001000,0.001000,0.001000,0.001000,0.001000
1033.403846,-0.047812,0.001000,0.001000,0.001000,0.001000,0.001000
1033.423077,-0.048162,0.001000,0.001000,0.001000,0.001000,0.001000
1033.442308,-0.048482,0.001000,0.001000,0.001000,0.001000,0.001000
1033.461538,-0.048772,0.001000,0.001000,0.001000,0.001000,0.001000
1033.480769,-0.049032,0.001000,0.001000,0.001000,0.001000,0.001000
1033.500000,-0.049261,0.001000,0.001000,0.001000,0.001000,0.001000
1033.519231,-0.049459,0.001000,0.001000,0.001000,0.001000,0.001000
1033.538462,-0.049627,0.001000,0.001000,0.001000,0.001000,0.001000
1033.557692,-0.049763,0.001000,0.001000,0.001000,0.001000,0.001000
1033.576923,-0.049869,0.001000,0.001000,0.001000,0.001000,0.001000
1033.596154,-0.049944,0.001000,0.001000,0.001000,0.001000,0.001000
1033.615385,-0.049987,0.001000,0.001000,0.001000,0.001000,0.001000
1033.634615,-0.050000,0.001000,0.001000,0.001000,0.001000,0.001000
1033.653846,-0.049981,0.001000,0.001000,0.001000,0.001000,0.001000
1033.673077,-0.049932,0.001000,0.001000,0.001000,0.001000,0.001000
1033.692308,-0.049851,0.001000,0.001000,0.001000,0.001000,0.001000
1033.711538,-0.049739,0.001000,0.001000,0.001000,0.001000,0.001000
1033.730769,-0.049596,0.001000,0.001000,0.001000,0.001000,0.001000
1033.750000,-0.049423,0.001000,0.001000,0.001000,0.001000,0.001000
1033.769231,-0.049218,0.001000,0.001000,0.001000,0.001000,0.001000
1033.788462,-0.048983,0.001000,0.001000,0.001000,0.001000,0.001000
1033.807692,-0.048718,0.001000,0.001000,0.001000,0.001000,0.001000
1033.826923,-0.048422,0.001000,0.001000,0.001000,0.001000,0.001000
1033.846154,-0.048096,0.001000,0.001000,0.001000,0.001000,0.001000
1033.865385,-0.047740,0.001000,0.001000,0.001000,0.001000,0.001000
1033.884615,-0.047354,0.001000,0.001000,0.001000,0.001000,0.001000
1033.903846,-0.046939,0.001000,0.001000,0.001000,0.001000,0.001000
1033.923077,-0.046495,0.001000,0.001000,0.001000,0.001000,0.001000
1033.942308,-0.046022,0.001000,0.001000,0.001000,0.001000,0.001000
1033.961538,-0.045520,0.001000,0.001000,0.001000,0.001000,0.001000
1033.980769,-0.044990,0.001000,0.001000,0.001000,0.001000,0.001000
1034.000000,-0.044432,0.001000,0.001000,0.001000,0.001000,0.001000
1034.019231,-0.043846,0.001000,0.001000,0.001000,0.001000,0.001000
1034.038462,-0.043233,0.001000,0.001000,0.001000,0.001000,0.001000
1034.057692,-0.042593,0.001000,0.001000,0.001000,0.001000,0.001000
1034.076923,-0.041927,0.001000,0.001000,0.001000,0.001000,0.001000
1034.096154,-0.041234,0.001000,0.001000,0.001000,0.001000,0.001000
1034.115385,-0.040516,0.001000,0.001000,0.001000,0.001000,0.001000
1034.134615,-0.039772,0.001000,0.001000,0.001000,0.001000,0.001000
1034.153846,-0.039004,0.001000,0.001000,0.001000,0.001000,0.001000
1034.173077,-0.038212,0.001000,0.001000,0.001000,0.001000,0.001000
1034.192308,-0.037395,0.001000,0.001000,0.001000,0.001000,0.001000
1034.211538,-0.036556,0.001000,0.001000,0.001000,0.001000,0.001000
1034.230769,-0.035694,0.001000,0.001000,0.001000,0.001000,0.001000
1034.250000,-0.034809,0.001000,0.001000,0.001000,0.001000,0.001000
1034.269231,-0.033903,0.001000,0.001000,0.001000,0.001000,0.001000
1034.288462,-0.032976,0.001000,0.001000,0.001000,0.001000,0.001000
1034.307692,-0.032028,0.001000,0.001000,0.001000,0.001000,0.001000
1034.326923,-0.031060,0.001000,0.001000,0.001000,0.001000,0.001000
1034.346154,-0.030073,0.001000,0.001000,0.001000,0.001000,0.001000
1034.365385,-0.029068,0.001000,0.001000,0.001000,0.001000,0.001000
1034.384615,-0.028044,0.001000,0.001000,0.001000,0.001000,0.001000
1034.403846,-0.027002,0.001000,0.001000,0.001000,0.001000,0.001000
1034.423077,-0.025944,0.001000,0.001000,0.001000,0.001000,0.001000
1034.442308,-0.024870,0.001000,0.001000,0.001000,0.001000,0.001000
1034.461538,-0.023780,0.001000,0.001000,0.001000,0.001000,0.001000
1034.480769,-0.022676,0.001000,0.001000,0.001000,0.001000,0.001000
1034.500000,-0.021557,0.001000,0.001000,0.001000,0.001000,0.001000
1034.519231,-0.020425,0.001000,0.001000,0.001000,0.001000,0.001000
1034.538462,-0.019281,0.001000,0.001000,0.001000,0.001000,0.001000
1034.557692,-0.018124,0.001000,0.001000,0.001000,0.001000,0.001000
1034.576923,-0.016956,0.001000,0.001000,0.001000,0.001000,0.001000
1034.596154,-0.015777,0.001000,0.001000,0.001000,0.001000,0.001000
1034.615385,-0.014589,0.001000,0.001000,0.001000,0.001000,0.001000
1034.634615,-0.013392,0.001000,0.001000,0.001000,0.001000,0.001000
1034.653846,-0.012186,0.001000,0.001000,0.001000,0.001000,0.001000
1034.673077,-0.010972,0.001000,0.001000,0.001000,0.001000,0.001000
