timestamp,ax,ay,az,gx,gy,gz
1000.000000,0.000000,0.001000,0.001000,0.001000,0.001000,0.001000
1000.019231,0.001386,0.001000,0.001000,0.001000,0.001000,0.001000
1000.038462,0.002771,0.001000,0.001000,0.001000,0.001000,0.001000
1000.057692,0.004154,0.001000,0.001000,0.001000,0.001000,0.001000
1000.076923,0.005534,0.001000,0.001000,0.001000,0.001000,0.001000
1000.096154,0.006909,0.001000,0.001000,0.001000,0.001000,0.001000
1000.115385,0.008279,0.001000,0.001000,0.001000,0.001000,0.001000
1000.134615,0.009643,0.001000,0.001000,0.001000,0.001000,0.001000
1000.153846,0.010999,0.001000,0.001000,0.001000,0.001000,0.001000
1000.173077,0.012347,0.001000,0.001000,0.001000,0.001000,0.001000
1000.192308,0.013686,0.001000,0.001000,0.001000,0.001000,0.001000
1000.211538,0.015014,0.001000,0.001000,0.001000,0.001000,0.001000
1000.230769,0.016330,0.001000,0.001000,0.001000,0.001000,0.001000
1000.250000,0.017634,0.001000,0.001000,0.001000,0.001000,0.001000
1000.269231,0.018924,0.001000,0.001000,0.001000,0.001000,0.001000
1000.288462,0.020200,0.001000,0.001000,0.001000,0.001000,0.001000
1000.307692,0.021460,0.001000,0.001000,0.001000,0.001000,0.001000
1000.326923,0.022704,0.001000,0.001000,0.001000,0.001000,0.001000
1000.346154,0.023930,0.001000,0.001000,0.001000,0.001000,0.001000
1000.365385,0.025138,0.001000,0.001000,0.001000,0.001000,0.001000
1000.384615,0.026326,0.001000,0.001000,0.001000,0.001000,0.001000
1000.403846,0.027495,0.001000,0.001000,0.001000,0.001000,0.001000
1000.423077,0.028642,0.001000,0.001000,0.001000,0.001000,0.001000
1000.442308,0.029767,0.001000,0.001000,0.001000,0.001000,0.001000
1000.461538,0.030869,0.001000,0.001000,0.001000,0.001000,0.001000
1000.480769,0.031948,0.001000,0.001000,0.001000,0.001000,0.001000
1000.500000,0.033002,0.001000,0.001000,0.001000,0.001000,0.001000
1000.519231,0.034030,0.001000,0.001000,0.001000,0.001000,0.001000
1000.538462,0.035033,0.001000,0.001000,0.001000,0.001000,0.001000
1000.557692,0.036008,0.001000,0.001000,0.001000,0.001000,0.001000
1000.576923,0.036956,0.001000,0.001000,0.001000,0.001000,0.001000
1000.596154,0.037875,0.001000,0.001000,0.001000,0.001000,0.001000
1000.615385,0.038766,0.001000,0.001000,0.001000,0.001000,0.001000
1000.634615,0.039626,0.001000,0.001000,0.001000,0.001000,0.001000
1000.653846,0.040456,0.001000,0.001000,0.001000,0.001000,0.001000
1000.673077,0.041255,0.001000,0.001000,0.001000,0.001000,0.001000
1000.692308,0.042023,0.001000,0.001000,0.001000,0.001000,0.001000
1000.711538,0.042758,0.001000,0.001000,0.001000,0.001000,0.001000
1000.730769,0.043460,0.001000,0.001000,0.001000,0.001000,0.001000
1000.750000,0.044128,0.001000,0.001000,0.001000,0.001000,0.001000
1000.769231,0.044763,0.001000,0.001000,0.001000,0.001000,0.001000
1000.788462,0.045363,0.001000,0.001000,0.001000,0.001000,0.001000
1000.807692,0.045929,0.001000,0.001000,0.001000,0.001000,0.001000
1000.826923,0.046459,0.001000,0.001000,0.001000,0.001000,0.001000
1000.846154,0.046954,0.001000,0.001000,0.001000,0.001000,0.001000
1000.865385,0.047412,0.001000,0.001000,0.001000,0.001000,0.001000
1000.884615,0.047834,0.001000,0.001000,0.001000,0.001000,0.001000
1000.903846,0.048219,0.001000,0.001000,0.001000,0.001000,0.001000
1000.923077,0.048567,0.001000,0.001000,0.001000,0.001000,0.001000
1000.942308,0.048878,0.001000,0.001000,0.001000,0.001000,0.001000
1000.961538,0.049151,0.001000,0.001000,0.001000,0.001000,0.001000
1000.980769,0.049387,0.001000,0.001000,0.001000,0.001000,0.001000
1001.000000,0.049584,0.001000,0.001000,0.001000,0.001000,0.001000
1001.019231,0.049743,0.001000,0.001000,0.001000,0.001000,0.001000
1001.038462,0.049865,0.001000,0.001000,0.001000,0.001000,0.001000
1001.057692,0.049947,0.001000,0.001000,0.001000,0.001000,0.001000
1001.076923,0.049992,0.001000,0.001000,0.001000,0.001000,0.001000
1001.096154,0.049998,0.001000,0.001000,0.001000,0.001000,0.001000
1001.115385,0.049965,0.001000,0.001000,0.001000,0.001000,0.001000
1001.134615,0.049894,0.001000,0.001000,0.001000,0.001000,0.001000
1001.153846,0.049785,0.001000,0.001000,0.001000,0.001000,0.001000
1001.173077,0.049638,0.001000,0.001000,0.001000,0.001000,0.001000
1001.192308,0.049452,0.001000,0.001000,0.001000,0.001000,0.001000
1001.211538,0.049228,0.001000,0.001000,0.001000,0.001000,0.001000
1001.230769,0.048967,0.001000,0.001000,0.001000,0.001000,0.001000
1001.250000,0.048668,0.001000,0.001000,0.001000,0.001000,0.001000
1001.269231,0.048331,0.001000,0.001000,0.001000,0.001000,0.001000
1001.288462,0.047958,0.001000,0.001000,0.001000,0.001000,0.001000
1001.307692,0.047547,0.001000,0.001000,0.001000,0.001000,0.001000
1001.326923,0.047100,0.001000,0.001000,0.001000,0.001000,0.001000
1001.346154,0.046617,0.001000,0.001000,0.001000,0.001000,0.001000
1001.365385,0.046097,0.001000,0.001000,0.001000,0.001000,0.001000
1001.384615,0.045543,0.001000,0.001000,0.001000,0.001000,0.001000
1001.403846,0.044953,0.001000,0.001000,0.001000,0.001000,0.001000
1001.423077,0.044329,0.001000,0.001000,0.001000,0.001000,0.001000
1001.442308,0.043671,0.001000,0.001000,0.001000,0.001000,0.001000
1001.461538,0.042979,0.001000,0.001000,0.001000,0.001000,0.001000
1001.480769,0.042254,0.001000,0.001000,0.001000,0.001000,0.001000
1001.500000,0.041497,0.001000,0.001000,0.001000,0.001000,0.001000
1001.519231,0.040708,0.001000,0.001000,0.001000,0.001000,0.001000
1001.538462,0.039887,0.001000,0.001000,0.001000,0.001000,0.001000
1001.557692,0.039036,0.001000,0.001000,0.001000,0.001000,0.001000
1001.576923,0.038155,0.001000,0.001000,0.001000,0.001000,0.001000
1001.596154,0.037245,0.001000,0.001000,0.001000,0.001000,0.001000
1001.615385,0.036306,0.001000,0.001000,0.001000,0.001000,0.001000
1001.634615,0.035339,0.001000,0.001000,0.001000,0.001000,0.001000
1001.653846,0.034344,0.001000,0.001000,0.001000,0.001000,0.001000
1001.673077,0.033324,0.001000,0.001000,0.001000,0.001000,0.001000
1001.692308,0.032278,0.001000,0.001000,0.001000,0.001000,0.001000
1001.711538,0.031207,0.001000,0.001000,0.001000,0.001000,0.001000
1001.730769,0.030112,0.001000,0.001000,0.001000,0.001000,0.001000
1001.750000,0.028994,0.001000,0.001000,0.001000,0.001000,0.001000
1001.769231,0.027853,0.001000,0.001000,0.001000,0.001000,0.001000
1001.788462,0.026691,0.001000,0.001000,0.001000,0.001000,0.001000
1001.807692,0.025509,0.001000,0.001000,0.001000,0.001000,0.001000
1001.826923,0.024307,0.001000,0.001000,0.001000,0.001000,0.001000
1001.846154,0.023087,0.001000,0.001000,0.001000,0.001000,0.001000
1001.865385,0.021848,0.001000,0.001000,0.001000,0.001000,0.001000
1001.884615,0.020593,0.001000,0.001000,0.001000,0.001000,0.001000
1001.903846,0.019322,0.001000,0.001000,0.001000,0.001000,0.001000
1001.923077,0.018036,0.001000,0.001000,0.001000,0.001000,0.001000
1001.942308,0.016736,0.001000,0.001000,0.001000,0.001000,0.001000
1001.961538,0.015424,0.001000,0.001000,0.001000,0.001000,0.001000
1001.980769,0.014099,0.001000,0.001000,0.001000,0.001000,0.001000
1002.000000,0.012764,0.001000,0.001000,0.001000,0.001000,0.001000
1002.019231,0.011419,0.001000,0.001000,0.001000,0.001000,0.001000
1002.038462,0.010065,0.001000,0.001000,0.001000,0.001000,0.001000
1002.057692,0.008704,0.001000,0.001000,0.001000,0.001000,0.001000
1002.076923,0.007335,0.001000,0.001000,0.001000,0.001000,0.001000
1002.096154,0.005961,0.001000,0.001000,0.001000,0.001000,0.001000
1002.115385,0.004583,0.001000,0.001000,0.001000,0.001000,0.001000
1002.134615,0.003201,0.001000,0.001000,0.001000,0.001000,0.001000
1002.153846,0.001816,0.001000,0.001000,0.001000,0.001000,0.001000
1002.173077,0.000431,0.001000,0.001000,0.001000,0.001000,0.001000
1002.192308,-0.000956,0.001000,0.001000,0.001000,0.001000,0.001000
1002.211538,-0.002341,0.001000,0.001000,0.001000,0.001000,0.001000
1002.230769,-0.003725,0.001000,0.001000,0.001000,0.001000,0.001000
1002.250000,-0.005106,0.001000,0.001000,0.001000,0.001000,0.001000
1002.269231,-0.006482,0.001000,0.001000,0.001000,0.001000,0.001000
1002.288462,-0.007854,0.001000,0.001000,0.001000,0.001000,0.001000
1002.307692,-0.009220,0.001000,0.001000,0.001000,0.001000,0.001000
1002.326923,-0.010579,0.001000,0.001000,0.001000,0.001000,0.001000
1002.346154,-0.011930,0.001000,0.001000,0.001000,0.001000,0.001000
1002.365385,-0.013271,0.001000,0.001000,0.001000,0.001000,0.001000
1002.384615,-0.014602,0.001000,0.001000,0.001000,0.001000,0.001000
1002.403846,-0.015922,0.001000,0.001000,0.001000,0.001000,0.001000
1002.423077,-0.017230,0.001000,0.001000,0.001000,0.001000,0.001000
1002.442308,-0.018525,0.001000,0.001000,0.001000,0.001000,0.001000
1002.461538,-0.019805,0.001000,0.001000,0.001000,0.001000,0.001000
1002.480769,-0.021070,0.001000,0.001000,0.001000,0.001000,0.001000
1002.500000,-0.022319,0.001000,0.001000,0.001000,0.001000,0.001000
1002.519231,-0.023551,0.001000,0.001000,0.001000,0.001000,0.001000
1002.538462,-0.024765,0.001000,0.001000,0.001000,0.001000,0.001000
1002.557692,-0.025959,0.001000,0.001000,0.001000,0.001000,0.001000
1002.576923,-0.027134,0.001000,0.001000,0.001000,0.001000,0.001000
1002.596154,-0.028288,0.001000,0.001000,0.001000,0.001000,0.001000
1002.615385,-0.029420,0.001000,0.001000,0.001000,0.001000,0.001000
1002.634615,-0.030529,0.001000,0.001000,0.001000,0.001000,0.001000
1002.653846,-0.031615,0.001000,0.001000,0.001000,0.001000,0.001000
1002.673077,-0.032677,0.001000,0.001000,0.001000,0.001000,0.001000
1002.692308,-0.033714,0.001000,0.001000,0.001000,0.001000,0.001000
1002.711538,-0.034724,0.001000,0.001000,0.001000,0.001000,0.001000
1002.730769,-0.035708,0.001000,0.001000,0.001000,0.001000,0.001000
1002.750000,-0.036665,0.001000,0.001000,0.001000,0.001000,0.001000
1002.769231,-0.037593,0.001000,0.001000,0.001000,0.001000,0.001000
1002.788462,-0.038492,0.001000,0.001000,0.001000,0.001000,0.001000
1002.807692,-0.039362,0.001000,0.001000,0.001000,0.001000,0.001000
1002.826923,-0.040202,0.001000,0.001000,0.001000,0.001000,0.001000
1002.846154,-0.041011,0.001000,0.001000,0.001000,0.001000,0.001000
1002.865385,-0.041788,0.001000,0.001000,0.001000,0.001000,0.001000
1002.884615,-0.042533,0.001000,0.001000,0.001000,0.001000,0.001000
1002.903846,-0.043245,0.001000,0.001000,0.001000,0.001000,0.001000
1002.923077,-0.043924,0.001000,0.001000,0.001000,0.001000,0.001000
1002.942308,-0.044570,0.001000,0.001000,0.001000,0.001000,0.001000
1002.961538,-0.045181,0.001000,0.001000,0.001000,0.001000,0.001000
1002.980769,-0.045757,0.001000,0.001000,0.001000,0.001000,0.001000
1003.000000,-0.046298,0.001000,0.001000,0.001000,0.001000,0.001000
1003.019231,-0.046804,0.001000,0.001000,0.001000,0.001000,0.001000
1003.038462,-0.047274,0.001000,0.001000,0.001000,0.001000,0.001000
1003.057692,-0.047707,0.001000,0.001000,0.001000,0.001000,0.001000
1003.076923,-0.048103,0.001000,0.001000,0.001000,0.001000,0.001000
1003.096154,-0.048463,0.001000,0.001000,0.001000,0.001000,0.001000
1003.115385,-0.048785,0.001000,0.001000,0.001000,0.001000,0.001000
1003.134615,-0.049070,0.001000,0.001000,0.001000,0.001000,0.001000
1003.153846,-0.049318,0.001000,0.001000,0.001000,0.001000,0.001000
1003.173077,-0.049527,0.001000,0.001000,0.001000,0.001000,0.001000
1003.192308,-0.049698,0.001000,0.001000,0.001000,0.001000,0.001000
1003.211538,-0.049831,0.001000,0.001000,0.001000,0.001000,0.001000
1003.230769,-0.049926,0.001000,0.001000,0.001000,0.001000,0.001000
1003.250000,-0.049982,0.001000,0.001000,0.001000,0.001000,0.001000
1003.269231,-0.050000,0.001000,0.001000,0.001000,0.001000,0.001000
1003.288462,-0.049979,0.001000,0.001000,0.001000,0.001000,0.001000
1003.307692,-0.049921,0.001000,0.001000,0.001000,0.001000,0.001000
1003.326923,-0.049823,0.001000,0.001000,0.001000,0.001000,0.001000
1003.346154,-0.049688,0.001000,0.001000,0.001000,0.001000,0.001000
1003.365385,-0.049514,0.001000,0.001000,0.001000,0.001000,0.001000
1003.384615,-0.049302,0.001000,0.001000,0.001000,0.001000,0.001000
1003.403846,-0.049052,0.001000,0.001000,0.001000,0.001000,0.001000
1003.423077,-0.048765,0.001000,0.001000,0.001000,0.001000,0.001000
1003.442308,-0.048440,0.001000,0.001000,0.001000,0.001000,0.001000
1003.461538,-0.048078,0.001000,0.001000,0.001000,0.001000,0.001000
1003.480769,-0.047678,0.001000,0.001000,0.001000,0.001000,0.001000
1003.500000,-0.047243,0.001000,0.001000,0.001000,0.001000,0.001000
1003.519231,-0.046771,0.001000,0.001000,0.001000,0.001000,0.001000
1003.538462,-0.046263,0.001000,0.001000,0.001000,0.001000,0.001000
1003.557692,-0.045719,0.001000,0.001000,0.001000,0.001000,0.001000
1003.576923,-0.045140,0.001000,0.001000,0.001000,0.001000,0.001000
1003.596154,-0.044527,0.001000,0.001000,0.001000,0.001000,0.001000
1003.615385,-0.043879,0.001000,0.001000,0.001000,0.001000,0.001000
1003.634615,-0.043198,0.001000,0.001000,0.001000,0.001000,0.001000
1003.653846,-0.042483,0.001000,0.001000,0.001000,0.001000,0.001000
1003.673077,-0.041736,0.001000,0.001000,0.001000,0.001000,0.001000
1003.692308,-0.040956,0.001000,0.001000,0.001000,0.001000,0.001000
1003.711538,-0.040146,0.001000,0.001000,0.001000,0.001000,0.001000
1003.730769,-0.039304,0.001000,0.001000,0.001000,0.001000,0.001000
1003.750000,-0.038432,0.001000,0.001000,0.001000,0.001000,0.001000
1003.769231,-0.037531,0.001000,0.001000,0.001000,0.001000,0.001000
1003.788462,-0.036600,0.001000,0.001000,0.001000,0.001000,0.001000
1003.807692,-0.035642,0.001000,0.001000,0.001000,0.001000,0.001000
1003.826923,-0.034656,0.001000,0.001000,0.001000,0.001000,0.001000
1003.846154,-0.033644,0.001000,0.001000,0.001000,0.001000,0.001000
1003.865385,-0.032605,0.001000,0.001000,0.001000,0.001000,0.001000
1003.884615,-0.031542,0.001000,0.001000,0.001000,0.001000,0.001000
1003.903846,-0.030454,0.001000,0.001000,0.001000,0.001000,0.001000
1003.923077,-0.029343,0.001000,0.001000,0.001000,0.001000,0.001000
1003.942308,-0.028210,0.001000,0.001000,0.001000,0.001000,0.001000
1003.961538,-0.027055,0.001000,0.001000,0.001000,0.001000,0.001000
1003.980769,-0.025878,0.001000,0.001000,0.001000,0.001000,0.001000
1004.000000,-0.024683,0.001000,0.001000,0.001000,0.001000,0.001000
1004.019231,-0.023468,0.001000,0.001000,0.001000,0.001000,0.001000
1004.038462,-0.022235,0.001000,0.001000,0.001000,0.001000,0.001000
1004.057692,-0.020985,0.001000,0.001000,0.001000,0.001000,0.001000
1004.076923,-0.019718,0.001000,0.001000,0.001000,0.001000,0.001000
1004.096154,-0.018437,0.001000,0.001000,0.001000,0.001000,0.001000
1004.115385,-0.017142,0.001000,0.001000,0.001000,0.001000,0.001000
1004.134615,-0.015833,0.001000,0.001000,0.001000,0.001000,0.001000
1004.153846,-0.014512,0.001000,0.001000,0.001000,0.001000,0.001000
1004.173077,-0.013180,0.001000,0.001000,0.001000,0.001000,0.001000
1004.192308,-0.011838,0.001000,0.001000,0.001000,0.001000,0.001000
1004.211538,-0.010487,0.001000,0.001000,0.001000,0.001000,0.001000
1004.230769,-0.009127,0.001000,0.001000,0.001000,0.001000,0.001000
1004.250000,-0.007761,0.001000,0.001000,0.001000,0.001000,0.001000
1004.269231,-0.006389,0.001000,0.001000,0.001000,0.001000,0.001000
1004.288462,-0.005012,0.001000,0.001000,0.001000,0.001000,0.001000
1004.307692,-0.003631,0.001000,0.001000,0.001000,0.001000,0.001000
1004.326923,-0.002247,0.001000,0.001000,0.001000,0.001000,0.001000
1004.346154,-0.000861,0.001000,0.001000,0.001000,0.001000,0.001000
1004.365385,0.000525,0.001000,0.001000,0.001000,0.001000,0.001000
1004.384615,0.001911,0.001000,0.001000,0.001000,0.001000,0.001000
1004.403846,0.003295,0.001000,0.001000,0.001000,0.001000,0.001000
1004.423077,0.004677,0.001000,0.001000,0.001000,0.001000,0.001000
1004.442308,0.006055,0.001000,0.001000,0.001000,0.001000,0.001000
1004.461538,0.007429,0.001000,0.001000,0.001000,0.001000,0.001000
1004.480769,0.008797,0.001000,0.001000,0.001000,0.001000,0.001000
1004.500000,0.010158,0.001000,0.001000,0.001000,0.001000,0.001000
1004.519231,0.011511,0.001000,0.001000,0.001000,0.001000,0.001000
1004.538462,0.012856,0.001000,0.001000,0.001000,0.001000,0.001000
1004.557692,0.014190,0.001000,0.001000,0.001000,0.001000,0.001000
1004.576923,0.015514,0.001000,0.001000,0.001000,0.001000,0.001000
1004.596154,0.016825,0.001000,0.001000,0.001000,0.001000,0.001000
1004.615385,0.018124,0.001000,0.001000,0.001000,0.001000,0.001000
1004.634615,0.019409,0.001000,0.001000,0.001000,0.001000,0.001000
1004.653846,0.020679,0.001000,0.001000,0.001000,0.001000,0.001000
1004.673077,0.021933,0.001000,0.001000,0.001000,0.001000,0.001000
1004.692308,0.023170,0.001000,0.001000,0.001000,0.001000,0.001000
1004.711538,0.024390,0.001000,0.001000,0.001000,0.001000,0.001000
1004.730769,0.025590,0.001000,0.001000,0.001000,0.001000,0.001000
1004.750000,0.026771,0.001000,0.001000,0.001000,0.001000,0.001000
1004.769231,0.027932,0.001000,0.001000,0.001000,0.001000,0.001000
1004.788462,0.029071,0.001000,0.001000,0.001000,0.001000,0.001000
1004.807692,0.030187,0.001000,0.001000,0.001000,0.001000,0.001000
1004.826923,0.031280,0.001000,0.001000,0.001000,0.001000,0.001000
1004.846154,0.032350,0.001000,0.001000,0.001000,0.001000,0.001000
1004.865385,0.033394,0.001000,0.001000,0.001000,0.001000,0.001000
1004.884615,0.034413,0.001000,0.001000,0.001000,0.001000,0.001000
1004.903846,0.035405,0.001000,0.001000,0.001000,0.001000,0.001000
1004.923077,0.036371,0.001000,0.001000,0.001000,0.001000,0.001000
1004.942308,0.037308,0.001000,0.001000,0.001000,0.001000,0.001000
1004.961538,0.038216,0.001000,0.001000,0.001000,0.001000,0.001000
1004.980769,0.039095,0.001000,0.001000,0.001000,0.001000,0.001000
1005.000000,0.039944,0.001000,0.001000,0.001000,0.001000,0.001000
1005.019231,0.040763,0.001000,0.001000,0.001000,0.001000,0.001000
1005.038462,0.041550,0.001000,0.001000,0.001000,0.001000,0.001000
1005.057692,0.042305,0.001000,0.001000,0.001000,0.001000,0.001000
1005.076923,0.043027,0.001000,0.001000,0.001000,0.001000,0.001000
1005.096154,0.043717,0.001000,0.001000,0.001000,0.001000,0.001000
1005.115385,0.044373,0.001000,0.001000,0.001000,0.001000,0.001000
1005.134615,0.044995,0.001000,0.001000,0.001000,0.001000,0.001000
1005.153846,0.045582,0.001000,0.001000,0.001000,0.001000,0.001000
1005.173077,0.046134,0.001000,0.001000,0.001000,0.001000,0.001000
1005.192308,0.046651,0.001000,0.001000,0.001000,0.001000,0.001000
1005.211538,0.047132,0.001000,0.001000,0.001000,0.001000,0.001000
1005.230769,0.047576,0.001000,0.001000,0.001000,0.001000,0.001000
1005.250000,0.047984,0.001000,0.001000,0.001000,0.001000,0.001000
1005.269231,0.048355,0.001000,0.001000,0.001000,0.001000,0.001000
1005.288462,0.048689,0.001000,0.001000,0.001000,0.001000,0.001000
1005.307692,0.048986,0.001000,0.001000,0.001000,0.001000,0.001000
1005.326923,0.049245,0.001000,0.001000,0.001000,0.001000,0.001000
1005.346154,0.049466,0.001000,0.001000,0.001000,0.001000,0.001000
1005.365385,0.049649,0.001000,0.001000,0.001000,0.001000,0.001000
1005.384615,0.049794,0.001000,0.001000,0.001000,0.001000,0.001000
1005.403846,0.049900,0.001000,0.001000,0.001000,0.001000,0.001000
1005.423077,0.049969,0.001000,0.001000,0.001000,0.001000,0.001000
1005.442308,0.049999,0.001000,0.001000,0.001000,0.001000,0.001000
1005.461538,0.049990,0.001000,0.001000,0.001000,0.001000,0.001000
1005.480769,0.049943,0.001000,0.001000,0.001000,0.001000,0.001000
1005.500000,0.049858,0.001000,0.001000,0.001000,0.001000,0.001000
1005.519231,0.049734,0.001000,0.001000,0.001000,0.001000,0.001000
1005.538462,0.049572,0.001000,0.001000,0.001000,0.001000,0.001000
1005.557692,0.049372,0.001000,0.001000,0.001000,0.001000,0.001000
1005.576923,0.049134,0.001000,0.001000,0.001000,0.001000,0.001000
1005.596154,0.048858,0.001000,0.001000,0.001000,0.001000,0.001000
1005.615385,0.048545,0.001000,0.001000,0.001000,0.001000,0.001000
1005.634615,0.048194,0.001000,0.001000,0.001000,0.001000,0.001000
1005.653846,0.047806,0.001000,0.001000,0.001000,0.001000,0.001000
1005.673077,0.047382,0.001000,0.001000,0.001000,0.001000,0.001000
1005.692308,0.046921,0.001000,0.001000,0.001000,0.001000,0.001000
1005.711538,0.046424,0.001000,0.001000,0.001000,0.001000,0.001000
1005.730769,0.045892,0.001000,0.001000,0.001000,0.001000,0.001000
1005.750000,0.045324,0.001000,0.001000,0.001000,0.001000,0.001000
1005.769231,0.044721,0.001000,0.001000,0.001000,0.001000,0.001000
1005.788462,0.044084,0.001000,0.001000,0.001000,0.001000,0.001000
1005.807692,0.043413,0.001000,0.001000,0.001000,0.001000,0.001000
1005.826923,0.042709,0.001000,0.001000,0.001000,0.001000,0.001000
1005.846154,0.041971,0.001000,0.001000,0.001000,0.001000,0.001000
1005.865385,0.041202,0.001000,0.001000,0.001000,0.001000,0.001000
1005.884615,0.040401,0.001000,0.001000,0.001000,0.001000,0.001000
1005.903846,0.039569,0.001000,0.001000,0.001000,0.001000,0.001000
1005.923077,0.038706,0.001000,0.001000,0.001000,0.001000,0.001000
1005.942308,0.037814,0.001000,0.001000,0.001000,0.001000,0.001000
1005.961538,0.036892,0.001000,0.001000,0.001000,0.001000,0.001000
1005.980769,0.035943,0.001000,0.001000,0.001000,0.001000,0.001000
1006.000000,0.034965,0.001000,0.001000,0.001000,0.001000,0.001000
1006.019231,0.033961,0.001000,0.001000,0.001000,0.001000,0.001000
1006.038462,0.032931,0.001000,0.001000,0.001000,0.001000,0.001000
1006.057692,0.031875,0.001000,0.001000,0.001000,0.001000,0.001000
1006.076923,0.030795,0.001000,0.001000,0.001000,0.001000,0.001000
1006.096154,0.029691,0.001000,0.001000,0.001000,0.001000,0.001000
1006.115385,0.028564,0.001000,0.001000,0.001000,0.001000,0.001000
1006.134615,0.027416,0.001000,0.001000,0.001000,0.001000,0.001000
1006.153846,0.026246,0.001000,0.001000,0.001000,0.001000,0.001000
1006.173077,0.025056,0.001000,0.001000,0.001000,0.001000,0.001000
1006.192308,0.023847,0.001000,0.001000,0.001000,0.001000,0.001000
1006.211538,0.022620,0.001000,0.001000,0.001000,0.001000,0.001000
1006.230769,0.021375,0.001000,0.001000,0.001000,0.001000,0.001000
1006.250000,0.020113,0.001000,0.001000,0.001000,0.001000,0.001000
1006.269231,0.018837,0.001000,0.001000,0.001000,0.001000,0.001000
1006.288462,0.017545,0.001000,0.001000,0.001000,0.001000,0.001000
1006.307692,0.016241,0.001000,0.001000,0.001000,0.001000,0.001000
1006.326923,0.014924,0.001000,0.001000,0.001000,0.001000,0.001000
1006.346154,0.013595,0.001000,0.001000,0.001000,0.001000,0.001000
1006.365385,0.012256,0.001000,0.001000,0.001000,0.001000,0.001000
1006.384615,0.010907,0.001000,0.001000,0.001000,0.001000,0.001000
1006.403846,0.009550,0.001000,0.001000,0.001000,0.001000,0.001000
1006.423077,0.008186,0.001000,0.001000,0.001000,0.001000,0.001000
1006.442308,0.006816,0.001000,0.001000,0.001000,0.001000,0.001000
1006.461538,0.005440,0.001000,0.001000,0.001000,0.001000,0.001000
1006.480769,0.004060,0.001000,0.001000,0.001000,0.001000,0.001000
1006.500000,0.002677,0.001000,0.001000,0.001000,0.001000,0.001000
1006.519231,0.001292,0.001000,0.001000,0.001000,0.001000,0.001000
1006.538462,-0.000094,0.001000,0.001000,0.001000,0.001000,0.001000
1006.557692,-0.001481,0.001000,0.001000,0.001000,0.001000,0.001000
1006.576923,-0.002865,0.001000,0.001000,0.001000,0.001000,0.001000
1006.596154,-0.004248,0.001000,0.001000,0.001000,0.001000,0.001000
1006.615385,-0.005628,0.001000,0.001000,0.001000,0.001000,0.001000
1006.634615,-0.007003,0.001000,0.001000,0.001000,0.001000,0.001000
1006.653846,-0.008372,0.001000,0.001000,0.001000,0.001000,0.001000
1006.673077,-0.009736,0.001000,0.001000,0.001000,0.001000,0.001000
1006.692308,-0.011092,0.001000,0.001000,0.001000,0.001000,0.001000
1006.711538,-0.012439,0.001000,0.001000,0.001000,0.001000,0.001000
1006.730769,-0.013777,0.001000,0.001000,0.001000,0.001000,0.001000
1006.750000,-0.015104,0.001000,0.001000,0.001000,0.001000,0.001000
1006.769231,-0.016419,0.001000,0.001000,0.001000,0.001000,0.001000
1006.788462,-0.017722,0.001000,0.001000,0.001000,0.001000,0.001000
1006.807692,-0.019012,0.001000,0.001000,0.001000,0.001000,0.001000
1006.826923,-0.020286,0.001000,0.001000,0.001000,0.001000,0.001000
1006.846154,-0.021545,0.001000,0.001000,0.001000,0.001000,0.001000
1006.865385,-0.022788,0.001000,0.001000,0.001000,0.001000,0.001000
1006.884615,-0.024013,0.001000,0.001000,0.001000,0.001000,0.001000
1006.903846,-0.025219,0.001000,0.001000,0.001000,0.001000,0.001000
1006.923077,-0.026407,0.001000,0.001000,0.001000,0.001000,0.001000
1006.942308,-0.027573,0.001000,0.001000,0.001000,0.001000,0.001000
1006.961538,-0.028719,0.001000,0.001000,0.001000,0.001000,0.001000
1006.980769,-0.029843,0.001000,0.001000,0.001000,0.001000,0.001000
1007.000000,-0.030943,0.001000,0.001000,0.001000,0.001000,0.001000
1007.019231,-0.032020,0.001000,0.001000,0.001000,0.001000,0.001000
1007.038462,-0.033073,0.001000,0.001000,0.001000,0.001000,0.001000
1007.057692,-0.034099,0.001000,0.001000,0.001000,0.001000,0.001000
1007.076923,-0.035100,0.001000,0.001000,0.001000,0.001000,0.001000
1007.096154,-0.036074,0.001000,0.001000,0.001000,0.001000,0.001000
1007.115385,-0.037020,0.001000,0.001000,0.001000,0.001000,0.001000
1007.134615,-0.037937,0.001000,0.001000,0.001000,0.001000,0.001000
1007.153846,-0.038825,0.001000,0.001000,0.001000,0.001000,0.001000
1007.173077,-0.039684,0.001000,0.001000,0.001000,0.001000,0.001000
1007.192308,-0.040512,0.001000,0.001000,0.001000,0.001000,0.001000
1007.211538,-0.041309,0.001000,0.001000,0.001000,0.001000,0.001000
1007.230769,-0.042074,0.001000,0.001000,0.001000,0.001000,0.001000
1007.250000,-0.042806,0.001000,0.001000,0.001000,0.001000,0.001000
1007.269231,-0.043506,0.001000,0.001000,0.001000,0.001000,0.001000
1007.288462,-0.044173,0.001000,0.001000,0.001000,0.001000,0.001000
1007.307692,-0.044805,0.001000,0.001000,0.001000,0.001000,0.001000
1007.326923,-0.045403,0.001000,0.001000,0.001000,0.001000,0.001000
1007.346154,-0.045966,0.001000,0.001000,0.001000,0.001000,0.001000
1007.365385,-0.046494,0.001000,0.001000,0.001000,0.001000,0.001000
1007.384615,-0.046986,0.001000,0.001000,0.001000,0.001000,0.001000
1007.403846,-0.047442,0.001000,0.001000,0.001000,0.001000,0.001000
1007.423077,-0.047861,0.001000,0.001000,0.001000,0.001000,0.001000
1007.442308,-0.048244,0.001000,0.001000,0.001000,0.001000,0.001000
1007.461538,-0.048590,0.001000,0.001000,0.001000,0.001000,0.001000
1007.480769,-0.048898,0.001000,0.001000,0.001000,0.001000,0.001000
1007.500000,-0.049168,0.001000,0.001000,0.001000,0.001000,0.001000
1007.519231,-0.049401,0.001000,0.001000,0.001000,0.001000,0.001000
1007.538462,-0.049596,0.001000,0.001000,0.001000,0.001000,0.001000
1007.557692,-0.049753,0.001000,0.001000,0.001000,0.001000,0.001000
1007.576923,-0.049871,0.001000,0.001000,0.001000,0.001000,0.001000
1007.596154,-0.049952,0.001000,0.001000,0.001000,0.001000,0.001000
1007.615385,-0.049993,0.001000,0.001000,0.001000,0.001000,0.001000
1007.634615,-0.049997,0.001000,0.001000,0.001000,0.001000,0.001000
1007.653846,-0.049962,0.001000,0.001000,0.001000,0.001000,0.001000
1007.673077,-0.049888,0.001000,0.001000,0.001000,0.001000,0.001000
1007.692308,-0.049776,0.001000,0.001000,0.001000,0.001000,0.001000
1007.711538,-0.049626,0.001000,0.001000,0.001000,0.001000,0.001000
1007.730769,-0.049438,0.001000,0.001000,0.001000,0.001000,0.001000
1007.750000,-0.049212,0.001000,0.001000,0.001000,0.001000,0.001000
1007.769231,-0.048948,0.001000,0.001000,0.001000,0.001000,0.001000
1007.788462,-0.048646,0.001000,0.001000,0.001000,0.001000,0.001000
1007.807692,-0.048307,0.001000,0.001000,0.001000,0.001000,0.001000
1007.826923,-0.047931,0.001000,0.001000,0.001000,0.001000,0.001000
1007.846154,-0.047518,0.001000,0.001000,0.001000,0.001000,0.001000
1007.865385,-0.047068,0.001000,0.001000,0.001000,0.001000,0.001000
1007.884615,-0.046582,0.001000,0.001000,0.001000,0.001000,0.001000
1007.903846,-0.046061,0.001000,0.001000,0.001000,0.001000,0.001000
1007.923077,-0.045504,0.001000,0.001000,0.001000,0.001000,0.001000
1007.942308,-0.044912,0.001000,0.001000,0.001000,0.001000,0.001000
1007.961538,-0.044285,0.001000,0.001000,0.001000,0.001000,0.001000
1007.980769,-0.043625,0.001000,0.001000,0.001000,0.001000,0.001000
1008.000000,-0.042931,0.001000,0.001000,0.001000,0.001000,0.001000
1008.019231,-0.042204,0.001000,0.001000,0.001000,0.001000,0.001000
1008.038462,-0.041444,0.001000,0.001000,0.001000,0.001000,0.001000
1008.057692,-0.040653,0.001000,0.001000,0.001000,0.001000,0.001000
1008.076923,-0.039830,0.001000,0.001000,0.001000,0.001000,0.001000
1008.096154,-0.038977,0.001000,0.001000,0.001000,0.001000,0.001000
1008.115385,-0.038094,0.001000,0.001000,0.001000,0.001000,0.001000
1008.134615,-0.037182,0.001000,0.001000,0.001000,0.001000,0.001000
1008.153846,-0.036241,0.001000,0.001000,0.001000,0.001000,0.001000
1008.173077,-0.035272,0.001000,0.001000,0.001000,0.001000,0.001000
1008.192308,-0.034276,0.001000,0.001000,0.001000,0.001000,0.001000
1008.211538,-0.033253,0.001000,0.001000,0.001000,0.001000,0.001000
1008.230769,-0.032206,0.001000,0.001000,0.001000,0.001000,0.001000
1008.250000,-0.031133,0.001000,0.001000,0.001000,0.001000,0.001000
1008.269231,-0.030036,0.001000,0.001000,0.001000,0.001000,0.001000
1008.288462,-0.028917,0.001000,0.001000,0.001000,0.001000,0.001000
1008.307692,-0.027775,0.001000,0.001000,0.001000,0.001000,0.001000
1008.326923,-0.026612,0.001000,0.001000,0.001000,0.001000,0.001000
1008.346154,-0.025428,0.001000,0.001000,0.001000,0.001000,0.001000
1008.365385,-0.024225,0.001000,0.001000,0.001000,0.001000,0.001000
1008.384615,-0.023003,0.001000,0.001000,0.001000,0.001000,0.001000
1008.403846,-0.021763,0.001000,0.001000,0.001000,0.001000,0.001000
1008.423077,-0.020507,0.001000,0.001000,0.001000,0.001000,0.001000
1008.442308,-0.019235,0.001000,0.001000,0.001000,0.001000,0.001000
1008.461538,-0.017948,0.001000,0.001000,0.001000,0.001000,0.001000
1008.480769,-0.016647,0.001000,0.001000,0.001000,0.001000,0.001000
1008.500000,-0.015334,0.001000,0.001000,0.001000,0.001000,0.001000
1008.519231,-0.014009,0.001000,0.001000,0.001000,0.001000,0.001000
1008.538462,-0.012673,0.001000,0.001000,0.001000,0.001000,0.001000
1008.557692,-0.011327,0.001000,0.001000,0.001000,0.001000,0.001000
1008.576923,-0.009973,0.001000,0.001000,0.001000,0.001000,0.001000
1008.596154,-0.008611,0.001000,0.001000,0.001000,0.001000,0.001000
1008.615385,-0.007242,0.001000,0.001000,0.001000,0.001000,0.001000
1008.634615,-0.005868,0.001000,0.001000,0.001000,0.001000,0.001000
1008.653846,-0.004489,0.001000,0.001000,0.001000,0.001000,0.001000
1008.673077,-0.003107,0.001000,0.001000,0.001000,0.001000,0.001000
1008.692308,-0.001722,0.001000,0.001000,0.001000,0.001000,0.001000
1008.711538,-0.000336,0.001000,0.001000,0.001000,0.001000,0.001000
1008.730769,0.001050,0.001000,0.001000,0.001000,0.001000,0.001000
1008.750000,0.002435,0.001000,0.001000,0.001000,0.001000,0.001000
1008.769231,0.003819,0.001000,0.001000,0.001000,0.001000,0.001000
1008.788462,0.005200,0.001000,0.001000,0.001000,0.001000,0.001000
1008.807692,0.006576,0.001000,0.001000,0.001000,0.001000,0.001000
1008.826923,0.007948,0.001000,0.001000,0.001000,0.001000,0.001000
1008.846154,0.009313,0.001000,0.001000,0.001000,0.001000,0.001000
1008.865385,0.010671,0.001000,0.001000,0.001000,0.001000,0.001000
1008.884615,0.012021,0.001000,0.001000,0.001000,0.001000,0.001000
1008.903846,0.013362,0.001000,0.001000,0.001000,0.001000,0.001000
1008.923077,0.014693,0.001000,0.001000,0.001000,0.001000,0.001000
1008.942308,0.016012,0.001000,0.001000,0.001000,0.001000,0.001000
1008.961538,0.017319,0.001000,0.001000,0.001000,0.001000,0.001000
1008.980769,0.018613,0.001000,0.001000,0.001000,0.001000,0.001000
1009.000000,0.019892,0.001000,0.001000,0.001000,0.001000,0.001000
1009.019231,0.021156,0.001000,0.001000,0.001000,0.001000,0.001000
1009.038462,0.022404,0.001000,0.001000,0.001000,0.001000,0.001000
1009.057692,0.023634,0.001000,0.001000,0.001000,0.001000,0.001000
1009.076923,0.024847,0.001000,0.001000,0.001000,0.001000,0.001000
1009.096154,0.026040,0.001000,0.001000,0.001000,0.001000,0.001000
1009.115385,0.027213,0.001000,0.001000,0.001000,0.001000,0.001000
1009.134615,0.028366,0.001000,0.001000,0.001000,0.001000,0.001000
1009.153846,0.029496,0.001000,0.001000,0.001000,0.001000,0.001000
1009.173077,0.030604,0.001000,0.001000,0.001000,0.001000,0.001000
1009.192308,0.031688,0.001000,0.001000,0.001000,0.001000,0.001000
1009.211538,0.032748,0.001000,0.001000,0.001000,0.001000,0.001000
1009.230769,0.033783,0.001000,0.001000,0.001000,0.001000,0.001000
1009.250000,0.034792,0.001000,0.001000,0.001000,0.001000,0.001000
1009.269231,0.035774,0.001000,0.001000,0.001000,0.001000,0.001000
1009.288462,0.036729,0.001000,0.001000,0.001000,0.001000,0.001000
1009.307692,0.037655,0.001000,0.001000,0.001000,0.001000,0.001000
1009.326923,0.038553,0.001000,0.001000,0.001000,0.001000,0.001000
1009.346154,0.039420,0.001000,0.001000,0.001000,0.001000,0.001000
1009.365385,0.040258,0.001000,0.001000,0.001000,0.001000,0.001000
1009.384615,0.041065,0.001000,0.001000,0.001000,0.001000,0.001000
1009.403846,0.041840,0.001000,0.001000,0.001000,0.001000,0.001000
1009.423077,0.042582,0.001000,0.001000,0.001000,0.001000,0.001000
1009.442308,0.043292,0.001000,0.001000,0.001000,0.001000,0.001000
1009.461538,0.043969,0.001000,0.001000,0.001000,0.001000,0.001000
1009.480769,0.044612,0.001000,0.001000,0.001000,0.001000,0.001000
1009.500000,0.045221,0.001000,0.001000,0.001000,0.001000,0.001000
1009.519231,0.045795,0.001000,0.001000,0.001000,0.001000,0.001000
1009.538462,0.046334,0.001000,0.001000,0.001000,0.001000,0.001000
1009.557692,0.046837,0.001000,0.001000,0.001000,0.001000,0.001000
1009.576923,0.047304,0.001000,0.001000,0.001000,0.001000,0.001000
1009.596154,0.047735,0.001000,0.001000,0.001000,0.001000,0.001000
1009.615385,0.048129,0.001000,0.001000,0.001000,0.001000,0.001000
1009.634615,0.048486,0.001000,0.001000,0.001000,0.001000,0.001000
1009.653846,0.048806,0.001000,0.001000,0.001000,0.001000,0.001000
1009.673077,0.049088,0.001000,0.001000,0.001000,0.001000,0.001000
1009.692308,0.049333,0.001000,0.001000,0.001000,0.001000,0.001000
1009.711538,0.049540,0.001000,0.001000,0.001000,0.001000,0.001000
1009.730769,0.049708,0.001000,0.001000,0.001000,0.001000,0.001000
1009.750000,0.049839,0.001000,0.001000,0.001000,0.001000,0.001000
1009.769231,0.049931,0.001000,0.001000,0.001000,0.001000,0.001000
1009.788462,0.049985,0.001000,0.001000,0.001000,0.001000,0.001000
1009.807692,0.050000,0.001000,0.001000,0.001000,0.001000,0.001000
1009.826923,0.049977,0.001000,0.001000,0.001000,0.001000,0.001000
1009.846154,0.049915,0.001000,0.001000,0.001000,0.001000,0.001000
1009.865385,0.049815,0.001000,0.001000,0.001000,0.001000,0.001000
1009.884615,0.049677,0.001000,0.001000,0.001000,0.001000,0.001000
1009.903846,0.049501,0.001000,0.001000,0.001000,0.001000,0.001000
1009.923077,0.049286,0.001000,0.001000,0.001000,0.001000,0.001000
1009.942308,0.049034,0.001000,0.001000,0.001000,0.001000,0.001000
1009.961538,0.048744,0.001000,0.001000,0.001000,0.001000,0.001000
1009.980769,0.048416,0.001000,0.001000,0.001000,0.001000,0.001000
1010.000000,0.048052,0.001000,0.001000,0.001000,0.001000,0.001000
1010.019231,0.047650,0.001000,0.001000,0.001000,0.001000,0.001000
1010.038462,0.047212,0.001000,0.001000,0.001000,0.001000,0.001000
1010.057692,0.046737,0.001000,0.001000,0.001000,0.001000,0.001000
1010.076923,0.046227,0.001000,0.001000,0.001000,0.001000,0.001000
1010.096154,0.045681,0.001000,0.001000,0.001000,0.001000,0.001000
1010.115385,0.045099,0.001000,0.001000,0.001000,0.001000,0.001000
1010.134615,0.044484,0.001000,0.001000,0.001000,0.001000,0.001000
1010.153846,0.043834,0.001000,0.001000,0.001000,0.001000,0.001000
1010.173077,0.043150,0.001000,0.001000,0.001000,0.001000,0.001000
1010.192308,0.042433,0.001000,0.001000,0.001000,0.001000,0.001000
1010.211538,0.041684,0.001000,0.001000,0.001000,0.001000,0.001000
1010.230769,0.040902,0.001000,0.001000,0.001000,0.001000,0.001000
1010.250000,0.040089,0.001000,0.001000,0.001000,0.001000,0.001000
1010.269231,0.039245,0.001000,0.001000,0.001000,0.001000,0.001000
1010.288462,0.038372,0.001000,0.001000,0.001000,0.001000,0.001000
1010.307692,0.037468,0.001000,0.001000,0.001000,0.001000,0.001000
1010.326923,0.036536,0.001000,0.001000,0.001000,0.001000,0.001000
1010.346154,0.035576,0.001000,0.001000,0.001000,0.001000,0.001000
1010.365385,0.034588,0.001000,0.001000,0.001000,0.001000,0.001000
1010.384615,0.033574,0.001000,0.001000,0.001000,0.001000,0.001000
1010.403846,0.032534,0.001000,0.001000,0.001000,0.001000,0.001000
1010.423077,0.031469,0.001000,0.001000,0.001000,0.001000,0.001000
1010.442308,0.030379,0.001000,0.001000,0.001000,0.001000,0.001000
1010.461538,0.029267,0.001000,0.001000,0.001000,0.001000,0.001000
1010.480769,0.028132,0.001000,0.001000,0.001000,0.001000,0.001000
1010.500000,0.026975,0.001000,0.001000,0.001000,0.001000,0.001000
1010.519231,0.025798,0.001000,0.001000,0.001000,0.001000,0.001000
1010.538462,0.024600,0.001000,0.001000,0.001000,0.001000,0.001000
1010.557692,0.023384,0.001000,0.001000,0.001000,0.001000,0.001000
1010.576923,0.022150,0.001000,0.001000,0.001000,0.001000,0.001000
1010.596154,0.020899,0.001000,0.001000,0.001000,0.001000,0.001000
1010.615385,0.019632,0.001000,0.001000,0.001000,0.001000,0.001000
1010.634615,0.018349,0.001000,0.001000,0.001000,0.001000,0.001000
1010.653846,0.017053,0.001000,0.001000,0.001000,0.001000,0.001000
1010.673077,0.015743,0.001000,0.001000,0.001000,0.001000,0.001000
1010.692308,0.014422,0.001000,0.001000,0.001000,0.001000,0.001000
1010.711538,0.013089,0.001000,0.001000,0.001000,0.001000,0.001000
1010.730769,0.011746,0.001000,0.001000,0.001000,0.001000,0.001000
1010.750000,0.010394,0.001000,0.001000,0.001000,0.001000,0.001000
1010.769231,0.009034,0.001000,0.001000,0.001000,0.001000,0.001000
1010.788462,0.007668,0.001000,0.001000,0.001000,0.001000,0.001000
1010.807692,0.006295,0.001000,0.001000,0.001000,0.001000,0.001000
1010.826923,0.004918,0.001000,0.001000,0.001000,0.001000,0.001000
1010.846154,0.003536,0.001000,0.001000,0.001000,0.001000,0.001000
1010.865385,0.002152,0.001000,0.001000,0.001000,0.001000,0.001000
1010.884615,0.000767,0.001000,0.001000,0.001000,0.001000,0.001000
1010.903846,-0.000620,0.001000,0.001000,0.001000,0.001000,0.001000
1010.923077,-0.002005,0.001000,0.001000,0.001000,0.001000,0.001000
1010.942308,-0.003389,0.001000,0.001000,0.001000,0.001000,0.001000
1010.961538,-0.004771,0.001000,0.001000,0.001000,0.001000,0.001000
1010.980769,-0.006149,0.001000,0.001000,0.001000,0.001000,0.001000
1011.000000,-0.007522,0.001000,0.001000,0.001000,0.001000,0.001000
1011.019231,-0.008890,0.001000,0.001000,0.001000,0.001000,0.001000
1011.038462,-0.010250,0.001000,0.001000,0.001000,0.001000,0.001000
1011.057692,-0.011603,0.001000,0.001000,0.001000,0.001000,0.001000
1011.076923,-0.012947,0.001000,0.001000,0.001000,0.001000,0.001000
1011.096154,-0.014281,0.001000,0.001000,0.001000,0.001000,0.001000
1011.115385,-0.015603,0.001000,0.001000,0.001000,0.001000,0.001000
1011.134615,-0.016914,0.001000,0.001000,0.001000,0.001000,0.001000
1011.153846,-0.018212,0.001000,0.001000,0.001000,0.001000,0.001000
1011.173077,-0.019496,0.001000,0.001000,0.001000,0.001000,0.001000
1011.192308,-0.020765,0.001000,0.001000,0.001000,0.001000,0.001000
1011.211538,-0.022018,0.001000,0.001000,0.001000,0.001000,0.001000
1011.230769,-0.023254,0.001000,0.001000,0.001000,0.001000,0.001000
1011.250000,-0.024472,0.001000,0.001000,0.001000,0.001000,0.001000
1011.269231,-0.025671,0.001000,0.001000,0.001000,0.001000,0.001000
1011.288462,-0.026851,0.001000,0.001000,0.001000,0.001000,0.001000
1011.307692,-0.028010,0.001000,0.001000,0.001000,0.001000,0.001000
1011.326923,-0.029147,0.001000,0.001000,0.001000,0.001000,0.001000
1011.346154,-0.030262,0.001000,0.001000,0.001000,0.001000,0.001000
1011.365385,-0.031354,0.001000,0.001000,0.001000,0.001000,0.001000
1011.384615,-0.032422,0.001000,0.001000,0.001000,0.001000,0.001000
1011.403846,-0.033465,0.001000,0.001000,0.001000,0.001000,0.001000
1011.423077,-0.034482,0.001000,0.001000,0.001000,0.001000,0.001000
1011.442308,-0.035472,0.001000,0.001000,0.001000,0.001000,0.001000
1011.461538,-0.036435,0.001000,0.001000,0.001000,0.001000,0.001000
1011.480769,-0.037371,0.001000,0.001000,0.001000,0.001000,0.001000
1011.500000,-0.038277,0.001000,0.001000,0.001000,0.001000,0.001000
1011.519231,-0.039154,0.001000,0.001000,0.001000,0.001000,0.001000
1011.538462,-0.040001,0.001000,0.001000,0.001000,0.001000,0.001000
1011.557692,-0.040817,0.001000,0.001000,0.001000,0.001000,0.001000
1011.576923,-0.041602,0.001000,0.001000,0.001000,0.001000,0.001000
1011.596154,-0.042355,0.001000,0.001000,0.001000,0.001000,0.001000
1011.615385,-0.043075,0.001000,0.001000,0.001000,0.001000,0.001000
1011.634615,-0.043763,0.001000,0.001000,0.001000,0.001000,0.001000
1011.653846,-0.044416,0.001000,0.001000,0.001000,0.001000,0.001000
1011.673077,-0.045036,0.001000,0.001000,0.001000,0.001000,0.001000
1011.692308,-0.045621,0.001000,0.001000,0.001000,0.001000,0.001000
1011.711538,-0.046170,0.001000,0.001000,0.001000,0.001000,0.001000
1011.730769,-0.046685,0.001000,0.001000,0.001000,0.001000,0.001000
1011.750000,-0.047163,0.001000,0.001000,0.001000,0.001000,0.001000
1011.769231,-0.047605,0.001000,0.001000,0.001000,0.001000,0.001000
1011.788462,-0.048011,0.001000,0.001000,0.001000,0.001000,0.001000
1011.807692,-0.048379,0.001000,0.001000,0.001000,0.001000,0.001000
1011.826923,-0.048711,0.001000,0.001000,0.001000,0.001000,0.001000
1011.846154,-0.049005,0.001000,0.001000,0.001000,0.001000,0.001000
1011.865385,-0.049261,0.001000,0.001000,0.001000,0.001000,0.001000
1011.884615,-0.049480,0.001000,0.001000,0.001000,0.001000,0.001000
1011.903846,-0.049660,0.001000,0.001000,0.001000,0.001000,0.001000
1011.923077,-0.049802,0.001000,0.001000,0.001000,0.001000,0.001000
1011.942308,-0.049906,0.001000,0.001000,0.001000,0.001000,0.001000
1011.961538,-0.049972,0.001000,0.001000,0.001000,0.001000,0.001000
1011.980769,-0.049999,0.001000,0.001000,0.001000,0.001000,0.001000
1012.000000,-0.049988,0.001000,0.001000,0.001000,0.001000,0.001000
1012.019231,-0.049938,0.001000,0.001000,0.001000,0.001000,0.001000
1012.038462,-0.049850,0.001000,0.001000,0.001000,0.001000,0.001000
1012.057692,-0.049724,0.001000,0.001000,0.001000,0.001000,0.001000
1012.076923,-0.049559,0.001000,0.001000,0.001000,0.001000,0.001000
1012.096154,-0.049357,0.001000,0.001000,0.001000,0.001000,0.001000
1012.115385,-0.049116,0.001000,0.001000,0.001000,0.001000,0.001000
1012.134615,-0.048838,0.001000,0.001000,0.001000,0.001000,0.001000
1012.153846,-0.048522,0.001000,0.001000,0.001000,0.001000,0.001000
1012.173077,-0.048169,0.001000,0.001000,0.001000,0.001000,0.001000
1012.192308,-0.047779,0.001000,0.001000,0.001000,0.001000,0.001000
1012.211538,-0.047352,0.001000,0.001000,0.001000,0.001000,0.001000
1012.230769,-0.046888,0.001000,0.001000,0.001000,0.001000,0.001000
1012.250000,-0.046389,0.001000,0.001000,0.001000,0.001000,0.001000
1012.269231,-0.045854,0.001000,0.001000,0.001000,0.001000,0.001000
1012.288462,-0.045284,0.001000,0.001000,0.001000,0.001000,0.001000
1012.307692,-0.044679,0.001000,0.001000,0.001000,0.001000,0.001000
1012.326923,-0.044039,0.001000,0.001000,0.001000,0.001000,0.001000
1012.346154,-0.043366,0.001000,0.001000,0.001000,0.001000,0.001000
1012.365385,-0.042659,0.001000,0.001000,0.001000,0.001000,0.001000
1012.384615,-0.041920,0.001000,0.001000,0.001000,0.001000,0.001000
1012.403846,-0.041148,0.001000,0.001000,0.001000,0.001000,0.001000
1012.423077,-0.040345,0.001000,0.001000,0.001000,0.001000,0.001000
1012.442308,-0.039511,0.001000,0.001000,0.001000,0.001000,0.001000
1012.461538,-0.038646,0.001000,0.001000,0.001000,0.001000,0.001000
1012.480769,-0.037752,0.001000,0.001000,0.001000,0.001000,0.001000
1012.500000,-0.036829,0.001000,0.001000,0.001000,0.001000,0.001000
1012.519231,-0.035877,0.001000,0.001000,0.001000,0.001000,0.001000
1012.538462,-0.034898,0.001000,0.001000,0.001000,0.001000,0.001000
1012.557692,-0.033892,0.001000,0.001000,0.001000,0.001000,0.001000
1012.576923,-0.032859,0.001000,0.001000,0.001000,0.001000,0.001000
1012.596154,-0.031802,0.001000,0.001000,0.001000,0.001000,0.001000
1012.615385,-0.030720,0.001000,0.001000,0.001000,0.001000,0.001000
1012.634615,-0.029615,0.001000,0.001000,0.001000,0.001000,0.001000
1012.653846,-0.028487,0.001000,0.001000,0.001000,0.001000,0.001000
1012.673077,-0.027337,0.001000,0.001000,0.001000,0.001000,0.001000
1012.692308,-0.026166,0.001000,0.001000,0.001000,0.001000,0.001000
1012.711538,-0.024974,0.001000,0.001000,0.001000,0.001000,0.001000
1012.730769,-0.023764,0.001000,0.001000,0.001000,0.001000,0.001000
1012.750000,-0.022535,0.001000,0.001000,0.001000,0.001000,0.001000
1012.769231,-0.021289,0.001000,0.001000,0.001000,0.001000,0.001000
1012.788462,-0.020027,0.001000,0.001000,0.001000,0.001000,0.001000
1012.807692,-0.018749,0.001000,0.001000,0.001000,0.001000,0.001000
1012.826923,-0.017457,0.001000,0.001000,0.001000,0.001000,0.001000
1012.846154,-0.016151,0.001000,0.001000,0.001000,0.001000,0.001000
1012.865385,-0.014833,0.001000,0.001000,0.001000,0.001000,0.001000
1012.884615,-0.013504,0.001000,0.001000,0.001000,0.001000,0.001000
1012.903846,-0.012164,0.001000,0.001000,0.001000,0.001000,0.001000
1012.923077,-0.010815,0.001000,0.001000,0.001000,0.001000,0.001000
1012.942308,-0.009458,0.001000,0.001000,0.001000,0.001000,0.001000
1012.961538,-0.008093,0.001000,0.001000,0.001000,0.001000,0.001000
1012.980769,-0.006722,0.001000,0.001000,0.001000,0.001000,0.001000
1013.000000,-0.005346,0.001000,0.001000,0.001000,0.001000,0.001000
1013.019231,-0.003966,0.001000,0.001000,0.001000,0.001000,0.001000
1013.038462,-0.002582,0.001000,0.001000,0.001000,0.001000,0.001000
1013.057692,-0.001197,0.001000,0.001000,0.001000,0.001000,0.001000
1013.076923,0.000189,0.001000,0.001000,0.001000,0.001000,0.001000
1013.096154,0.001575,0.001000,0.001000,0.001000,0.001000,0.001000
1013.115385,0.002960,0.001000,0.001000,0.001000,0.001000,0.001000
1013.134615,0.004342,0.001000,0.001000,0.001000,0.001000,0.001000
1013.153846,0.005721,0.001000,0.001000,0.001000,0.001000,0.001000
1013.173077,0.007096,0.001000,0.001000,0.001000,0.001000,0.001000
1013.192308,0.008466,0.001000,0.001000,0.001000,0.001000,0.001000
1013.211538,0.009828,0.001000,0.001000,0.001000,0.001000,0.001000
1013.230769,0.011184,0.001000,0.001000,0.001000,0.001000,0.001000
1013.250000,0.012530,0.001000,0.001000,0.001000,0.001000,0.001000
1013.269231,0.013867,0.001000,0.001000,0.001000,0.001000,0.001000
1013.288462,0.015194,0.001000,0.001000,0.001000,0.001000,0.001000
1013.307692,0.016509,0.001000,0.001000,0.001000,0.001000,0.001000
1013.326923,0.017811,0.001000,0.001000,0.001000,0.001000,0.001000
1013.346154,0.019099,0.001000,0.001000,0.001000,0.001000,0.001000
1013.365385,0.020373,0.001000,0.001000,0.001000,0.001000,0.001000
1013.384615,0.021631,0.001000,0.001000,0.001000,0.001000,0.001000
1013.403846,0.022872,0.001000,0.001000,0.001000,0.001000,0.001000
1013.423077,0.024096,0.001000,0.001000,0.001000,0.001000,0.001000
1013.442308,0.025301,0.001000,0.001000,0.001000,0.001000,0.001000
1013.461538,0.026487,0.001000,0.001000,0.001000,0.001000,0.001000
1013.480769,0.027652,0.001000,0.001000,0.001000,0.001000,0.001000
1013.500000,0.028796,0.001000,0.001000,0.001000,0.001000,0.001000
1013.519231,0.029918,0.001000,0.001000,0.001000,0.001000,0.001000
1013.538462,0.031018,0.001000,0.001000,0.001000,0.001000,0.001000
1013.557692,0.032093,0.001000,0.001000,0.001000,0.001000,0.001000
1013.576923,0.033143,0.001000,0.001000,0.001000,0.001000,0.001000
1013.596154,0.034168,0.001000,0.001000,0.001000,0.001000,0.001000
1013.615385,0.035167,0.001000,0.001000,0.001000,0.001000,0.001000
1013.634615,0.036139,0.001000,0.001000,0.001000,0.001000,0.001000
1013.653846,0.037083,0.001000,0.001000,0.001000,0.001000,0.001000
1013.673077,0.037999,0.001000,0.001000,0.001000,0.001000,0.001000
1013.692308,0.038885,0.001000,0.001000,0.001000,0.001000,0.001000
1013.711538,0.039741,0.001000,0.001000,0.001000,0.001000,0.001000
1013.730769,0.040567,0.001000,0.001000,0.001000,0.001000,0.001000
1013.750000,0.041362,0.001000,0.001000,0.001000,0.001000,0.001000
1013.769231,0.042125,0.001000,0.001000,0.001000,0.001000,0.001000
1013.788462,0.042855,0.001000,0.001000,0.001000,0.001000,0.001000
1013.807692,0.043553,0.001000,0.001000,0.001000,0.001000,0.001000
1013.826923,0.044217,0.001000,0.001000,0.001000,0.001000,0.001000
1013.846154,0.044847,0.001000,0.001000,0.001000,0.001000,0.001000
1013.865385,0.045443,0.001000,0.001000,0.001000,0.001000,0.001000
1013.884615,0.046003,0.001000,0.001000,0.001000,0.001000,0.001000
1013.903846,0.046529,0.001000,0.001000,0.001000,0.001000,0.001000
1013.923077,0.047018,0.001000,0.001000,0.001000,0.001000,0.001000
1013.942308,0.047472,0.001000,0.001000,0.001000,0.001000,0.001000
1013.961538,0.047889,0.001000,0.001000,0.001000,0.001000,0.001000
1013.980769,0.048269,0.001000,0.001000,0.001000,0.001000,0.001000
1014.000000,0.048612,0.001000,0.001000,0.001000,0.001000,0.001000
1014.019231,0.048917,0.001000,0.001000,0.001000,0.001000,0.001000
1014.038462,0.049186,0.001000,0.001000,0.001000,0.001000,0.001000
1014.057692,0.049416,0.001000,0.001000,0.001000,0.001000,0.001000
1014.076923,0.049608,0.001000,0.001000,0.001000,0.001000,0.001000
1014.096154,0.049762,0.001000,0.001000,0.001000,0.001000,0.001000
1014.115385,0.049878,0.001000,0.001000,0.001000,0.001000,0.001000
1014.134615,0.049956,0.001000,0.001000,0.001000,0.001000,0.001000
1014.153846,0.049995,0.001000,0.001000,0.001000,0.001000,0.001000
1014.173077,0.049996,0.001000,0.001000,0.001000,0.001000,0.001000
1014.192308,0.049958,0.001000,0.001000,0.001000,0.001000,0.001000
1014.211538,0.049882,0.001000,0.001000,0.001000,0.001000,0.001000
1014.230769,0.049767,0.001000,0.001000,0.001000,0.001000,0.001000
1014.250000,0.049615,0.001000,0.001000,0.001000,0.001000,0.001000
1014.269231,0.049424,0.001000,0.001000,0.001000,0.001000,0.001000
1014.288462,0.049195,0.001000,0.001000,0.001000,0.001000,0.001000
1014.307692,0.048928,0.001000,0.001000,0.001000,0.001000,0.001000
1014.326923,0.048624,0.001000,0.001000,0.001000,0.001000,0.001000
1014.346154,0.048282,0.001000,0.001000,0.001000,0.001000,0.001000
1014.365385,0.047904,0.001000,0.001000,0.001000,0.001000,0.001000
1014.384615,0.047488,0.001000,0.001000,0.001000,0.001000,0.001000
1014.403846,0.047036,0.001000,0.001000,0.001000,0.001000,0.001000
1014.423077,0.046548,0.001000,0.001000,0.001000,0.001000,0.001000
1014.442308,0.046024,0.001000,0.001000,0.001000,0.001000,0.001000
1014.461538,0.045465,0.001000,0.001000,0.001000,0.001000,0.001000
1014.480769,0.044870,0.001000,0.001000,0.001000,0.001000,0.001000
1014.500000,0.044241,0.001000,0.001000,0.001000,0.001000,0.001000
1014.519231,0.043579,0.001000,0.001000,0.001000,0.001000,0.001000
1014.538462,0.042882,0.001000,0.001000,0.001000,0.001000,0.001000
1014.557692,0.042153,0.001000,0.001000,0.001000,0.001000,0.001000
1014.576923,0.041391,0.001000,0.001000,0.001000,0.001000,0.001000
1014.596154,0.040598,0.001000,0.001000,0.001000,0.001000,0.001000
1014.615385,0.039773,0.001000,0.001000,0.001000,0.001000,0.001000
1014.634615,0.038918,0.001000,0.001000,0.001000,0.001000,0.001000
1014.653846,0.038033,0.001000,0.001000,0.001000,0.001000,0.001000
1014.673077,0.037118,0.001000,0.001000,0.001000,0.001000,0.001000
1014.692308,0.036175,0.001000,0.001000,0.001000,0.001000,0.001000
1014.711538,0.035205,0.001000,0.001000,0.001000,0.001000,0.001000
1014.730769,0.034207,0.001000,0.001000,0.001000,0.001000,0.001000
1014.750000,0.033183,0.001000,0.001000,0.001000,0.001000,0.001000
1014.769231,0.032133,0.001000,0.001000,0.001000,0.001000,0.001000
1014.788462,0.031059,0.001000,0.001000,0.001000,0.001000,0.001000
1014.807692,0.029961,0.001000,0.001000,0.001000,0.001000,0.001000
1014.826923,0.028840,0.001000,0.001000,0.001000,0.001000,0.001000
1014.846154,0.027696,0.001000,0.001000,0.001000,0.001000,0.001000
1014.865385,0.026531,0.001000,0.001000,0.001000,0.001000,0.001000
1014.884615,0.025346,0.001000,0.001000,0.001000,0.001000,0.001000
1014.903846,0.024142,0.001000,0.001000,0.001000,0.001000,0.001000
1014.923077,0.022919,0.001000,0.001000,0.001000,0.001000,0.001000
1014.942308,0.021678,0.001000,0.001000,0.001000,0.001000,0.001000
1014.961538,0.020421,0.001000,0.001000,0.001000,0.001000,0.001000
1014.980769,0.019148,0.001000,0.001000,0.001000,0.001000,0.001000
1015.000000,0.017860,0.001000,0.001000,0.001000,0.001000,0.001000
1015.019231,0.016558,0.001000,0.001000,0.001000,0.001000,0.001000
1015.038462,0.015244,0.001000,0.001000,0.001000,0.001000,0.001000
1015.057692,0.013918,0.001000,0.001000,0.001000,0.001000,0.001000
1015.076923,0.012581,0.001000,0.001000,0.001000,0.001000,0.001000
1015.096154,0.011235,0.001000,0.001000,0.001000,0.001000,0.001000
1015.115385,0.009880,0.001000,0.001000,0.001000,0.001000,0.001000
1015.134615,0.008518,0.001000,0.001000,0.001000,0.001000,0.001000
1015.153846,0.007148,0.001000,0.001000,0.001000,0.001000,0.001000
1015.173077,0.005774,0.001000,0.001000,0.001000,0.001000,0.001000
1015.192308,0.004395,0.001000,0.001000,0.001000,0.001000,0.001000
1015.211538,0.003012,0.001000,0.001000,0.001000,0.001000,0.001000
1015.230769,0.001628,0.001000,0.001000,0.001000,0.001000,0.001000
1015.250000,0.000242,0.001000,0.001000,0.001000,0.001000,0.001000
1015.269231,-0.001144,0.001000,0.001000,0.001000,0.001000,0.001000
1015.288462,-0.002530,0.001000,0.001000,0.001000,0.001000,0.001000
1015.307692,-0.003913,0.001000,0.001000,0.001000,0.001000,0.001000
1015.326923,-0.005293,0.001000,0.001000,0.001000,0.001000,0.001000
1015.346154,-0.006670,0.001000,0.001000,0.001000,0.001000,0.001000
1015.365385,-0.008041,0.001000,0.001000,0.001000,0.001000,0.001000
1015.384615,-0.009406,0.001000,0.001000,0.001000,0.001000,0.001000
1015.403846,-0.010764,0.001000,0.001000,0.001000,0.001000,0.001000
1015.423077,-0.012113,0.001000,0.001000,0.001000,0.001000,0.001000
1015.442308,-0.013453,0.001000,0.001000,0.001000,0.001000,0.001000
1015.461538,-0.014783,0.001000,0.001000,0.001000,0.001000,0.001000
1015.480769,-0.016101,0.001000,0.001000,0.001000,0.001000,0.001000
1015.500000,-0.017408,0.001000,0.001000,0.001000,0.001000,0.001000
1015.519231,-0.018700,0.001000,0.001000,0.001000,0.001000,0.001000
1015.538462,-0.019979,0.001000,0.001000,0.001000,0.001000,0.001000
1015.557692,-0.021242,0.001000,0.001000,0.001000,0.001000,0.001000
1015.576923,-0.022488,0.001000,0.001000,0.001000,0.001000,0.001000
1015.596154,-0.023717,0.001000,0.001000,0.001000,0.001000,0.001000
1015.615385,-0.024929,0.001000,0.001000,0.001000,0.001000,0.001000
1015.634615,-0.026121,0.001000,0.001000,0.001000,0.001000,0.001000
1015.653846,-0.027292,0.001000,0.001000,0.001000,0.001000,0.001000
1015.673077,-0.028443,0.001000,0.001000,0.001000,0.001000,0.001000
1015.692308,-0.029572,0.001000,0.001000,0.001000,0.001000,0.001000
1015.711538,-0.030679,0.001000,0.001000,0.001000,0.001000,0.001000
1015.730769,-0.031761,0.001000,0.001000,0.001000,0.001000,0.001000
1015.750000,-0.032820,0.001000,0.001000,0.001000,0.001000,0.001000
1015.769231,-0.033853,0.001000,0.001000,0.001000,0.001000,0.001000
1015.788462,-0.034860,0.001000,0.001000,0.001000,0.001000,0.001000
1015.807692,-0.035840,0.001000,0.001000,0.001000,0.001000,0.001000
1015.826923,-0.036793,0.001000,0.001000,0.001000,0.001000,0.001000
1015.846154,-0.037717,0.001000,0.001000,0.001000,0.001000,0.001000
1015.865385,-0.038613,0.001000,0.001000,0.001000,0.001000,0.001000
1015.884615,-0.039478,0.001000,0.001000,0.001000,0.001000,0.001000
1015.903846,-0.040314,0.001000,0.001000,0.001000,0.001000,0.001000
1015.923077,-0.041118,0.001000,0.001000,0.001000,0.001000,0.001000
1015.942308,-0.041891,0.001000,0.001000,0.001000,0.001000,0.001000
1015.961538,-0.042632,0.001000,0.001000,0.001000,0.001000,0.001000
1015.980769,-0.043340,0.001000,0.001000,0.001000,0.001000,0.001000
1016.000000,-0.044014,0.001000,0.001000,0.001000,0.001000,0.001000
1016.019231,-0.044655,0.001000,0.001000,0.001000,0.001000,0.001000
1016.038462,-0.045261,0.001000,0.001000,0.001000,0.001000,0.001000
1016.057692,-0.045833,0.001000,0.001000,0.001000,0.001000,0.001000
1016.076923,-0.046369,0.001000,0.001000,0.001000,0.001000,0.001000
1016.096154,-0.046870,0.001000,0.001000,0.001000,0.001000,0.001000
1016.115385,-0.047335,0.001000,0.001000,0.001000,0.001000,0.001000
1016.134615,-0.047763,0.001000,0.001000,0.001000,0.001000,0.001000
1016.153846,-0.048155,0.001000,0.001000,0.001000,0.001000,0.001000
1016.173077,-0.048509,0.001000,0.001000,0.001000,0.001000,0.001000
1016.192308,-0.048827,0.001000,0.001000,0.001000,0.001000,0.001000
1016.211538,-0.049106,0.001000,0.001000,0.001000,0.001000,0.001000
1016.230769,-0.049348,0.001000,0.001000,0.001000,0.001000,0.001000
1016.250000,-0.049552,0.001000,0.001000,0.001000,0.001000,0.001000
1016.269231,-0.049718,0.001000,0.001000,0.001000,0.001000,0.001000
1016.288462,-0.049846,0.001000,0.001000,0.001000,0.001000,0.001000
1016.307692,-0.049936,0.001000,0.001000,0.001000,0.001000,0.001000
1016.326923,-0.049987,0.001000,0.001000,0.001000,0.001000,0.001000
1016.346154,-0.049999,0.001000,0.001000,0.001000,0.001000,0.001000
1016.365385,-0.049974,0.001000,0.001000,0.001000,0.001000,0.001000
1016.384615,-0.049910,0.001000,0.001000,0.001000,0.001000,0.001000
1016.403846,-0.049807,0.001000,0.001000,0.001000,0.001000,0.001000
1016.423077,-0.049666,0.001000,0.001000,0.001000,0.001000,0.001000
1016.442308,-0.049487,0.001000,0.001000,0.001000,0.001000,0.001000
1016.461538,-0.049270,0.001000,0.001000,0.001000,0.001000,0.001000
1016.480769,-0.049015,0.001000,0.001000,0.001000,0.001000,0.001000
1016.500000,-0.048723,0.001000,0.001000,0.001000,0.001000,0.001000
1016.519231,-0.048393,0.001000,0.001000,0.001000,0.001000,0.001000
1016.538462,-0.048025,0.001000,0.001000,0.001000,0.001000,0.001000
1016.557692,-0.047621,0.001000,0.001000,0.001000,0.001000,0.001000
1016.576923,-0.047180,0.001000,0.001000,0.001000,0.001000,0.001000
1016.596154,-0.046703,0.001000,0.001000,0.001000,0.001000,0.001000
1016.615385,-0.046191,0.001000,0.001000,0.001000,0.001000,0.001000
1016.634615,-0.045642,0.001000,0.001000,0.001000,0.001000,0.001000
1016.653846,-0.045059,0.001000,0.001000,0.001000,0.001000,0.001000
1016.673077,-0.044440,0.001000,0.001000,0.001000,0.001000,0.001000
1016.692308,-0.043788,0.001000,0.001000,0.001000,0.001000,0.001000
1016.711538,-0.043102,0.001000,0.001000,0.001000,0.001000,0.001000
1016.730769,-0.042383,0.001000,0.001000,0.001000,0.001000,0.001000
1016.750000,-0.041631,0.001000,0.001000,0.001000,0.001000,0.001000
1016.769231,-0.040848,0.001000,0.001000,0.001000,0.001000,0.001000
1016.788462,-0.040033,0.001000,0.001000,0.001000,0.001000,0.001000
1016.807692,-0.039187,0.001000,0.001000,0.001000,0.001000,0.001000
1016.826923,-0.038311,0.001000,0.001000,0.001000,0.001000,0.001000
1016.846154,-0.037406,0.001000,0.001000,0.001000,0.001000,0.001000
1016.865385,-0.036471,0.001000,0.001000,0.001000,0.001000,0.001000
1016.884615,-0.035509,0.001000,0.001000,0.001000,0.001000,0.001000
1016.903846,-0.034520,0.001000,0.001000,0.001000,0.001000,0.001000
1016.923077,-0.033504,0.001000,0.001000,0.001000,0.001000,0.001000
1016.942308,-0.032462,0.001000,0.001000,0.001000,0.001000,0.001000
1016.961538,-0.031395,0.001000,0.001000,0.001000,0.001000,0.001000
1016.980769,-0.030304,0.001000,0.001000,0.001000,0.001000,0.001000
1017.000000,-0.029190,0.001000,0.001000,0.001000,0.001000,0.001000
1017.019231,-0.028054,0.001000,0.001000,0.001000,0.001000,0.001000
1017.038462,-0.026895,0.001000,0.001000,0.001000,0.001000,0.001000
1017.057692,-0.025717,0.001000,0.001000,0.001000,0.001000,0.001000
1017.076923,-0.024518,0.001000,0.001000,0.001000,0.001000,0.001000
1017.096154,-0.023301,0.001000,0.001000,0.001000,0.001000,0.001000
1017.115385,-0.022065,0.001000,0.001000,0.001000,0.001000,0.001000
1017.134615,-0.020813,0.001000,0.001000,0.001000,0.001000,0.001000
1017.153846,-0.019545,0.001000,0.001000,0.001000,0.001000,0.001000
1017.173077,-0.018261,0.001000,0.001000,0.001000,0.001000,0.001000
1017.192308,-0.016964,0.001000,0.001000,0.001000,0.001000,0.001000
1017.211538,-0.015654,0.001000,0.001000,0.001000,0.001000,0.001000
1017.230769,-0.014331,0.001000,0.001000,0.001000,0.001000,0.001000
1017.250000,-0.012998,0.001000,0.001000,0.001000,0.001000,0.001000
1017.269231,-0.011654,0.001000,0.001000,0.001000,0.001000,0.001000
1017.288462,-0.010302,0.001000,0.001000,0.001000,0.001000,0.001000
1017.307692,-0.008942,0.001000,0.001000,0.001000,0.001000,0.001000
1017.326923,-0.007574,0.001000,0.001000,0.001000,0.001000,0.001000
1017.346154,-0.006201,0.001000,0.001000,0.001000,0.001000,0.001000
1017.365385,-0.004824,0.001000,0.001000,0.001000,0.001000,0.001000
1017.384615,-0.003442,0.001000,0.001000,0.001000,0.001000,0.001000
1017.403846,-0.002058,0.001000,0.001000,0.001000,0.001000,0.001000
1017.423077,-0.000672,0.001000,0.001000,0.001000,0.001000,0.001000
1017.442308,0.000714,0.001000,0.001000,0.001000,0.001000,0.001000
1017.461538,0.002100,0.001000,0.001000,0.001000,0.001000,0.001000
1017.480769,0.003484,0.001000,0.001000,0.001000,0.001000,0.001000
1017.500000,0.004865,0.001000,0.001000,0.001000,0.001000,0.001000
1017.519231,0.006243,0.001000,0.001000,0.001000,0.001000,0.001000
1017.538462,0.007616,0.001000,0.001000,0.001000,0.001000,0.001000
1017.557692,0.008983,0.001000,0.001000,0.001000,0.001000,0.001000
1017.576923,0.010343,0.001000,0.001000,0.001000,0.001000,0.001000
1017.596154,0.011695,0.001000,0.001000,0.001000,0.001000,0.001000
1017.615385,0.013038,0.001000,0.001000,0.001000,0.001000,0.001000
1017.634615,0.014371,0.001000,0.001000,0.001000,0.001000,0.001000
1017.653846,0.015693,0.001000,0.001000,0.001000,0.001000,0.001000
1017.673077,0.017003,0.001000,0.001000,0.001000,0.001000,0.001000
1017.692308,0.018300,0.001000,0.001000,0.001000,0.001000,0.001000
1017.711538,0.019583,0.001000,0.001000,0.001000,0.001000,0.001000
1017.730769,0.020851,0.001000,0.001000,0.001000,0.001000,0.001000
1017.750000,0.022103,0.001000,0.001000,0.001000,0.001000,0.001000
1017.769231,0.023338,0.001000,0.001000,0.001000,0.001000,0.001000
1017.788462,0.024554,0.001000,0.001000,0.001000,0.001000,0.001000
1017.807692,0.025752,0.001000,0.001000,0.001000,0.001000,0.001000
1017.826923,0.026931,0.001000,0.001000,0.001000,0.001000,0.001000
1017.846154,0.028088,0.001000,0.001000,0.001000,0.001000,0.001000
1017.865385,0.029224,0.001000,0.001000,0.001000,0.001000,0.001000
1017.884615,0.030338,0.001000,0.001000,0.001000,0.001000,0.001000
1017.903846,0.031428,0.001000,0.001000,0.001000,0.001000,0.001000
1017.923077,0.032494,0.001000,0.001000,0.001000,0.001000,0.001000
1017.942308,0.033535,0.001000,0.001000,0.001000,0.001000,0.001000
1017.961538,0.034550,0.001000,0.001000,0.001000,0.001000,0.001000
1017.980769,0.035539,0.001000,0.001000,0.001000,0.001000,0.001000
1018.000000,0.036500,0.001000,0.001000,0.001000,0.001000,0.001000
1018.019231,0.037433,0.001000,0.001000,0.001000,0.001000,0.001000
1018.038462,0.038338,0.001000,0.001000,0.001000,0.001000,0.001000
1018.057692,0.039213,0.001000,0.001000,0.001000,0.001000,0.001000
1018.076923,0.040058,0.001000,0.001000,0.001000,0.001000,0.001000
1018.096154,0.040872,0.001000,0.001000,0.001000,0.001000,0.001000
1018.115385,0.041655,0.001000,0.001000,0.001000,0.001000,0.001000
1018.134615,0.042405,0.001000,0.001000,0.001000,0.001000,0.001000
1018.153846,0.043123,0.001000,0.001000,0.001000,0.001000,0.001000
1018.173077,0.043808,0.001000,0.001000,0.001000,0.001000,0.001000
1018.192308,0.044460,0.001000,0.001000,0.001000,0.001000,0.001000
1018.211538,0.045077,0.001000,0.001000,0.001000,0.001000,0.001000
1018.230769,0.045659,0.001000,0.001000,0.001000,0.001000,0.001000
1018.250000,0.046206,0.001000,0.001000,0.001000,0.001000,0.001000
1018.269231,0.046718,0.001000,0.001000,0.001000,0.001000,0.001000
1018.288462,0.047194,0.001000,0.001000,0.001000,0.001000,0.001000
1018.307692,0.047634,0.001000,0.001000,0.001000,0.001000,0.001000
1018.326923,0.048037,0.001000,0.001000,0.001000,0.001000,0.001000
1018.346154,0.048403,0.001000,0.001000,0.001000,0.001000,0.001000
1018.365385,0.048732,0.001000,0.001000,0.001000,0.001000,0.001000
1018.384615,0.049023,0.001000,0.001000,0.001000,0.001000,0.001000
1018.403846,0.049277,0.001000,0.001000,0.001000,0.001000,0.001000
1018.423077,0.049493,0.001000,0.001000,0.001000,0.001000,0.001000
1018.442308,0.049671,0.001000,0.001000,0.001000,0.001000,0.001000
1018.461538,0.049811,0.001000,0.001000,0.001000,0.001000,0.001000
1018.480769,0.049912,0.001000,0.001000,0.001000,0.001000,0.001000
1018.500000,0.049975,0.001000,0.001000,0.001000,0.001000,0.001000
1018.519231,0.050000,0.001000,0.001000,0.001000,0.001000,0.001000
1018.538462,0.049986,0.001000,0.001000,0.001000,0.001000,0.001000
1018.557692,0.049934,0.001000,0.001000,0.001000,0.001000,0.001000
1018.576923,0.049843,0.001000,0.001000,0.001000,0.001000,0.001000
1018.596154,0.049714,0.001000,0.001000,0.001000,0.001000,0.001000
1018.615385,0.049547,0.001000,0.001000,0.001000,0.001000,0.001000
1018.634615,0.049342,0.001000,0.001000,0.001000,0.001000,0.001000
1018.653846,0.049098,0.001000,0.001000,0.001000,0.001000,0.001000
1018.673077,0.048818,0.001000,0.001000,0.001000,0.001000,0.001000
1018.692308,0.048499,0.001000,0.001000,0.001000,0.001000,0.001000
1018.711538,0.048143,0.001000,0.001000,0.001000,0.001000,0.001000
1018.730769,0.047751,0.001000,0.001000,0.001000,0.001000,0.001000
1018.750000,0.047321,0.001000,0.001000,0.001000,0.001000,0.001000
1018.769231,0.046855,0.001000,0.001000,0.001000,0.001000,0.001000
1018.788462,0.046354,0.001000,0.001000,0.001000,0.001000,0.001000
1018.807692,0.045816,0.001000,0.001000,0.001000,0.001000,0.001000
1018.826923,0.045244,0.001000,0.001000,0.001000,0.001000,0.001000
1018.846154,0.044636,0.001000,0.001000,0.001000,0.001000,0.001000
1018.865385,0.043994,0.001000,0.001000,0.001000,0.001000,0.001000
1018.884615,0.043319,0.001000,0.001000,0.001000,0.001000,0.001000
1018.903846,0.042610,0.001000,0.001000,0.001000,0.001000,0.001000
1018.923077,0.041868,0.001000,0.001000,0.001000,0.001000,0.001000
1018.942308,0.041095,0.001000,0.001000,0.001000,0.001000,0.001000
1018.961538,0.040289,0.001000,0.001000,0.001000,0.001000,0.001000
1018.980769,0.039453,0.001000,0.001000,0.001000,0.001000,0.001000
1019.000000,0.038586,0.001000,0.001000,0.001000,0.001000,0.001000
1019.019231,0.037690,0.001000,0.001000,0.001000,0.001000,0.001000
1019.038462,0.036765,0.001000,0.001000,0.001000,0.001000,0.001000
1019.057692,0.035811,0.001000,0.001000,0.001000,0.001000,0.001000
1019.076923,0.034830,0.001000,0.001000,0.001000,0.001000,0.001000
1019.096154,0.033822,0.001000,0.001000,0.001000,0.001000,0.001000
1019.115385,0.032788,0.001000,0.001000,0.001000,0.001000,0.001000
1019.134615,0.031729,0.001000,0.001000,0.001000,0.001000,0.001000
1019.153846,0.030646,0.001000,0.001000,0.001000,0.001000,0.001000
1019.173077,0.029539,0.001000,0.001000,0.001000,0.001000,0.001000
1019.192308,0.028409,0.001000,0.001000,0.001000,0.001000,0.001000
1019.211538,0.027257,0.001000,0.001000,0.001000,0.001000,0.001000
1019.230769,0.026085,0.001000,0.001000,0.001000,0.001000,0.001000
1019.250000,0.024892,0.001000,0.001000,0.001000,0.001000,0.001000
1019.269231,0.023681,0.001000,0.001000,0.001000,0.001000,0.001000
1019.288462,0.022451,0.001000,0.001000,0.001000,0.001000,0.001000
1019.307692,0.021204,0.001000,0.001000,0.001000,0.001000,0.001000
1019.326923,0.019940,0.001000,0.001000,0.001000,0.001000,0.001000
1019.346154,0.018662,0.001000,0.001000,0.001000,0.001000,0.001000
1019.365385,0.017368,0.001000,0.001000,0.001000,0.001000,0.001000
1019.384615,0.016062,0.001000,0.001000,0.001000,0.001000,0.001000
1019.403846,0.014743,0.001000,0.001000,0.001000,0.001000,0.001000
1019.423077,0.013413,0.001000,0.001000,0.001000,0.001000,0.001000
1019.442308,0.012073,0.001000,0.001000,0.001000,0.001000,0.001000
1019.461538,0.010723,0.001000,0.001000,0.001000,0.001000,0.001000
1019.480769,0.009365,0.001000,0.001000,0.001000,0.001000,0.001000
1019.500000,0.008000,0.001000,0.001000,0.001000,0.001000,0.001000
1019.519231,0.006628,0.001000,0.001000,0.001000,0.001000,0.001000
1019.538462,0.005252,0.001000,0.001000,0.001000,0.001000,0.001000
1019.557692,0.003872,0.001000,0.001000,0.001000,0.001000,0.001000
1019.576923,0.002488,0.001000,0.001000,0.001000,0.001000,0.001000
1019.596154,0.001103,0.001000,0.001000,0.001000,0.001000,0.001000
1019.615385,-0.000283,0.001000,0.001000,0.001000,0.001000,0.001000
1019.634615,-0.001669,0.001000,0.001000,0.001000,0.001000,0.001000
1019.653846,-0.003054,0.001000,0.001000,0.001000,0.001000,0.001000
1019.673077,-0.004436,0.001000,0.001000,0.001000,0.001000,0.001000
1019.692308,-0.005815,0.001000,0.001000,0.001000,0.001000,0.001000
1019.711538,-0.007190,0.001000,0.001000,0.001000,0.001000,0.001000
1019.730769,-0.008559,0.001000,0.001000,0.001000,0.001000,0.001000
1019.750000,-0.009921,0.001000,0.001000,0.001000,0.001000,0.001000
1019.769231,-0.011276,0.001000,0.001000,0.001000,0.001000,0.001000
1019.788462,-0.012622,0.001000,0.001000,0.001000,0.001000,0.001000
1019.807692,-0.013958,0.001000,0.001000,0.001000,0.001000,0.001000
1019.826923,-0.015284,0.001000,0.001000,0.001000,0.001000,0.001000
1019.846154,-0.016598,0.001000,0.001000,0.001000,0.001000,0.001000
1019.865385,-0.017899,0.001000,0.001000,0.001000,0.001000,0.001000
1019.884615,-0.019186,0.001000,0.001000,0.001000,0.001000,0.001000
1019.903846,-0.020459,0.001000,0.001000,0.001000,0.001000,0.001000
1019.923077,-0.021716,0.001000,0.001000,0.001000,0.001000,0.001000
1019.942308,-0.022956,0.001000,0.001000,0.001000,0.001000,0.001000
1019.961538,-0.024178,0.001000,0.001000,0.001000,0.001000,0.001000
1019.980769,-0.025382,0.001000,0.001000,0.001000,0.001000,0.001000
1020.000000,-0.026567,0.001000,0.001000,0.001000,0.001000,0.001000
1020.019231,-0.027731,0.001000,0.001000,0.001000,0.001000,0.001000
1020.038462,-0.028874,0.001000,0.001000,0.001000,0.001000,0.001000
1020.057692,-0.029994,0.001000,0.001000,0.001000,0.001000,0.001000
1020.076923,-0.031092,0.001000,0.001000,0.001000,0.001000,0.001000
1020.096154,-0.032165,0.001000,0.001000,0.001000,0.001000,0.001000
1020.115385,-0.033214,0.001000,0.001000,0.001000,0.001000,0.001000
1020.134615,-0.034237,0.001000,0.001000,0.001000,0.001000,0.001000
1020.153846,-0.035234,0.001000,0.001000,0.001000,0.001000,0.001000
1020.173077,-0.036204,0.001000,0.001000,0.001000,0.001000,0.001000
1020.192308,-0.037146,0.001000,0.001000,0.001000,0.001000,0.001000
1020.211538,-0.038060,0.001000,0.001000,0.001000,0.001000,0.001000
1020.230769,-0.038944,0.001000,0.001000,0.001000,0.001000,0.001000
1020.250000,-0.039799,0.001000,0.001000,0.001000,0.001000,0.001000
1020.269231,-0.040622,0.001000,0.001000,0.001000,0.001000,0.001000
1020.288462,-0.041415,0.001000,0.001000,0.001000,0.001000,0.001000
1020.307692,-0.042176,0.001000,0.001000,0.001000,0.001000,0.001000
1020.326923,-0.042904,0.001000,0.001000,0.001000,0.001000,0.001000
1020.346154,-0.043599,0.001000,0.001000,0.001000,0.001000,0.001000
1020.365385,-0.044261,0.001000,0.001000,0.001000,0.001000,0.001000
1020.384615,-0.044889,0.001000,0.001000,0.001000,0.001000,0.001000
1020.403846,-0.045482,0.001000,0.001000,0.001000,0.001000,0.001000
1020.423077,-0.046040,0.001000,0.001000,0.001000,0.001000,0.001000
1020.442308,-0.046563,0.001000,0.001000,0.001000,0.001000,0.001000
1020.461538,-0.047050,0.001000,0.001000,0.001000,0.001000,0.001000
1020.480769,-0.047501,0.001000,0.001000,0.001000,0.001000,0.001000
1020.500000,-0.047916,0.001000,0.001000,0.001000,0.001000,0.001000
1020.519231,-0.048293,0.001000,0.001000,0.001000,0.001000,0.001000
1020.538462,-0.048634,0.001000,0.001000,0.001000,0.001000,0.001000
1020.557692,-0.048937,0.001000,0.001000,0.001000,0.001000,0.001000
1020.576923,-0.049202,0.001000,0.001000,0.001000,0.001000,0.001000
1020.596154,-0.049430,0.001000,0.001000,0.001000,0.001000,0.001000
1020.615385,-0.049620,0.001000,0.001000,0.001000,0.001000,0.001000
1020.634615,-0.049771,0.001000,0.001000,0.001000,0.001000,0.001000
1020.653846,-0.049885,0.001000,0.001000,0.001000,0.001000,0.001000
1020.673077,-0.049960,0.001000,0.001000,0.001000,0.001000,0.001000
1020.692308,-0.049996,0.001000,0.001000,0.001000,0.001000,0.001000
1020.711538,-0.049994,0.001000,0.001000,0.001000,0.001000,0.001000
1020.730769,-0.049954,0.001000,0.001000,0.001000,0.001000,0.001000
1020.750000,-0.049875,0.001000,0.001000,0.001000,0.001000,0.001000
1020.769231,-0.049758,0.001000,0.001000,0.001000,0.001000,0.001000
1020.788462,-0.049603,0.001000,0.001000,0.001000,0.001000,0.001000
1020.807692,-0.049409,0.001000,0.001000,0.001000,0.001000,0.001000
1020.826923,-0.049178,0.001000,0.001000,0.001000,0.001000,0.001000
1020.846154,-0.048909,0.001000,0.001000,0.001000,0.001000,0.001000
1020.865385,-0.048602,0.001000,0.001000,0.001000,0.001000,0.001000
1020.884615,-0.048258,0.001000,0.001000,0.001000,0.001000,0.001000
1020.903846,-0.047877,0.001000,0.001000,0.001000,0.001000,0.001000
1020.923077,-0.047459,0.001000,0.001000,0.001000,0.001000,0.001000
1020.942308,-0.047004,0.001000,0.001000,0.001000,0.001000,0.001000
1020.961538,-0.046513,0.001000,0.001000,0.001000,0.001000,0.001000
1020.980769,-0.045987,0.001000,0.001000,0.001000,0.001000,0.001000
1021.000000,-0.045425,0.001000,0.001000,0.001000,0.001000,0.001000
1021.019231,-0.044829,0.001000,0.001000,0.001000,0.001000,0.001000
1021.038462,-0.044197,0.001000,0.001000,0.001000,0.001000,0.001000
1021.057692,-0.043532,0.001000,0.001000,0.001000,0.001000,0.001000
1021.076923,-0.042834,0.001000,0.001000,0.001000,0.001000,0.001000
1021.096154,-0.042102,0.001000,0.001000,0.001000,0.001000,0.001000
1021.115385,-0.041338,0.001000,0.001000,0.001000,0.001000,0.001000
1021.134615,-0.040543,0.001000,0.001000,0.001000,0.001000,0.001000
1021.153846,-0.039716,0.001000,0.001000,0.001000,0.001000,0.001000
1021.173077,-0.038859,0.001000,0.001000,0.001000,0.001000,0.001000
1021.192308,-0.037971,0.001000,0.001000,0.001000,0.001000,0.001000
1021.211538,-0.037055,0.001000,0.001000,0.001000,0.001000,0.001000
1021.230769,-0.036110,0.001000,0.001000,0.001000,0.001000,0.001000
1021.250000,-0.035138,0.001000,0.001000,0.001000,0.001000,0.001000
1021.269231,-0.034138,0.001000,0.001000,0.001000,0.001000,0.001000
1021.288462,-0.033112,0.001000,0.001000,0.001000,0.001000,0.001000
1021.307692,-0.032061,0.001000,0.001000,0.001000,0.001000,0.001000
1021.326923,-0.030985,0.001000,0.001000,0.001000,0.001000,0.001000
1021.346154,-0.029885,0.001000,0.001000,0.001000,0.001000,0.001000
1021.365385,-0.028762,0.001000,0.001000,0.001000,0.001000,0.001000
1021.384615,-0.027617,0.001000,0.001000,0.001000,0.001000,0.001000
1021.403846,-0.026451,0.001000,0.001000,0.001000,0.001000,0.001000
1021.423077,-0.025265,0.001000,0.001000,0.001000,0.001000,0.001000
1021.442308,-0.024059,0.001000,0.001000,0.001000,0.001000,0.001000
1021.461538,-0.022835,0.001000,0.001000,0.001000,0.001000,0.001000
1021.480769,-0.021593,0.001000,0.001000,0.001000,0.001000,0.001000
1021.500000,-0.020334,0.001000,0.001000,0.001000,0.001000,0.001000
1021.519231,-0.019060,0.001000,0.001000,0.001000,0.001000,0.001000
1021.538462,-0.017772,0.001000,0.001000,0.001000,0.001000,0.001000
1021.557692,-0.016469,0.001000,0.001000,0.001000,0.001000,0.001000
1021.576923,-0.015154,0.001000,0.001000,0.001000,0.001000,0.001000
1021.596154,-0.013827,0.001000,0.001000,0.001000,0.001000,0.001000
1021.615385,-0.012490,0.001000,0.001000,0.001000,0.001000,0.001000
1021.634615,-0.011143,0.001000,0.001000,0.001000,0.001000,0.001000
1021.653846,-0.009788,0.001000,0.001000,0.001000,0.001000,0.001000
1021.673077,-0.008424,0.001000,0.001000,0.001000,0.001000,0.001000
1021.692308,-0.007055,0.001000,0.001000,0.001000,0.001000,0.001000
1021.711538,-0.005680,0.001000,0.001000,0.001000,0.001000,0.001000
1021.730769,-0.004301,0.001000,0.001000,0.001000,0.001000,0.001000
1021.750000,-0.002918,0.001000,0.001000,0.001000,0.001000,0.001000
1021.769231,-0.001533,0.001000,0.001000,0.001000,0.001000,0.001000
1021.788462,-0.000147,0.001000,0.001000,0.001000,0.001000,0.001000
1021.807692,0.001239,0.001000,0.001000,0.001000,0.001000,0.001000
1021.826923,0.002624,0.001000,0.001000,0.001000,0.001000,0.001000
1021.846154,0.004007,0.001000,0.001000,0.001000,0.001000,0.001000
1021.865385,0.005387,0.001000,0.001000,0.001000,0.001000,0.001000
1021.884615,0.006763,0.001000,0.001000,0.001000,0.001000,0.001000
1021.903846,0.008134,0.001000,0.001000,0.001000,0.001000,0.001000
1021.923077,0.009499,0.001000,0.001000,0.001000,0.001000,0.001000
1021.942308,0.010856,0.001000,0.001000,0.001000,0.001000,0.001000
1021.961538,0.012205,0.001000,0.001000,0.001000,0.001000,0.001000
1021.980769,0.013544,0.001000,0.001000,0.001000,0.001000,0.001000
1022.000000,0.014873,0.001000,0.001000,0.001000,0.001000,0.001000
1022.019231,0.016191,0.001000,0.001000,0.001000,0.001000,0.001000
1022.038462,0.017496,0.001000,0.001000,0.001000,0.001000,0.001000
1022.057692,0.018788,0.001000,0.001000,0.001000,0.001000,0.001000
1022.076923,0.020065,0.001000,0.001000,0.001000,0.001000,0.001000
1022.096154,0.021327,0.001000,0.001000,0.001000,0.001000,0.001000
1022.115385,0.022572,0.001000,0.001000,0.001000,0.001000,0.001000
1022.134615,0.023801,0.001000,0.001000,0.001000,0.001000,0.001000
1022.153846,0.025010,0.001000,0.001000,0.001000,0.001000,0.001000
1022.173077,0.026201,0.001000,0.001000,0.001000,0.001000,0.001000
1022.192308,0.027372,0.001000,0.001000,0.001000,0.001000,0.001000
1022.211538,0.028521,0.001000,0.001000,0.001000,0.001000,0.001000
1022.230769,0.029648,0.001000,0.001000,0.001000,0.001000,0.001000
1022.250000,0.030753,0.001000,0.001000,0.001000,0.001000,0.001000
1022.269231,0.031834,0.001000,0.001000,0.001000,0.001000,0.001000
1022.288462,0.032891,0.001000,0.001000,0.001000,0.001000,0.001000
1022.307692,0.033922,0.001000,0.001000,0.001000,0.001000,0.001000
1022.326923,0.034928,0.001000,0.001000,0.001000,0.001000,0.001000
1022.346154,0.035906,0.001000,0.001000,0.001000,0.001000,0.001000
1022.365385,0.036857,0.001000,0.001000,0.001000,0.001000,0.001000
1022.384615,0.037779,0.001000,0.001000,0.001000,0.001000,0.001000
1022.403846,0.038673,0.001000,0.001000,0.001000,0.001000,0.001000
1022.423077,0.039536,0.001000,0.001000,0.001000,0.001000,0.001000
1022.442308,0.040370,0.001000,0.001000,0.001000,0.001000,0.001000
1022.461538,0.041172,0.001000,0.001000,0.001000,0.001000,0.001000
1022.480769,0.041943,0.001000,0.001000,0.001000,0.001000,0.001000
1022.500000,0.042681,0.001000,0.001000,0.001000,0.001000,0.001000
1022.519231,0.043387,0.001000,0.001000,0.001000,0.001000,0.001000
1022.538462,0.044059,0.001000,0.001000,0.001000,0.001000,0.001000
1022.557692,0.044697,0.001000,0.001000,0.001000,0.001000,0.001000
1022.576923,0.045301,0.001000,0.001000,0.001000,0.001000,0.001000
1022.596154,0.045871,0.001000,0.001000,0.001000,0.001000,0.001000
1022.615385,0.046405,0.001000,0.001000,0.001000,0.001000,0.001000
1022.634615,0.046903,0.001000,0.001000,0.001000,0.001000,0.001000
1022.653846,0.047365,0.001000,0.001000,0.001000,0.001000,0.001000
1022.673077,0.047791,0.001000,0.001000,0.001000,0.001000,0.001000
1022.692308,0.048180,0.001000,0.001000,0.001000,0.001000,0.001000
1022.711538,0.048532,0.001000,0.001000,0.001000,0.001000,0.001000
1022.730769,0.048847,0.001000,0.001000,0.001000,0.001000,0.001000
1022.750000,0.049124,0.001000,0.001000,0.001000,0.001000,0.001000
1022.769231,0.049363,0.001000,0.001000,0.001000,0.001000,0.001000
1022.788462,0.049565,0.001000,0.001000,0.001000,0.001000,0.001000
1022.807692,0.049728,0.001000,0.001000,0.001000,0.001000,0.001000
1022.826923,0.049854,0.001000,0.001000,0.001000,0.001000,0.001000
1022.846154,0.049940,0.001000,0.001000,0.001000,0.001000,0.001000
1022.865385,0.049989,0.001000,0.001000,0.001000,0.001000,0.001000
1022.884615,0.049999,0.001000,0.001000,0.001000,0.001000,0.001000
1022.903846,0.049971,0.001000,0.001000,0.001000,0.001000,0.001000
1022.923077,0.049904,0.001000,0.001000,0.001000,0.001000,0.001000
1022.942308,0.049799,0.001000,0.001000,0.001000,0.001000,0.001000
1022.961538,0.049655,0.001000,0.001000,0.001000,0.001000,0.001000
1022.980769,0.049474,0.001000,0.001000,0.001000,0.001000,0.001000
1023.000000,0.049254,0.001000,0.001000,0.001000,0.001000,0.001000
1023.019231,0.048996,0.001000,0.001000,0.001000,0.001000,0.001000
1023.038462,0.048701,0.001000,0.001000,0.001000,0.001000,0.001000
1023.057692,0.048369,0.001000,0.001000,0.001000,0.001000,0.001000
1023.076923,0.047999,0.001000,0.001000,0.001000,0.001000,0.001000
1023.096154,0.047592,0.001000,0.001000,0.001000,0.001000,0.001000
1023.115385,0.047149,0.001000,0.001000,0.001000,0.001000,0.001000
1023.134615,0.046670,0.001000,0.001000,0.001000,0.001000,0.001000
1023.153846,0.046154,0.001000,0.001000,0.001000,0.001000,0.001000
1023.173077,0.045603,0.001000,0.001000,0.001000,0.001000,0.001000
1023.192308,0.045018,0.001000,0.001000,0.001000,0.001000,0.001000
1023.211538,0.044397,0.001000,0.001000,0.001000,0.001000,0.001000
1023.230769,0.043742,0.001000,0.001000,0.001000,0.001000,0.001000
1023.250000,0.043054,0.001000,0.001000,0.001000,0.001000,0.001000
1023.269231,0.042333,0.001000,0.001000,0.001000,0.001000,0.001000
1023.288462,0.041579,0.001000,0.001000,0.001000,0.001000,0.001000
1023.307692,0.040793,0.001000,0.001000,0.001000,0.001000,0.001000
1023.326923,0.039976,0.001000,0.001000,0.001000,0.001000,0.001000
1023.346154,0.039128,0.001000,0.001000,0.001000,0.001000,0.001000
1023.365385,0.038250,0.001000,0.001000,0.001000,0.001000,0.001000
1023.384615,0.037343,0.001000,0.001000,0.001000,0.001000,0.001000
1023.403846,0.036407,0.001000,0.001000,0.001000,0.001000,0.001000
1023.423077,0.035443,0.001000,0.001000,0.001000,0.001000,0.001000
1023.442308,0.034451,0.001000,0.001000,0.001000,0.001000,0.001000
1023.461538,0.033434,0.001000,0.001000,0.001000,0.001000,0.001000
1023.480769,0.032390,0.001000,0.001000,0.001000,0.001000,0.001000
1023.500000,0.031322,0.001000,0.001000,0.001000,0.001000,0.001000
1023.519231,0.030229,0.001000,0.001000,0.001000,0.001000,0.001000
1023.538462,0.029113,0.001000,0.001000,0.001000,0.001000,0.001000
1023.557692,0.027975,0.001000,0.001000,0.001000,0.001000,0.001000
1023.576923,0.026816,0.001000,0.001000,0.001000,0.001000,0.001000
1023.596154,0.025636,0.001000,0.001000,0.001000,0.001000,0.001000
1023.615385,0.024436,0.001000,0.001000,0.001000,0.001000,0.001000
1023.634615,0.023217,0.001000,0.001000,0.001000,0.001000,0.001000
1023.653846,0.021980,0.001000,0.001000,0.001000,0.001000,0.001000
1023.673077,0.020727,0.001000,0.001000,0.001000,0.001000,0.001000
1023.692308,0.019458,0.001000,0.001000,0.001000,0.001000,0.001000
1023.711538,0.018173,0.001000,0.001000,0.001000,0.001000,0.001000
1023.730769,0.016875,0.001000,0.001000,0.001000,0.001000,0.001000
1023.750000,0.015564,0.001000,0.001000,0.001000,0.001000,0.001000
1023.769231,0.014241,0.001000,0.001000,0.001000,0.001000,0.001000
1023.788462,0.012906,0.001000,0.001000,0.001000,0.001000,0.001000
1023.807692,0.011562,0.001000,0.001000,0.001000,0.001000,0.001000
1023.826923,0.010209,0.001000,0.001000,0.001000,0.001000,0.001000
1023.846154,0.008849,0.001000,0.001000,0.001000,0.001000,0.001000
1023.865385,0.007481,0.001000,0.001000,0.001000,0.001000,0.001000
1023.884615,0.006108,0.001000,0.001000,0.001000,0.001000,0.001000
1023.903846,0.004730,0.001000,0.001000,0.001000,0.001000,0.001000
1023.923077,0.003348,0.001000,0.001000,0.001000,0.001000,0.001000
1023.942308,0.001964,0.001000,0.001000,0.001000,0.001000,0.001000
1023.961538,0.000578,0.001000,0.001000,0.001000,0.001000,0.001000
1023.980769,-0.000808,0.001000,0.001000,0.001000,0.001000,0.001000
1024.000000,-0.002194,0.001000,0.001000,0.001000,0.001000,0.001000
1024.019231,-0.003578,0.001000,0.001000,0.001000,0.001000,0.001000
1024.038462,-0.004959,0.001000,0.001000,0.001000,0.001000,0.001000
1024.057692,-0.006336,0.001000,0.001000,0.001000,0.001000,0.001000
1024.076923,-0.007709,0.001000,0.001000,0.001000,0.001000,0.001000
1024.096154,-0.009076,0.001000,0.001000,0.001000,0.001000,0.001000
1024.115385,-0.010435,0.001000,0.001000,0.001000,0.001000,0.001000
1024.134615,-0.011787,0.001000,0.001000,0.001000,0.001000,0.001000
1024.153846,-0.013129,0.001000,0.001000,0.001000,0.001000,0.001000
1024.173077,-0.014462,0.001000,0.001000,0.001000,0.001000,0.001000
1024.192308,-0.015783,0.001000,0.001000,0.001000,0.001000,0.001000
1024.211538,-0.017092,0.001000,0.001000,0.001000,0.001000,0.001000
1024.230769,-0.018388,0.001000,0.001000,0.001000,0.001000,0.001000
1024.250000,-0.019670,0.001000,0.001000,0.001000,0.001000,0.001000
1024.269231,-0.020937,0.001000,0.001000,0.001000,0.001000,0.001000
1024.288462,-0.022187,0.001000,0.001000,0.001000,0.001000,0.001000
1024.307692,-0.023421,0.001000,0.001000,0.001000,0.001000,0.001000
1024.326923,-0.024637,0.001000,0.001000,0.001000,0.001000,0.001000
1024.346154,-0.025833,0.001000,0.001000,0.001000,0.001000,0.001000
1024.365385,-0.027010,0.001000,0.001000,0.001000,0.001000,0.001000
1024.384615,-0.028166,0.001000,0.001000,0.001000,0.001000,0.001000
1024.403846,-0.029301,0.001000,0.001000,0.001000,0.001000,0.001000
1024.423077,-0.030413,0.001000,0.001000,0.001000,0.001000,0.001000
1024.442308,-0.031501,0.001000,0.001000,0.001000,0.001000,0.001000
1024.461538,-0.032565,0.001000,0.001000,0.001000,0.001000,0.001000
1024.480769,-0.033605,0.001000,0.001000,0.001000,0.001000,0.001000
1024.500000,-0.034618,0.001000,0.001000,0.001000,0.001000,0.001000
1024.519231,-0.035605,0.001000,0.001000,0.001000,0.001000,0.001000
1024.538462,-0.036564,0.001000,0.001000,0.001000,0.001000,0.001000
1024.557692,-0.037496,0.001000,0.001000,0.001000,0.001000,0.001000
1024.576923,-0.038398,0.001000,0.001000,0.001000,0.001000,0.001000
1024.596154,-0.039271,0.001000,0.001000,0.001000,0.001000,0.001000
1024.615385,-0.040114,0.001000,0.001000,0.001000,0.001000,0.001000
1024.634615,-0.040926,0.001000,0.001000,0.001000,0.001000,0.001000
1024.653846,-0.041707,0.001000,0.001000,0.001000,0.001000,0.001000
1024.673077,-0.042455,0.001000,0.001000,0.001000,0.001000,0.001000
1024.692308,-0.043171,0.001000,0.001000,0.001000,0.001000,0.001000
1024.711538,-0.043854,0.001000,0.001000,0.001000,0.001000,0.001000
1024.730769,-0.044503,0.001000,0.001000,0.001000,0.001000,0.001000
1024.750000,-0.045117,0.001000,0.001000,0.001000,0.001000,0.001000
1024.769231,-0.045698,0.001000,0.001000,0.001000,0.001000,0.001000
1024.788462,-0.046242,0.001000,0.001000,0.001000,0.001000,0.001000
1024.807692,-0.046752,0.001000,0.001000,0.001000,0.001000,0.001000
1024.826923,-0.047225,0.001000,0.001000,0.001000,0.001000,0.001000
1024.846154,-0.047663,0.001000,0.001000,0.001000,0.001000,0.001000
1024.865385,-0.048063,0.001000,0.001000,0.001000,0.001000,0.001000
1024.884615,-0.048427,0.001000,0.001000,0.001000,0.001000,0.001000
1024.903846,-0.048753,0.001000,0.001000,0.001000,0.001000,0.001000
1024.923077,-0.049042,0.001000,0.001000,0.001000,0.001000,0.001000
1024.942308,-0.049293,0.001000,0.001000,0.001000,0.001000,0.001000
1024.961538,-0.049506,0.001000,0.001000,0.001000,0.001000,0.001000
1024.980769,-0.049682,0.001000,0.001000,0.001000,0.001000,0.001000
1025.000000,-0.049819,0.001000,0.001000,0.001000,0.001000,0.001000
1025.019231,-0.049918,0.001000,0.001000,0.001000,0.001000,0.001000
1025.038462,-0.049978,0.001000,0.001000,0.001000,0.001000,0.001000
1025.057692,-0.050000,0.001000,0.001000,0.001000,0.001000,0.001000
1025.076923,-0.049983,0.001000,0.001000,0.001000,0.001000,0.001000
1025.096154,-0.049929,0.001000,0.001000,0.001000,0.001000,0.001000
1025.115385,-0.049835,0.001000,0.001000,0.001000,0.001000,0.001000
1025.134615,-0.049704,0.001000,0.001000,0.001000,0.001000,0.001000
1025.153846,-0.049534,0.001000,0.001000,0.001000,0.001000,0.001000
1025.173077,-0.049326,0.001000,0.001000,0.001000,0.001000,0.001000
1025.192308,-0.049080,0.001000,0.001000,0.001000,0.001000,0.001000
1025.211538,-0.048797,0.001000,0.001000,0.001000,0.001000,0.001000
1025.230769,-0.048476,0.001000,0.001000,0.001000,0.001000,0.001000
1025.250000,-0.048118,0.001000,0.001000,0.001000,0.001000,0.001000
1025.269231,-0.047723,0.001000,0.001000,0.001000,0.001000,0.001000
1025.288462,-0.047291,0.001000,0.001000,0.001000,0.001000,0.001000
1025.307692,-0.046822,0.001000,0.001000,0.001000,0.001000,0.001000
1025.326923,-0.046318,0.001000,0.001000,0.001000,0.001000,0.001000
1025.346154,-0.045778,0.001000,0.001000,0.001000,0.001000,0.001000
1025.365385,-0.045203,0.001000,0.001000,0.001000,0.001000,0.001000
1025.384615,-0.044593,0.001000,0.001000,0.001000,0.001000,0.001000
1025.403846,-0.043949,0.001000,0.001000,0.001000,0.001000,0.001000
1025.423077,-0.043272,0.001000,0.001000,0.001000,0.001000,0.001000
1025.442308,-0.042560,0.001000,0.001000,0.001000,0.001000,0.001000
1025.461538,-0.041817,0.001000,0.001000,0.001000,0.001000,0.001000
1025.480769,-0.041041,0.001000,0.001000,0.001000,0.001000,0.001000
1025.500000,-0.040233,0.001000,0.001000,0.001000,0.001000,0.001000
1025.519231,-0.039395,0.001000,0.001000,0.001000,0.001000,0.001000
1025.538462,-0.038526,0.001000,0.001000,0.001000,0.001000,0.001000
1025.557692,-0.037628,0.001000,0.001000,0.001000,0.001000,0.001000
1025.576923,-0.036700,0.001000,0.001000,0.001000,0.001000,0.001000
1025.596154,-0.035745,0.001000,0.001000,0.001000,0.001000,0.001000
1025.615385,-0.034762,0.001000,0.001000,0.001000,0.001000,0.001000
1025.634615,-0.033752,0.001000,0.001000,0.001000,0.001000,0.001000
1025.653846,-0.032717,0.001000,0.001000,0.001000,0.001000,0.001000
1025.673077,-0.031656,0.001000,0.001000,0.001000,0.001000,0.001000
1025.692308,-0.030571,0.001000,0.001000,0.001000,0.001000,0.001000
1025.711538,-0.029462,0.001000,0.001000,0.001000,0.001000,0.001000
1025.730769,-0.028331,0.001000,0.001000,0.001000,0.001000,0.001000
1025.750000,-0.027178,0.001000,0.001000,0.001000,0.001000,0.001000
1025.769231,-0.026004,0.001000,0.001000,0.001000,0.001000,0.001000
1025.788462,-0.024810,0.001000,0.001000,0.001000,0.001000,0.001000
1025.807692,-0.023598,0.001000,0.001000,0.001000,0.001000,0.001000
1025.826923,-0.022366,0.001000,0.001000,0.001000,0.001000,0.001000
1025.846154,-0.021118,0.001000,0.001000,0.001000,0.001000,0.001000
1025.865385,-0.019854,0.001000,0.001000,0.001000,0.001000,0.001000
1025.884615,-0.018574,0.001000,0.001000,0.001000,0.001000,0.001000
1025.903846,-0.017280,0.001000,0.001000,0.001000,0.001000,0.001000
1025.923077,-0.015972,0.001000,0.001000,0.001000,0.001000,0.001000
1025.942308,-0.014653,0.001000,0.001000,0.001000,0.001000,0.001000
1025.961538,-0.013322,0.001000,0.001000,0.001000,0.001000,0.001000
1025.980769,-0.011981,0.001000,0.001000,0.001000,0.001000,0.001000
1026.000000,-0.010631,0.001000,0.001000,0.001000,0.001000,0.001000
1026.019231,-0.009272,0.001000,0.001000,0.001000,0.001000,0.001000
1026.038462,-0.007906,0.001000,0.001000,0.001000,0.001000,0.001000
1026.057692,-0.006535,0.001000,0.001000,0.001000,0.001000,0.001000
1026.076923,-0.005158,0.001000,0.001000,0.001000,0.001000,0.001000
1026.096154,-0.003777,0.001000,0.001000,0.001000,0.001000,0.001000
1026.115385,-0.002394,0.001000,0.001000,0.001000,0.001000,0.001000
1026.134615,-0.001008,0.001000,0.001000,0.001000,0.001000,0.001000
1026.153846,0.000378,0.001000,0.001000,0.001000,0.001000,0.001000
1026.173077,0.001764,0.001000,0.001000,0.001000,0.001000,0.001000
1026.192308,0.003148,0.001000,0.001000,0.001000,0.001000,0.001000
1026.211538,0.004530,0.001000,0.001000,0.001000,0.001000,0.001000
1026.230769,0.005909,0.001000,0.001000,0.001000,0.001000,0.001000
1026.250000,0.007283,0.001000,0.001000,0.001000,0.001000,0.001000
1026.269231,0.008652,0.001000,0.001000,0.001000,0.001000,0.001000
1026.288462,0.010014,0.001000,0.001000,0.001000,0.001000,0.001000
1026.307692,0.011368,0.001000,0.001000,0.001000,0.001000,0.001000
1026.326923,0.012713,0.001000,0.001000,0.001000,0.001000,0.001000
1026.346154,0.014049,0.001000,0.001000,0.001000,0.001000,0.001000
1026.365385,0.015374,0.001000,0.001000,0.001000,0.001000,0.001000
1026.384615,0.016687,0.001000,0.001000,0.001000,0.001000,0.001000
1026.403846,0.017987,0.001000,0.001000,0.001000,0.001000,0.001000
1026.423077,0.019273,0.001000,0.001000,0.001000,0.001000,0.001000
1026.442308,0.020545,0.001000,0.001000,0.001000,0.001000,0.001000
1026.461538,0.021801,0.001000,0.001000,0.001000,0.001000,0.001000
1026.480769,0.023040,0.001000,0.001000,0.001000,0.001000,0.001000
1026.500000,0.024261,0.001000,0.001000,0.001000,0.001000,0.001000
1026.519231,0.025464,0.001000,0.001000,0.001000,0.001000,0.001000
1026.538462,0.026647,0.001000,0.001000,0.001000,0.001000,0.001000
1026.557692,0.027809,0.001000,0.001000,0.001000,0.001000,0.001000
1026.576923,0.028951,0.001000,0.001000,0.001000,0.001000,0.001000
1026.596154,0.030070,0.001000,0.001000,0.001000,0.001000,0.001000
1026.615385,0.031166,0.001000,0.001000,0.001000,0.001000,0.001000
1026.634615,0.032237,0.001000,0.001000,0.001000,0.001000,0.001000
1026.653846,0.033285,0.001000,0.001000,0.001000,0.001000,0.001000
1026.673077,0.034306,0.001000,0.001000,0.001000,0.001000,0.001000
1026.692308,0.035301,0.001000,0.001000,0.001000,0.001000,0.001000
1026.711538,0.036269,0.001000,0.001000,0.001000,0.001000,0.001000
1026.730769,0.037210,0.001000,0.001000,0.001000,0.001000,0.001000
1026.750000,0.038121,0.001000,0.001000,0.001000,0.001000,0.001000
1026.769231,0.039003,0.001000,0.001000,0.001000,0.001000,0.001000
1026.788462,0.039856,0.001000,0.001000,0.001000,0.001000,0.001000
1026.807692,0.040677,0.001000,0.001000,0.001000,0.001000,0.001000
1026.826923,0.041468,0.001000,0.001000,0.001000,0.001000,0.001000
1026.846154,0.042226,0.001000,0.001000,0.001000,0.001000,0.001000
1026.865385,0.042952,0.001000,0.001000,0.001000,0.001000,0.001000
1026.884615,0.043645,0.001000,0.001000,0.001000,0.001000,0.001000
1026.903846,0.044305,0.001000,0.001000,0.001000,0.001000,0.001000
1026.923077,0.044930,0.001000,0.001000,0.001000,0.001000,0.001000
1026.942308,0.045521,0.001000,0.001000,0.001000,0.001000,0.001000
1026.961538,0.046077,0.001000,0.001000,0.001000,0.001000,0.001000
1026.980769,0.046597,0.001000,0.001000,0.001000,0.001000,0.001000
1027.000000,0.047082,0.001000,0.001000,0.001000,0.001000,0.001000
1027.019231,0.047531,0.001000,0.001000,0.001000,0.001000,0.001000
1027.038462,0.047943,0.001000,0.001000,0.001000,0.001000,0.001000
1027.057692,0.048318,0.001000,0.001000,0.001000,0.001000,0.001000
1027.076923,0.048656,0.001000,0.001000,0.001000,0.001000,0.001000
1027.096154,0.048956,0.001000,0.001000,0.001000,0.001000,0.001000
1027.115385,0.049219,0.001000,0.001000,0.001000,0.001000,0.001000
1027.134615,0.049444,0.001000,0.001000,0.001000,0.001000,0.001000
1027.153846,0.049631,0.001000,0.001000,0.001000,0.001000,0.001000
1027.173077,0.049780,0.001000,0.001000,0.001000,0.001000,0.001000
1027.192308,0.049891,0.001000,0.001000,0.001000,0.001000,0.001000
1027.211538,0.049963,0.001000,0.001000,0.001000,0.001000,0.001000
1027.230769,0.049997,0.001000,0.001000,0.001000,0.001000,0.001000
1027.250000,0.049993,0.001000,0.001000,0.001000,0.001000,0.001000
1027.269231,0.049950,0.001000,0.001000,0.001000,0.001000,0.001000
1027.288462,0.049868,0.001000,0.001000,0.001000,0.001000,0.001000
1027.307692,0.049749,0.001000,0.001000,0.001000,0.001000,0.001000
1027.326923,0.049591,0.001000,0.001000,0.001000,0.001000,0.001000
1027.346154,0.049395,0.001000,0.001000,0.001000,0.001000,0.001000
1027.365385,0.049161,0.001000,0.001000,0.001000,0.001000,0.001000
1027.384615,0.048889,0.001000,0.001000,0.001000,0.001000,0.001000
1027.403846,0.048580,0.001000,0.001000,0.001000,0.001000,0.001000
1027.423077,0.048233,0.001000,0.001000,0.001000,0.001000,0.001000
1027.442308,0.047849,0.001000,0.001000,0.001000,0.001000,0.001000
1027.461538,0.047429,0.001000,0.001000,0.001000,0.001000,0.001000
1027.480769,0.046972,0.001000,0.001000,0.001000,0.001000,0.001000
1027.500000,0.046479,0.001000,0.001000,0.001000,0.001000,0.001000
1027.519231,0.045950,0.001000,0.001000,0.001000,0.001000,0.001000
1027.538462,0.045386,0.001000,0.001000,0.001000,0.001000,0.001000
1027.557692,0.044787,0.001000,0.001000,0.001000,0.001000,0.001000
1027.576923,0.044153,0.001000,0.001000,0.001000,0.001000,0.001000
1027.596154,0.043486,0.001000,0.001000,0.001000,0.001000,0.001000
1027.615385,0.042785,0.001000,0.001000,0.001000,0.001000,0.001000
1027.634615,0.042051,0.001000,0.001000,0.001000,0.001000,0.001000
1027.653846,0.041285,0.001000,0.001000,0.001000,0.001000,0.001000
1027.673077,0.040487,0.001000,0.001000,0.001000,0.001000,0.001000
1027.692308,0.039658,0.001000,0.001000,0.001000,0.001000,0.001000
1027.711538,0.038799,0.001000,0.001000,0.001000,0.001000,0.001000
1027.730769,0.037910,0.001000,0.001000,0.001000,0.001000,0.001000
1027.750000,0.036992,0.001000,0.001000,0.001000,0.001000,0.001000
1027.769231,0.036045,0.001000,0.001000,0.001000,0.001000,0.001000
1027.788462,0.035070,0.001000,0.001000,0.001000,0.001000,0.001000
1027.807692,0.034069,0.001000,0.001000,0.001000,0.001000,0.001000
1027.826923,0.033041,0.001000,0.001000,0.001000,0.001000,0.001000
1027.846154,0.031988,0.001000,0.001000,0.001000,0.001000,0.001000
1027.865385,0.030911,0.001000,0.001000,0.001000,0.001000,0.001000
1027.884615,0.029809,0.001000,0.001000,0.001000,0.001000,0.001000
1027.903846,0.028685,0.001000,0.001000,0.001000,0.001000,0.001000
1027.923077,0.027539,0.001000,0.001000,0.001000,0.001000,0.001000
1027.942308,0.026371,0.001000,0.001000,0.001000,0.001000,0.001000
1027.961538,0.025183,0.001000,0.001000,0.001000,0.001000,0.001000
1027.980769,0.023976,0.001000,0.001000,0.001000,0.001000,0.001000
1028.000000,0.022751,0.001000,0.001000,0.001000,0.001000,0.001000
1028.019231,0.021508,0.001000,0.001000,0.001000,0.001000,0.001000
1028.038462,0.020248,0.001000,0.001000,0.001000,0.001000,0.001000
1028.057692,0.018973,0.001000,0.001000,0.001000,0.001000,0.001000
1028.076923,0.017683,0.001000,0.001000,0.001000,0.001000,0.001000
1028.096154,0.016380,0.001000,0.001000,0.001000,0.001000,0.001000
1028.115385,0.015064,0.001000,0.001000,0.001000,0.001000,0.001000
1028.134615,0.013737,0.001000,0.001000,0.001000,0.001000,0.001000
1028.153846,0.012399,0.001000,0.001000,0.001000,0.001000,0.001000
1028.173077,0.011051,0.001000,0.001000,0.001000,0.001000,0.001000
1028.192308,0.009695,0.001000,0.001000,0.001000,0.001000,0.001000
1028.211538,0.008331,0.001000,0.001000,0.001000,0.001000,0.001000
1028.230769,0.006961,0.001000,0.001000,0.001000,0.001000,0.001000
1028.250000,0.005586,0.001000,0.001000,0.001000,0.001000,0.001000
1028.269231,0.004207,0.001000,0.001000,0.001000,0.001000,0.001000
1028.288462,0.002824,0.001000,0.001000,0.001000,0.001000,0.001000
1028.307692,0.001439,0.001000,0.001000,0.001000,0.001000,0.001000
1028.326923,0.000053,0.001000,0.001000,0.001000,0.001000,0.001000
1028.346154,-0.001333,0.001000,0.001000,0.001000,0.001000,0.001000
1028.365385,-0.002718,0.001000,0.001000,0.001000,0.001000,0.001000
1028.384615,-0.004101,0.001000,0.001000,0.001000,0.001000,0.001000
1028.403846,-0.005481,0.001000,0.001000,0.001000,0.001000,0.001000
1028.423077,-0.006857,0.001000,0.001000,0.001000,0.001000,0.001000
1028.442308,-0.008227,0.001000,0.001000,0.001000,0.001000,0.001000
1028.461538,-0.009591,0.001000,0.001000,0.001000,0.001000,0.001000
1028.480769,-0.010948,0.001000,0.001000,0.001000,0.001000,0.001000
1028.500000,-0.012296,0.001000,0.001000,0.001000,0.001000,0.001000
1028.519231,-0.013635,0.001000,0.001000,0.001000,0.001000,0.001000
1028.538462,-0.014963,0.001000,0.001000,0.001000,0.001000,0.001000
1028.557692,-0.016280,0.001000,0.001000,0.001000,0.001000,0.001000
1028.576923,-0.017585,0.001000,0.001000,0.001000,0.001000,0.001000
1028.596154,-0.018875,0.001000,0.001000,0.001000,0.001000,0.001000
1028.615385,-0.020152,0.001000,0.001000,0.001000,0.001000,0.001000
1028.634615,-0.021412,0.001000,0.001000,0.001000,0.001000,0.001000
1028.653846,-0.022657,0.001000,0.001000,0.001000,0.001000,0.001000
1028.673077,-0.023884,0.001000,0.001000,0.001000,0.001000,0.001000
1028.692308,-0.025092,0.001000,0.001000,0.001000,0.001000,0.001000
1028.711538,-0.026281,0.001000,0.001000,0.001000,0.001000,0.001000
1028.730769,-0.027451,0.001000,0.001000,0.001000,0.001000,0.001000
1028.750000,-0.028599,0.001000,0.001000,0.001000,0.001000,0.001000
1028.769231,-0.029724,0.001000,0.001000,0.001000,0.001000,0.001000
1028.788462,-0.030828,0.001000,0.001000,0.001000,0.001000,0.001000
1028.807692,-0.031907,0.001000,0.001000,0.001000,0.001000,0.001000
1028.826923,-0.032962,0.001000,0.001000,0.001000,0.001000,0.001000
1028.846154,-0.033992,0.001000,0.001000,0.001000,0.001000,0.001000
1028.865385,-0.034995,0.001000,0.001000,0.001000,0.001000,0.001000
1028.884615,-0.035972,0.001000,0.001000,0.001000,0.001000,0.001000
1028.903846,-0.036921,0.001000,0.001000,0.001000,0.001000,0.001000
1028.923077,-0.037841,0.001000,0.001000,0.001000,0.001000,0.001000
1028.942308,-0.038732,0.001000,0.001000,0.001000,0.001000,0.001000
1028.961538,-0.039594,0.001000,0.001000,0.001000,0.001000,0.001000
1028.980769,-0.040425,0.001000,0.001000,0.001000,0.001000,0.001000
1029.000000,-0.041226,0.001000,0.001000,0.001000,0.001000,0.001000
1029.019231,-0.041994,0.001000,0.001000,0.001000,0.001000,0.001000
1029.038462,-0.042730,0.001000,0.001000,0.001000,0.001000,0.001000
1029.057692,-0.043434,0.001000,0.001000,0.001000,0.001000,0.001000
1029.076923,-0.044104,0.001000,0.001000,0.001000,0.001000,0.001000
1029.096154,-0.044740,0.001000,0.001000,0.001000,0.001000,0.001000
1029.115385,-0.045341,0.001000,0.001000,0.001000,0.001000,0.001000
1029.134615,-0.045908,0.001000,0.001000,0.001000,0.001000,0.001000
1029.153846,-0.046440,0.001000,0.001000,0.001000,0.001000,0.001000
1029.173077,-0.046935,0.001000,0.001000,0.001000,0.001000,0.001000
1029.192308,-0.047395,0.001000,0.001000,0.001000,0.001000,0.001000
1029.211538,-0.047819,0.001000,0.001000,0.001000,0.001000,0.001000
1029.230769,-0.048205,0.001000,0.001000,0.001000,0.001000,0.001000
1029.250000,-0.048555,0.001000,0.001000,0.001000,0.001000,0.001000
1029.269231,-0.048867,0.001000,0.001000,0.001000,0.001000,0.001000
1029.288462,-0.049141,0.001000,0.001000,0.001000,0.001000,0.001000
1029.307692,-0.049378,0.001000,0.001000,0.001000,0.001000,0.001000
1029.326923,-0.049577,0.001000,0.001000,0.001000,0.001000,0.001000
1029.346154,-0.049738,0.001000,0.001000,0.001000,0.001000,0.001000
1029.365385,-0.049861,0.001000,0.001000,0.001000,0.001000,0.001000
1029.384615,-0.049945,0.001000,0.001000,0.001000,0.001000,0.001000
1029.403846,-0.049991,0.001000,0.001000,0.001000,0.001000,0.001000
1029.423077,-0.049998,0.001000,0.001000,0.001000,0.001000,0.001000
1029.442308,-0.049967,0.001000,0.001000,0.001000,0.001000,0.001000
1029.461538,-0.049898,0.001000,0.001000,0.001000,0.001000,0.001000
1029.480769,-0.049790,0.001000,0.001000,0.001000,0.001000,0.001000
1029.500000,-0.049644,0.001000,0.001000,0.001000,0.001000,0.001000
1029.519231,-0.049460,0.001000,0.001000,0.001000,0.001000,0.001000
1029.538462,-0.049238,0.001000,0.001000,0.001000,0.001000,0.001000
1029.557692,-0.048978,0.001000,0.001000,0.001000,0.001000,0.001000
1029.576923,-0.048680,0.001000,0.001000,0.001000,0.001000,0.001000
1029.596154,-0.048345,0.001000,0.001000,0.001000,0.001000,0.001000
1029.615385,-0.047972,0.001000,0.001000,0.001000,0.001000,0.001000
1029.634615,-0.047563,0.001000,0.001000,0.001000,0.001000,0.001000
1029.653846,-0.047118,0.001000,0.001000,0.001000,0.001000,0.001000
1029.673077,-0.046636,0.001000,0.001000,0.001000,0.001000,0.001000
1029.692308,-0.046118,0.001000,0.001000,0.001000,0.001000,0.001000
1029.711538,-0.045565,0.001000,0.001000,0.001000,0.001000,0.001000
1029.730769,-0.044976,0.001000,0.001000,0.001000,0.001000,0.001000
1029.750000,-0.044354,0.001000,0.001000,0.001000,0.001000,0.001000
1029.769231,-0.043697,0.001000,0.001000,0.001000,0.001000,0.001000
1029.788462,-0.043006,0.001000,0.001000,0.001000,0.001000,0.001000
1029.807692,-0.042283,0.001000,0.001000,0.001000,0.001000,0.001000
1029.826923,-0.041527,0.001000,0.001000,0.001000,0.001000,0.001000
1029.846154,-0.040739,0.001000,0.001000,0.001000,0.001000,0.001000
1029.865385,-0.039919,0.001000,0.001000,0.001000,0.001000,0.001000
1029.884615,-0.039069,0.001000,0.001000,0.001000,0.001000,0.001000
1029.903846,-0.038189,0.001000,0.001000,0.001000,0.001000,0.001000
1029.923077,-0.037280,0.001000,0.001000,0.001000,0.001000,0.001000
1029.942308,-0.036342,0.001000,0.001000,0.001000,0.001000,0.001000
1029.961538,-0.035376,0.001000,0.001000,0.001000,0.001000,0.001000
1029.980769,-0.034383,0.001000,0.001000,0.001000,0.001000,0.001000
1030.000000,0.000000,0.001000,0.001000,0.001000,0.001000,0.001000
1030.019231,0.001438,0.001000,0.001000,0.001000,0.001000,0.001000
1030.038462,0.002874,0.001000,0.001000,0.001000,0.001000,0.001000
1030.057692,0.004308,0.001000,0.001000,0.001000,0.001000,0.001000
1030.076923,0.005738,0.001000,0.001000,0.001000,0.001000,0.001000
1030.096154,0.007164,0.001000,0.001000,0.001000,0.001000,0.001000
1030.115385,0.008583,0.001000,0.001000,0.001000,0.001000,0.001000
1030.134615,0.009996,0.001000,0.001000,0.001000,0.001000,0.001000
1030.153846,0.011400,0.001000,0.001000,0.001000,0.001000,0.001000
1030.173077,0.012795,0.001000,0.001000,0.001000,0.001000,0.001000
1030.192308,0.014180,0.001000,0.001000,0.001000,0.001000,0.001000
1030.211538,0.015552,0.001000,0.001000,0.001000,0.001000,0.001000
1030.230769,0.016912,0.001000,0.001000,0.001000,0.001000,0.001000
1030.250000,0.018258,0.001000,0.001000,0.001000,0.001000,0.001000
1030.269231,0.019589,0.001000,0.001000,0.001000,0.001000,0.001000
1030.288462,0.020903,0.001000,0.001000,0.001000,0.001000,0.001000
1030.307692,0.022200,0.001000,0.001000,0.001000,0.001000,0.001000
1030.326923,0.023479,0.001000,0.001000,0.001000,0.001000,0.001000
1030.346154,0.024739,0.001000,0.001000,0.001000,0.001000,0.001000
1030.365385,0.025978,0.001000,0.001000,0.001000,0.001000,0.001000
1030.384615,0.027195,0.001000,0.001000,0.001000,0.001000,0.001000
1030.403846,0.028390,0.001000,0.001000,0.001000,0.001000,0.001000
1030.423077,0.029562,0.001000,0.001000,0.001000,0.001000,0.001000
1030.442308,0.030709,0.001000,0.001000,0.001000,0.001000,0.001000
1030.461538,0.031831,0.001000,0.001000,0.001000,0.001000,0.001000
1030.480769,0.032926,0.001000,0.001000,0.001000,0.001000,0.001000
1030.500000,0.033994,0.001000,0.001000,0.001000,0.001000,0.001000
1030.519231,0.035034,0.001000,0.001000,0.001000,0.001000,0.001000
1030.538462,0.036045,0.001000,0.001000,0.001000,0.001000,0.001000
1030.557692,0.037027,0.001000,0.001000,0.001000,0.001000,0.001000
1030.576923,0.037977,0.001000,0.001000,0.001000,0.001000,0.001000
1030.596154,0.038897,0.001000,0.001000,0.001000,0.001000,0.001000
1030.615385,0.039784,0.001000,0.001000,0.001000,0.001000,0.001000
1030.634615,0.040638,0.001000,0.001000,0.001000,0.001000,0.001000
1030.653846,0.041459,0.001000,0.001000,0.001000,0.001000,0.001000
1030.673077,0.042245,0.001000,0.001000,0.001000,0.001000,0.001000
1030.692308,0.042997,0.001000,0.001000,0.001000,0.001000,0.001000
1030.711538,0.043713,0.001000,0.001000,0.001000,0.001000,0.001000
1030.730769,0.044393,0.001000,0.001000,0.001000,0.001000,0.001000
1030.750000,0.045036,0.001000,0.001000,0.001000,0.001000,0.001000
1030.769231,0.045641,0.001000,0.001000,0.001000,0.001000,0.001000
1030.788462,0.046210,0.001000,0.001000,0.001000,0.001000,0.001000
1030.807692,0.046740,0.001000,0.001000,0.001000,0.001000,0.001000
1030.826923,0.047231,0.001000,0.001000,0.001000,0.001000,0.001000
1030.846154,0.047683,0.001000,0.001000,0.001000,0.001000,0.001000
1030.865385,0.048096,0.001000,0.001000,0.001000,0.001000,0.001000
1030.884615,0.048469,0.001000,0.001000,0.001000,0.001000,0.001000
1030.903846,0.048802,0.001000,0.001000,0.001000,0.001000,0.001000
1030.923077,0.049095,0.001000,0.001000,0.001000,0.001000,0.001000
1030.942308,0.049347,0.001000,0.001000,0.001000,0.001000,0.001000
1030.961538,0.049558,0.001000,0.001000,0.001000,0.001000,0.001000
1030.980769,0.049728,0.001000,0.001000,0.001000,0.001000,0.001000
1031.000000,0.049857,0.001000,0.001000,0.001000,0.001000,0.001000
1031.019231,0.049945,0.001000,0.001000,0.001000,0.001000,0.001000
1031.038462,0.049992,0.001000,0.001000,0.001000,0.001000,0.001000
1031.057692,0.049997,0.001000,0.001000,0.001000,0.001000,0.001000
1031.076923,0.049961,0.001000,0.001000,0.001000,0.001000,0.001000
1031.096154,0.049884,0.001000,0.001000,0.001000,0.001000,0.001000
1031.115385,0.049765,0.001000,0.001000,0.001000,0.001000,0.001000
1031.134615,0.049606,0.001000,0.001000,0.001000,0.001000,0.001000
1031.153846,0.049405,0.001000,0.001000,0.001000,0.001000,0.001000
1031.173077,0.049163,0.001000,0.001000,0.001000,0.001000,0.001000
1031.192308,0.048881,0.001000,0.001000,0.001000,0.001000,0.001000
1031.211538,0.048558,0.001000,0.001000,0.001000,0.001000,0.001000
1031.230769,0.048196,0.001000,0.001000,0.001000,0.001000,0.001000
1031.250000,0.047793,0.001000,0.001000,0.001000,0.001000,0.001000
1031.269231,0.047351,0.001000,0.001000,0.001000,0.001000,0.001000
1031.288462,0.046870,0.001000,0.001000,0.001000,0.001000,0.001000
1031.307692,0.046350,0.001000,0.001000,0.001000,0.001000,0.001000
1031.326923,0.045791,0.001000,0.001000,0.001000,0.001000,0.001000
1031.346154,0.045195,0.001000,0.001000,0.001000,0.001000,0.001000
1031.365385,0.044562,0.001000,0.001000,0.001000,0.001000,0.001000
1031.384615,0.043891,0.001000,0.001000,0.001000,0.001000,0.001000
1031.403846,0.043185,0.001000,0.001000,0.001000,0.001000,0.001000
1031.423077,0.042442,0.001000,0.001000,0.001000,0.001000,0.001000
1031.442308,0.041665,0.001000,0.001000,0.001000,0.001000,0.001000
1031.461538,0.040853,0.001000,0.001000,0.001000,0.001000,0.001000
1031.480769,0.040007,0.001000,0.001000,0.001000,0.001000,0.001000
1031.500000,0.039128,0.001000,0.001000,0.001000,0.001000,0.001000
1031.519231,0.038217,0.001000,0.001000,0.001000,0.001000,0.001000
1031.538462,0.037275,0.001000,0.001000,0.001000,0.001000,0.001000
1031.557692,0.036301,0.001000,0.001000,0.001000,0.001000,0.001000
1031.576923,0.035297,0.001000,0.001000,0.001000,0.001000,0.001000
1031.596154,0.034265,0.001000,0.001000,0.001000,0.001000,0.001000
1031.615385,0.033204,0.001000,0.001000,0.001000,0.001000,0.001000
1031.634615,0.032115,0.001000,0.001000,0.001000,0.001000,0.001000
1031.653846,0.031000,0.001000,0.001000,0.001000,0.001000,0.001000
1031.673077,0.029859,0.001000,0.001000,0.001000,0.001000,0.001000
1031.692308,0.028694,0.001000,0.001000,0.001000,0.001000,0.001000
1031.711538,0.027505,0.001000,0.001000,0.001000,0.001000,0.001000
1031.730769,0.026293,0.001000,0.001000,0.001000,0.001000,0.001000
1031.750000,0.025060,0.001000,0.001000,0.001000,0.001000,0.001000
1031.769231,0.023805,0.001000,0.001000,0.001000,0.001000,0.001000
1031.788462,0.022531,0.001000,0.001000,0.001000,0.001000,0.001000
1031.807692,0.021239,0.001000,0.001000,0.001000,0.001000,0.001000
1031.826923,0.019929,0.001000,0.001000,0.001000,0.001000,0.001000
1031.846154,0.018602,0.001000,0.001000,0.001000,0.001000,0.001000
1031.865385,0.017260,0.001000,0.001000,0.001000,0.001000,0.001000
1031.884615,0.015904,0.001000,0.001000,0.001000,0.001000,0.001000
1031.903846,0.014534,0.001000,0.001000,0.001000,0.001000,0.001000
1031.923077,0.013153,0.001000,0.001000,0.001000,0.001000,0.001000
1031.942308,0.011761,0.001000,0.001000,0.001000,0.001000,0.001000
1031.961538,0.010359,0.001000,0.001000,0.001000,0.001000,0.001000
1031.980769,0.008948,0.001000,0.001000,0.001000,0.001000,0.001000
1032.000000,0.007530,0.001000,0.001000,0.001000,0.001000,0.001000
1032.019231,0.006106,0.001000,0.001000,0.001000,0.001000,0.001000
1032.038462,0.004676,0.001000,0.001000,0.001000,0.001000,0.001000
1032.057692,0.003243,0.001000,0.001000,0.001000,0.001000,0.001000
1032.076923,0.001808,0.001000,0.001000,0.001000,0.001000,0.001000
1032.096154,0.000370,0.001000,0.001000,0.001000,0.001000,0.001000
1032.115385,-0.001067,0.001000,0.001000,0.001000,0.001000,0.001000
1032.134615,-0.002504,0.001000,0.001000,0.001000,0.001000,0.001000
1032.153846,-0.003939,0.001000,0.001000,0.001000,0.001000,0.001000
1032.173077,-0.005370,0.001000,0.001000,0.001000,0.001000,0.001000
1032.192308,-0.006797,0.001000,0.001000,0.001000,0.001000,0.001000
1032.211538,-0.008219,0.001000,0.001000,0.001000,0.001000,0.001000
1032.230769,-0.009633,0.001000,0.001000,0.001000,0.001000,0.001000
1032.250000,-0.011040,0.001000,0.001000,0.001000,0.001000,0.001000
1032.269231,-0.012437,0.001000,0.001000,0.001000,0.001000,0.001000
1032.288462,-0.013824,0.001000,0.001000,0.001000,0.001000,0.001000
1032.307692,-0.015200,0.001000,0.001000,0.001000,0.001000,0.001000
1032.326923,-0.016563,0.001000,0.001000,0.001000,0.001000,0.001000
1032.346154,-0.017913,0.001000,0.001000,0.001000,0.001000,0.001000
1032.365385,-0.019247,0.001000,0.001000,0.001000,0.001000,0.001000
1032.384615,-0.020566,0.001000,0.001000,0.001000,0.001000,0.001000
1032.403846,-0.021868,0.001000,0.001000,0.001000,0.001000,0.001000
1032.423077,-0.023152,0.001000,0.001000,0.001000,0.001000,0.001000
1032.442308,-0.024416,0.001000,0.001000,0.001000,0.001000,0.001000
1032.461538,-0.025661,0.001000,0.001000,0.001000,0.001000,0.001000
1032.480769,-0.026884,0.001000,0.001000,0.001000,0.001000,0.001000
1032.500000,-0.028085,0.001000,0.001000,0.001000,0.001000,0.001000
1032.519231,-0.029262,0.001000,0.001000,0.001000,0.001000,0.001000
1032.538462,-0.030416,0.001000,0.001000,0.001000,0.001000,0.001000
1032.557692,-0.031544,0.001000,0.001000,0.001000,0.001000,0.001000
1032.576923,-0.032646,0.001000,0.001000,0.001000,0.001000,0.001000
1032.596154,-0.033722,0.001000,0.001000,0.001000,0.001000,0.001000
1032.615385,-0.034769,0.001000,0.001000,0.001000,0.001000,0.001000
1032.634615,-0.035788,0.001000,0.001000,0.001000,0.001000,0.001000
1032.653846,-0.036777,0.001000,0.001000,0.001000,0.001000,0.001000
1032.673077,-0.037736,0.001000,0.001000,0.001000,0.001000,0.001000
1032.692308,-0.038663,0.001000,0.001000,0.001000,0.001000,0.001000
1032.711538,-0.039559,0.001000,0.001000,0.001000,0.001000,0.001000
1032.730769,-0.040421,0.001000,0.001000,0.001000,0.001000,0.001000
1032.750000,-0.041251,0.001000,0.001000,0.001000,0.001000,0.001000
1032.769231,-0.042046,0.001000,0.001000,0.001000,0.001000,0.001000
1032.788462,-0.042807,0.001000,0.001000,0.001000,0.001000,0.001000
1032.807692,-0.043532,0.001000,0.001000,0.001000,0.001000,0.001000
1032.826923,-0.044221,0.001000,0.001000,0.001000,0.001000,0.001000
1032.846154,-0.044874,0.001000,0.001000,0.001000,0.001000,0.001000
1032.865385,-0.045489,0.001000,0.001000,0.001000,0.001000,0.001000
1032.884615,-0.046067,0.001000,0.001000,0.001000,0.001000,0.001000
1032.903846,-0.046607,0.001000,0.001000,0.001000,0.001000,0.001000
1032.923077,-0.047108,0.001000,0.001000,0.001000,0.001000,0.001000
1032.942308,-0.047570,0.001000,0.001000,0.001000,0.001000,0.001000
1032.961538,-0.047993,0.001000,0.001000,0.001000,0.001000,0.001000
1032.980769,-0.048377,0.001000,0.001000,0.001000,0.001000,0.001000
1033.000000,-0.048720,0.001000,0.001000,0.001000,0.001000,0.001000
1033.019231,-0.049023,0.001000,0.001000,0.001000,0.001000,0.001000
1033.038462,-0.049286,0.001000,0.001000,0.001000,0.001000,0.001000
1033.057692,-0.049507,0.001000,0.001000,0.001000,0.001000,0.001000
1033.076923,-0.049688,0.001000,0.001000,0.001000,0.001000,0.001000
1033.096154,-0.049828,0.001000,0.001000,0.001000,0.001000,0.001000
1033.115385,-0.049926,0.001000,0.001000,0.001000,0.001000,0.001000
1033.134615,-0.049984,0.001000,0.001000,0.001000,0.001000,0.001000
1033.153846,-0.050000,0.001000,0.001000,0.001000,0.001000,0.001000
1033.173077,-0.049974,0.001000,0.001000,0.001000,0.001000,0.001000
1033.192308,-0.049908,0.001000,0.001000,0.001000,0.001000,0.001000
1033.211538,-0.049800,0.001000,0.001000,0.001000,0.001000,0.001000
1033.230769,-0.049651,0.001000,0.001000,0.001000,0.001000,0.001000
1033.250000,-0.049460,0.001000,0.001000,0.001000,0.001000,0.001000
1033.269231,-0.049229,0.001000,0.001000,0.001000,0.001000,0.001000
1033.288462,-0.048958,0.001000,0.001000,0.001000,0.001000,0.001000
1033.307692,-0.048645,0.001000,0.001000,0.001000,0.001000,0.001000
1033.326923,-0.048293,0.001000,0.001000,0.001000,0.001000,0.001000
1033.346154,-0.047901,0.001000,0.001000,0.001000,0.001000,0.001000
1033.365385,-0.047469,0.001000,0.001000,0.001000,0.001000,0.001000
1033.384615,-0.046997,0.001000,0.001000,0.001000,0.001000,0.001000
1033.403846,-0.046487,0.001000,0.001000,0.001000,0.001000,0.001000
1033.423077,-0.045939,0.001000,0.001000,0.001000,0.001000,0.001000
1033.442308,-0.045352,0.001000,0.001000,0.001000,0.001000,0.001000
1033.461538,-0.044728,0.001000,0.001000,0.001000,0.001000,0.001000
1033.480769,-0.044067,0.001000,0.001000,0.001000,0.001000,0.001000
1033.500000,-0.043370,0.001000,0.001000,0.001000,0.001000,0.001000
1033.519231,-0.042637,0.001000,0.001000,0.001000,0.001000,0.001000
1033.538462,-0.041868,0.001000,0.001000,0.001000,0.001000,0.001000
1033.557692,-0.041065,0.001000,0.001000,0.001000,0.001000,0.001000
1033.576923,-0.040228,0.001000,0.001000,0.001000,0.001000,0.001000
1033.596154,-0.039358,0.001000,0.001000,0.001000,0.001000,0.001000
1033.615385,-0.038455,0.001000,0.001000,0.001000,0.001000,0.001000
1033.634615,-0.037520,0.001000,0.001000,0.001000,0.001000,0.001000
1033.653846,-0.036555,0.001000,0.001000,0.001000,0.001000,0.001000
1033.673077,-0.035559,0.001000,0.001000,0.001000,0.001000,0.001000
1033.692308,-0.034533,0.001000,0.001000,0.001000,0.001000,0.001000
1033.711538,-0.033480,0.001000,0.001000,0.001000,0.001000,0.001000
1033.730769,-0.032398,0.001000,0.001000,0.001000,0.001000,0.001000
1033.750000,-0.031290,0.001000,0.001000,0.001000,0.001000,0.001000
1033.769231,-0.030156,0.001000,0.001000,0.001000,0.001000,0.001000
1033.788462,-0.028997,0.001000,0.001000,0.001000,0.001000,0.001000
1033.807692,-0.027813,0.001000,0.001000,0.001000,0.001000,0.001000
1033.826923,-0.026607,0.001000,0.001000,0.001000,0.001000,0.001000
1033.846154,-0.025379,0.001000,0.001000,0.001000,0.001000,0.001000
1033.865385,-0.024130,0.001000,0.001000,0.001000,0.001000,0.001000
1033.884615,-0.022861,0.001000,0.001000,0.001000,0.001000,0.001000
1033.903846,-0.021573,0.001000,0.001000,0.001000,0.001000,0.001000
1033.923077,-0.020268,0.001000,0.001000,0.001000,0.001000,0.001000
1033.942308,-0.018945,0.001000,0.001000,0.001000,0.001000,0.001000
1033.961538,-0.017607,0.001000,0.001000,0.001000,0.001000,0.001000
1033.980769,-0.016254,0.001000,0.001000,0.001000,0.001000,0.001000
1034.000000,-0.014888,0.001000,0.001000,0.001000,0.001000,0.001000
1034.019231,-0.013510,0.001000,0.001000,0.001000,0.001000,0.001000
1034.038462,-0.012120,0.001000,0.001000,0.001000,0.001000,0.001000
1034.057692,-0.010720,0.001000,0.001000,0.001000,0.001000,0.001000
1034.076923,-0.009312,0.001000,0.001000,0.001000,0.001000,0.001000
1034.096154,-0.007896,0.001000,0.001000,0.001000,0.001000,0.001000
1034.115385,-0.006473,0.001000,0.001000,0.001000,0.001000,0.001000
1034.134615,-0.005045,0.001000,0.001000,0.001000,0.001000,0.001000
1034.153846,-0.003613,0.001000,0.001000,0.001000,0.001000,0.001000
1034.173077,-0.002177,0.001000,0.001000,0.001000,0.001000,0.001000
1034.192308,-0.000740,0.001000,0.001000,0.001000,0.001000,0.001000
1034.211538,0.000697,0.001000,0.001000,0.001000,0.001000,0.001000
1034.230769,0.002134,0.001000,0.001000,0.001000,0.001000,0.001000
1034.250000,0.003570,0.001000,0.001000,0.001000,0.001000,0.001000
1034.269231,0.005002,0.001000,0.001000,0.001000,0.001000,0.001000
1034.288462,0.006430,0.001000,0.001000,0.001000,0.001000,0.001000
1034.307692,0.007853,0.001000,0.001000,0.001000,0.001000,0.001000
1034.326923,0.009270,0.001000,0.001000,0.001000,0.001000,0.001000
1034.346154,0.010678,0.001000,0.001000,0.001000,0.001000,0.001000
1034.365385,0.012078,0.001000,0.001000,0.001000,0.001000,0.001000
1034.384615,0.013468,0.001000,0.001000,0.001000,0.001000,0.001000
1034.403846,0.014847,0.001000,0.001000,0.001000,0.001000,0.001000
1034.423077,0.016213,0.001000,0.001000,0.001000,0.001000,0.001000
1034.442308,0.017567,0.001000,0.001000,0.001000,0.001000,0.001000
1034.461538,0.018905,0.001000,0.001000,0.001000,0.001000,0.001000
1034.480769,0.020228,0.001000,0.001000,0.001000,0.001000,0.001000
1034.500000,0.021534,0.001000,0.001000,0.001000,0.001000,0.001000
1034.519231,0.022823,0.001000,0.001000,0.001000,0.001000,0.001000
1034.538462,0.024092,0.001000,0.001000,0.001000,0.001000,0.001000
1034.557692,0.025342,0.001000,0.001000,0.001000,0.001000,0.001000
1034.576923,0.026571,0.001000,0.001000,0.001000,0.001000,0.001000
1034.596154,0.027778,0.001000,0.001000,0.001000,0.001000,0.001000
1034.615385,0.028961,0.001000,0.001000,0.001000,0.001000,0.001000
1034.634615,0.030121,0.001000,0.001000,0.001000,0.001000,0.001000
1034.653846,0.031256,0.001000,0.001000,0.001000,0.001000,0.001000
1034.673077,0.032365,0.001000,0.001000,0.001000,0.001000,0.001000
