timestamp,ax,ay,az,gx,gy,gz
1000.000000,0.000000,0.001000,0.001000,0.001000,0.001000,0.001000
1000.019231,0.001181,0.001000,0.001000,0.001000,0.001000,0.001000
1000.038462,0.002361,0.001000,0.001000,0.001000,0.001000,0.001000
1000.057692,0.003540,0.001000,0.001000,0.001000,0.001000,0.001000
1000.076923,0.004717,0.001000,0.001000,0.001000,0.001000,0.001000
1000.096154,0.005891,0.001000,0.001000,0.001000,0.001000,0.001000
1000.115385,0.007062,0.001000,0.001000,0.001000,0.001000,0.001000
1000.134615,0.008229,0.001000,0.001000,0.001000,0.001000,0.001000
1000.153846,0.009392,0.001000,0.001000,0.001000,0.001000,0.001000
1000.173077,0.010549,0.001000,0.001000,0.001000,0.001000,0.001000
1000.192308,0.011701,0.001000,0.001000,0.001000,0.001000,0.001000
1000.211538,0.012845,0.001000,0.001000,0.001000,0.001000,0.001000
1000.230769,0.013983,0.001000,0.001000,0.001000,0.001000,0.001000
1000.250000,0.015113,0.001000,0.001000,0.001000,0.001000,0.001000
1000.269231,0.016234,0.001000,0.001000,0.001000,0.001000,0.001000
1000.288462,0.017347,0.001000,0.001000,0.001000,0.001000,0.001000
1000.307692,0.018450,0.001000,0.001000,0.001000,0.001000,0.001000
1000.326923,0.019542,0.001000,0.001000,0.001000,0.001000,0.001000
1000.346154,0.020624,0.001000,0.001000,0.001000,0.001000,0.001000
1000.365385,0.021694,0.001000,0.001000,0.001000,0.001000,0.001000
1000.384615,0.022751,0.001000,0.001000,0.001000,0.001000,0.001000
1000.403846,0.023797,0.001000,0.001000,0.001000,0.001000,0.001000
1000.423077,0.024829,0.001000,0.001000,0.001000,0.001000,0.001000
1000.442308,0.025847,0.001000,0.001000,0.001000,0.001000,0.001000
1000.461538,0.026850,0.001000,0.001000,0.001000,0.001000,0.001000
1000.480769,0.027839,0.001000,0.001000,0.001000,0.001000,0.001000
1000.500000,0.028812,0.001000,0.001000,0.001000,0.001000,0.001000
1000.519231,0.029769,0.001000,0.001000,0.001000,0.001000,0.001000
1000.538462,0.030710,0.001000,0.001000,0.001000,0.001000,0.001000
1000.557692,0.031633,0.001000,0.001000,0.001000,0.001000,0.001000
1000.576923,0.032539,0.001000,0.001000,0.001000,0.001000,0.001000
1000.596154,0.033426,0.001000,0.001000,0.001000,0.001000,0.001000
1000.615385,0.034295,0.001000,0.001000,0.001000,0.001000,0.001000
1000.634615,0.035145,0.001000,0.001000,0.001000,0.001000,0.001000
1000.653846,0.035975,0.001000,0.001000,0.001000,0.001000,0.001000
1000.673077,0.036785,0.001000,0.001000,0.001000,0.001000,0.001000
1000.692308,0.037575,0.001000,0.001000,0.001000,0.001000,0.001000
1000.711538,0.038343,0.001000,0.001000,0.001000,0.001000,0.001000
1000.730769,0.039091,0.001000,0.001000,0.001000,0.001000,0.001000
1000.750000,0.039816,0.001000,0.001000,0.001000,0.001000,0.001000
1000.769231,0.040519,0.001000,0.001000,0.001000,0.001000,0.001000
1000.788462,0.041200,0.001000,0.001000,0.001000,0.001000,0.001000
1000.807692,0.041857,0.001000,0.001000,0.001000,0.001000,0.001000
1000.826923,0.042492,0.001000,0.001000,0.001000,0.001000,0.001000
1000.846154,0.043102,0.001000,0.001000,0.001000,0.001000,0.001000
1000.865385,0.043689,0.001000,0.001000,0.001000,0.001000,0.001000
1000.884615,0.044251,0.001000,0.001000,0.001000,0.001000,0.001000
1000.903846,0.044788,0.001000,0.001000,0.001000,0.001000,0.001000
1000.923077,0.045301,0.001000,0.001000,0.001000,0.001000,0.001000
1000.942308,0.045788,0.001000,0.001000,0.001000,0.001000,0.001000
1000.961538,0.046250,0.001000,0.001000,0.001000,0.001000,0.001000
1000.980769,0.046685,0.001000,0.001000,0.001000,0.001000,0.001000
1001.000000,0.047095,0.001000,0.001000,0.001000,0.001000,0.001000
1001.019231,0.047479,0.001000,0.001000,0.001000,0.001000,0.001000
1001.038462,0.047836,0.001000,0.001000,0.001000,0.001000,0.001000
1001.057692,0.048166,0.001000,0.001000,0.001000,0.001000,0.001000
1001.076923,0.048469,0.001000,0.001000,0.001000,0.001000,0.001000
1001.096154,0.048746,0.001000,0.001000,0.001000,0.001000,0.001000
1001.115385,0.048995,0.001000,0.001000,0.001000,0.001000,0.001000
1001.134615,0.049217,0.001000,0.001000,0.001000,0.001000,0.001000
1001.153846,0.049411,0.001000,0.001000,0.001000,0.001000,0.001000
1001.173077,0.049578,0.001000,0.001000,0.001000,0.001000,0.001000
1001.192308,0.049718,0.001000,0.001000,0.001000,0.001000,0.001000
1001.211538,0.049829,0.001000,0.001000,0.001000,0.001000,0.001000
1001.230769,0.049913,0.001000,0.001000,0.001000,0.001000,0.001000
1001.250000,0.049969,0.001000,0.001000,0.001000,0.001000,0.001000
1001.269231,0.049996,0.001000,0.001000,0.001000,0.001000,0.001000
1001.288462,0.049997,0.001000,0.001000,0.001000,0.001000,0.001000
1001.307692,0.049969,0.001000,0.001000,0.001000,0.001000,0.001000
1001.326923,0.049913,0.001000,0.001000,0.001000,0.001000,0.001000
1001.346154,0.049829,0.001000,0.001000,0.001000,0.001000,0.001000
1001.365385,0.049718,0.001000,0.001000,0.001000,0.001000,0.001000
1001.384615,0.049579,0.001000,0.001000,0.001000,0.001000,0.001000
1001.403846,0.049412,0.001000,0.001000,0.001000,0.001000,0.001000
1001.423077,0.049218,0.001000,0.001000,0.001000,0.001000,0.001000
1001.442308,0.048996,0.001000,0.001000,0.001000,0.001000,0.001000
1001.461538,0.048747,0.001000,0.001000,0.001000,0.001000,0.001000
1001.480769,0.048471,0.001000,0.001000,0.001000,0.001000,0.001000
1001.500000,0.048167,0.001000,0.001000,0.001000,0.001000,0.001000
1001.519231,0.047837,0.001000,0.001000,0.001000,0.001000,0.001000
1001.538462,0.047480,0.001000,0.001000,0.001000,0.001000,0.001000
1001.557692,0.047097,0.001000,0.001000,0.001000,0.001000,0.001000
1001.576923,0.046687,0.001000,0.001000,0.001000,0.001000,0.001000
1001.596154,0.046251,0.001000,0.001000,0.001000,0.001000,0.001000
1001.615385,0.045790,0.001000,0.001000,0.001000,0.001000,0.001000
1001.634615,0.045303,0.001000,0.001000,0.001000,0.001000,0.001000
1001.653846,0.044791,0.001000,0.001000,0.001000,0.001000,0.001000
1001.673077,0.044253,0.001000,0.001000,0.001000,0.001000,0.001000
1001.692308,0.043691,0.001000,0.001000,0.001000,0.001000,0.001000
1001.711538,0.043105,0.001000,0.001000,0.001000,0.001000,0.001000
1001.730769,0.042494,0.001000,0.001000,0.001000,0.001000,0.001000
1001.750000,0.041860,0.001000,0.001000,0.001000,0.001000,0.001000
1001.769231,0.041203,0.001000,0.001000,0.001000,0.001000,0.001000
1001.788462,0.040522,0.001000,0.001000,0.001000,0.001000,0.001000
1001.807692,0.039819,0.001000,0.001000,0.001000,0.001000,0.001000
1001.826923,0.039094,0.001000,0.001000,0.001000,0.001000,0.001000
1001.846154,0.038347,0.001000,0.001000,0.001000,0.001000,0.001000
1001.865385,0.037578,0.001000,0.001000,0.001000,0.001000,0.001000
1001.884615,0.036789,0.001000,0.001000,0.001000,0.001000,0.001000
1001.903846,0.035979,0.001000,0.001000,0.001000,0.001000,0.001000
1001.923077,0.035149,0.001000,0.001000,0.001000,0.001000,0.001000
1001.942308,0.034299,0.001000,0.001000,0.001000,0.001000,0.001000
1001.961538,0.033430,0.001000,0.001000,0.001000,0.001000,0.001000
1001.980769,0.032543,0.001000,0.001000,0.001000,0.001000,0.001000
1002.000000,0.031637,0.001000,0.001000,0.001000,0.001000,0.001000
1002.019231,0.030714,0.001000,0.001000,0.001000,0.001000,0.001000
1002.038462,0.029773,0.001000,0.001000,0.001000,0.001000,0.001000
1002.057692,0.028816,0.001000,0.001000,0.001000,0.001000,0.001000
1002.076923,0.027843,0.001000,0.001000,0.001000,0.001000,0.001000
1002.096154,0.026855,0.001000,0.001000,0.001000,0.001000,0.001000
1002.115385,0.025851,0.001000,0.001000,0.001000,0.001000,0.001000
1002.134615,0.024833,0.001000,0.001000,0.001000,0.001000,0.001000
1002.153846,0.023801,0.001000,0.001000,0.001000,0.001000,0.001000
1002.173077,0.022756,0.001000,0.001000,0.001000,0.001000,0.001000
1002.192308,0.021698,0.001000,0.001000,0.001000,0.001000,0.001000
1002.211538,0.020628,0.001000,0.001000,0.001000,0.001000,0.001000
1002.230769,0.019547,0.001000,0.001000,0.001000,0.001000,0.001000
1002.250000,0.018454,0.001000,0.001000,0.001000,0.001000,0.001000
1002.269231,0.017352,0.001000,0.001000,0.001000,0.001000,0.001000
1002.288462,0.016239,0.001000,0.001000,0.001000,0.001000,0.001000
1002.307692,0.015118,0.001000,0.001000,0.001000,0.001000,0.001000
1002.326923,0.013988,0.001000,0.001000,0.001000,0.001000,0.001000
1002.346154,0.012850,0.001000,0.001000,0.001000,0.001000,0.001000
1002.365385,0.011706,0.001000,0.001000,0.001000,0.001000,0.001000
1002.384615,0.010554,0.001000,0.001000,0.001000,0.001000,0.001000
1002.403846,0.009397,0.001000,0.001000,0.001000,0.001000,0.001000
1002.423077,0.008234,0.001000,0.001000,0.001000,0.001000,0.001000
1002.442308,0.007067,0.001000,0.001000,0.001000,0.001000,0.001000
1002.461538,0.005896,0.001000,0.001000,0.001000,0.001000,0.001000
1002.480769,0.004722,0.001000,0.001000,0.001000,0.001000,0.001000
1002.500000,0.003545,0.001000,0.001000,0.001000,0.001000,0.001000
1002.519231,0.002366,0.001000,0.001000,0.001000,0.001000,0.001000
1002.538462,0.001186,0.001000,0.001000,0.001000,0.001000,0.001000
1002.557692,0.000005,0.001000,0.001000,0.001000,0.001000,0.001000
1002.576923,-0.001176,0.001000,0.001000,0.001000,0.001000,0.001000
1002.596154,-0.002356,0.001000,0.001000,0.001000,0.001000,0.001000
1002.615385,-0.003535,0.001000,0.001000,0.001000,0.001000,0.001000
1002.634615,-0.004712,0.001000,0.001000,0.001000,0.001000,0.001000
1002.653846,-0.005886,0.001000,0.001000,0.001000,0.001000,0.001000
1002.673077,-0.007057,0.001000,0.001000,0.001000,0.001000,0.001000
1002.692308,-0.008224,0.001000,0.001000,0.001000,0.001000,0.001000
1002.711538,-0.009387,0.001000,0.001000,0.001000,0.001000,0.001000
1002.730769,-0.010544,0.001000,0.001000,0.001000,0.001000,0.001000
1002.750000,-0.011696,0.001000,0.001000,0.001000,0.001000,0.001000
1002.769231,-0.012841,0.001000,0.001000,0.001000,0.001000,0.001000
1002.788462,-0.013978,0.001000,0.001000,0.001000,0.001000,0.001000
1002.807692,-0.015108,0.001000,0.001000,0.001000,0.001000,0.001000
1002.826923,-0.016230,0.001000,0.001000,0.001000,0.001000,0.001000
1002.846154,-0.017342,0.001000,0.001000,0.001000,0.001000,0.001000
1002.865385,-0.018445,0.001000,0.001000,0.001000,0.001000,0.001000
1002.884615,-0.019537,0.001000,0.001000,0.001000,0.001000,0.001000
1002.903846,-0.020619,0.001000,0.001000,0.001000,0.001000,0.001000
1002.923077,-0.021689,0.001000,0.001000,0.001000,0.001000,0.001000
1002.942308,-0.022747,0.001000,0.001000,0.001000,0.001000,0.001000
1002.961538,-0.023792,0.001000,0.001000,0.001000,0.001000,0.001000
1002.980769,-0.024824,0.001000,0.001000,0.001000,0.001000,0.001000
1003.000000,-0.025842,0.001000,0.001000,0.001000,0.001000,0.001000
1003.019231,-0.026846,0.001000,0.001000,0.001000,0.001000,0.001000
1003.038462,-0.027835,0.001000,0.001000,0.001000,0.001000,0.001000
1003.057692,-0.028808,0.001000,0.001000,0.001000,0.001000,0.001000
1003.076923,-0.029765,0.001000,0.001000,0.001000,0.001000,0.001000
1003.096154,-0.030706,0.001000,0.001000,0.001000,0.001000,0.001000
1003.115385,-0.031629,0.001000,0.001000,0.001000,0.001000,0.001000
1003.134615,-0.032535,0.001000,0.001000,0.001000,0.001000,0.001000
1003.153846,-0.033423,0.001000,0.001000,0.001000,0.001000,0.001000
1003.173077,-0.034292,0.001000,0.001000,0.001000,0.001000,0.001000
1003.192308,-0.035141,0.001000,0.001000,0.001000,0.001000,0.001000
1003.211538,-0.035972,0.001000,0.001000,0.001000,0.001000,0.001000
1003.230769,-0.036782,0.001000,0.001000,0.001000,0.001000,0.001000
1003.250000,-0.037572,0.001000,0.001000,0.001000,0.001000,0.001000
1003.269231,-0.038340,0.001000,0.001000,0.001000,0.001000,0.001000
1003.288462,-0.039088,0.001000,0.001000,0.001000,0.001000,0.001000
1003.307692,-0.039813,0.001000,0.001000,0.001000,0.001000,0.001000
1003.326923,-0.040516,0.001000,0.001000,0.001000,0.001000,0.001000
1003.346154,-0.041197,0.001000,0.001000,0.001000,0.001000,0.001000
1003.365385,-0.041855,0.001000,0.001000,0.001000,0.001000,0.001000
1003.384615,-0.042489,0.001000,0.001000,0.001000,0.001000,0.001000
1003.403846,-0.043100,0.001000,0.001000,0.001000,0.001000,0.001000
1003.423077,-0.043686,0.001000,0.001000,0.001000,0.001000,0.001000
1003.442308,-0.044249,0.001000,0.001000,0.001000,0.001000,0.001000
1003.461538,-0.044786,0.001000,0.001000,0.001000,0.001000,0.001000
1003.480769,-0.045299,0.001000,0.001000,0.001000,0.001000,0.001000
1003.500000,-0.045786,0.001000,0.001000,0.001000,0.001000,0.001000
1003.519231,-0.046248,0.001000,0.001000,0.001000,0.001000,0.001000
1003.538462,-0.046684,0.001000,0.001000,0.001000,0.001000,0.001000
1003.557692,-0.047093,0.001000,0.001000,0.001000,0.001000,0.001000
1003.576923,-0.047477,0.001000,0.001000,0.001000,0.001000,0.001000
1003.596154,-0.047834,0.001000,0.001000,0.001000,0.001000,0.001000
1003.615385,-0.048165,0.001000,0.001000,0.001000,0.001000,0.001000
1003.634615,-0.048468,0.001000,0.001000,0.001000,0.001000,0.001000
1003.653846,-0.048745,0.001000,0.001000,0.001000,0.001000,0.001000
1003.673077,-0.048994,0.001000,0.001000,0.001000,0.001000,0.001000
1003.692308,-0.049216,0.001000,0.001000,0.001000,0.001000,0.001000
1003.711538,-0.049411,0.001000,0.001000,0.001000,0.001000,0.001000
1003.730769,-0.049578,0.001000,0.001000,0.001000,0.001000,0.001000
1003.750000,-0.049717,0.001000,0.001000,0.001000,0.001000,0.001000
1003.769231,-0.049829,0.001000,0.001000,0.001000,0.001000,0.001000
1003.788462,-0.049912,0.001000,0.001000,0.001000,0.001000,0.001000
1003.807692,-0.049968,0.001000,0.001000,0.001000,0.001000,0.001000
1003.826923,-0.049996,0.001000,0.001000,0.001000,0.001000,0.001000
1003.846154,-0.049997,0.001000,0.001000,0.001000,0.001000,0.001000
1003.865385,-0.049969,0.001000,0.001000,0.001000,0.001000,0.001000
1003.884615,-0.049913,0.001000,0.001000,0.001000,0.001000,0.001000
1003.903846,-0.049830,0.001000,0.001000,0.001000,0.001000,0.001000
1003.923077,-0.049719,0.001000,0.001000,0.001000,0.001000,0.001000
1003.942308,-0.049580,0.001000,0.001000,0.001000,0.001000,0.001000
1003.961538,-0.049413,0.001000,0.001000,0.001000,0.001000,0.001000
1003.980769,-0.049219,0.001000,0.001000,0.001000,0.001000,0.001000
1004.000000,-0.048997,0.001000,0.001000,0.001000,0.001000,0.001000
1004.019231,-0.048748,0.001000,0.001000,0.001000,0.001000,0.001000
1004.038462,-0.048472,0.001000,0.001000,0.001000,0.001000,0.001000
1004.057692,-0.048169,0.001000,0.001000,0.001000,0.001000,0.001000
1004.076923,-0.047839,0.001000,0.001000,0.001000,0.001000,0.001000
1004.096154,-0.047482,0.001000,0.001000,0.001000,0.001000,0.001000
1004.115385,-0.047099,0.001000,0.001000,0.001000,0.001000,0.001000
1004.134615,-0.046689,0.001000,0.001000,0.001000,0.001000,0.001000
1004.153846,-0.046253,0.001000,0.001000,0.001000,0.001000,0.001000
1004.173077,-0.045792,0.001000,0.001000,0.001000,0.001000,0.001000
1004.192308,-0.045305,0.001000,0.001000,0.001000,0.001000,0.001000
1004.211538,-0.044793,0.001000,0.001000,0.001000,0.001000,0.001000
1004.230769,-0.044256,0.001000,0.001000,0.001000,0.001000,0.001000
1004.250000,-0.043694,0.001000,0.001000,0.001000,0.001000,0.001000
1004.269231,-0.043107,0.001000,0.001000,0.001000,0.001000,0.001000
1004.288462,-0.042497,0.001000,0.001000,0.001000,0.001000,0.001000
1004.307692,-0.041863,0.001000,0.001000,0.001000,0.001000,0.001000
1004.326923,-0.041206,0.001000,0.001000,0.001000,0.001000,0.001000
1004.346154,-0.040525,0.001000,0.001000,0.001000,0.001000,0.001000
1004.365385,-0.039822,0.001000,0.001000,0.001000,0.001000,0.001000
1004.384615,-0.039097,0.001000,0.001000,0.001000,0.001000,0.001000
1004.403846,-0.038350,0.001000,0.001000,0.001000,0.001000,0.001000
1004.423077,-0.037582,0.001000,0.001000,0.001000,0.001000,0.001000
1004.442308,-0.036792,0.001000,0.001000,0.001000,0.001000,0.001000
1004.461538,-0.035982,0.001000,0.001000,0.001000,0.001000,0.001000
1004.480769,-0.035152,0.001000,0.001000,0.001000,0.001000,0.001000
1004.500000,-0.034303,0.001000,0.001000,0.001000,0.001000,0.001000
1004.519231,-0.033434,0.001000,0.001000,0.001000,0.001000,0.001000
1004.538462,-0.032547,0.001000,0.001000,0.001000,0.001000,0.001000
1004.557692,-0.031641,0.001000,0.001000,0.001000,0.001000,0.001000
1004.576923,-0.030718,0.001000,0.001000,0.001000,0.001000,0.001000
1004.596154,-0.029777,0.001000,0.001000,0.001000,0.001000,0.001000
1004.615385,-0.028820,0.001000,0.001000,0.001000,0.001000,0.001000
1004.634615,-0.027847,0.001000,0.001000,0.001000,0.001000,0.001000
1004.653846,-0.026859,0.001000,0.001000,0.001000,0.001000,0.001000
1004.673077,-0.025855,0.001000,0.001000,0.001000,0.001000,0.001000
1004.692308,-0.024837,0.001000,0.001000,0.001000,0.001000,0.001000
1004.711538,-0.023806,0.001000,0.001000,0.001000,0.001000,0.001000
1004.730769,-0.022760,0.001000,0.001000,0.001000,0.001000,0.001000
1004.750000,-0.021703,0.001000,0.001000,0.001000,0.001000,0.001000
1004.769231,-0.020633,0.001000,0.001000,0.001000,0.001000,0.001000
1004.788462,-0.019551,0.001000,0.001000,0.001000,0.001000,0.001000
1004.807692,-0.018459,0.001000,0.001000,0.001000,0.001000,0.001000
1004.826923,-0.017356,0.001000,0.001000,0.001000,0.001000,0.001000
1004.846154,-0.016244,0.001000,0.001000,0.001000,0.001000,0.001000
1004.865385,-0.015123,0.001000,0.001000,0.001000,0.001000,0.001000
1004.884615,-0.013993,0.001000,0.001000,0.001000,0.001000,0.001000
1004.903846,-0.012855,0.001000,0.001000,0.001000,0.001000,0.001000
1004.923077,-0.011710,0.001000,0.001000,0.001000,0.001000,0.001000
1004.942308,-0.010559,0.001000,0.001000,0.001000,0.001000,0.001000
1004.961538,-0.009402,0.001000,0.001000,0.001000,0.001000,0.001000
1004.980769,-0.008239,0.001000,0.001000,0.001000,0.001000,0.001000
1005.000000,-0.007072,0.001000,0.001000,0.001000,0.001000,0.001000
1005.019231,-0.005901,0.001000,0.001000,0.001000,0.001000,0.001000
1005.038462,-0.004727,0.001000,0.001000,0.001000,0.001000,0.001000
1005.057692,-0.003550,0.001000,0.001000,0.001000,0.001000,0.001000
1005.076923,-0.002371,0.001000,0.001000,0.001000,0.001000,0.001000
1005.096154,-0.001191,0.001000,0.001000,0.001000,0.001000,0.001000
1005.115385,-0.000010,0.001000,0.001000,0.001000,0.001000,0.001000
1005.134615,0.001171,0.001000,0.001000,0.001000,0.001000,0.001000
1005.153846,0.002351,0.001000,0.001000,0.001000,0.001000,0.001000
1005.173077,0.003530,0.001000,0.001000,0.001000,0.001000,0.001000
1005.192308,0.004707,0.001000,0.001000,0.001000,0.001000,0.001000
1005.211538,0.005881,0.001000,0.001000,0.001000,0.001000,0.001000
1005.230769,0.007052,0.001000,0.001000,0.001000,0.001000,0.001000
1005.250000,0.008220,0.001000,0.001000,0.001000,0.001000,0.001000
1005.269231,0.009382,0.001000,0.001000,0.001000,0.001000,0.001000
1005.288462,0.010539,0.001000,0.001000,0.001000,0.001000,0.001000
1005.307692,0.011691,0.001000,0.001000,0.001000,0.001000,0.001000
1005.326923,0.012836,0.001000,0.001000,0.001000,0.001000,0.001000
1005.346154,0.013973,0.001000,0.001000,0.001000,0.001000,0.001000
1005.365385,0.015103,0.001000,0.001000,0.001000,0.001000,0.001000
1005.384615,0.016225,0.001000,0.001000,0.001000,0.001000,0.001000
1005.403846,0.017337,0.001000,0.001000,0.001000,0.001000,0.001000
1005.423077,0.018440,0.001000,0.001000,0.001000,0.001000,0.001000
1005.442308,0.019533,0.001000,0.001000,0.001000,0.001000,0.001000
1005.461538,0.020614,0.001000,0.001000,0.001000,0.001000,0.001000
1005.480769,0.021684,0.001000,0.001000,0.001000,0.001000,0.001000
1005.500000,0.022742,0.001000,0.001000,0.001000,0.001000,0.001000
1005.519231,0.023788,0.001000,0.001000,0.001000,0.001000,0.001000
1005.538462,0.024820,0.001000,0.001000,0.001000,0.001000,0.001000
1005.557692,0.025838,0.001000,0.001000,0.001000,0.001000,0.001000
1005.576923,0.026842,0.001000,0.001000,0.001000,0.001000,0.001000
1005.596154,0.027831,0.001000,0.001000,0.001000,0.001000,0.001000
1005.615385,0.028804,0.001000,0.001000,0.001000,0.001000,0.001000
1005.634615,0.029761,0.001000,0.001000,0.001000,0.001000,0.001000
1005.653846,0.030702,0.001000,0.001000,0.001000,0.001000,0.001000
1005.673077,0.031625,0.001000,0.001000,0.001000,0.001000,0.001000
1005.692308,0.032531,0.001000,0.001000,0.001000,0.001000,0.001000
1005.711538,0.033419,0.001000,0.001000,0.001000,0.001000,0.001000
1005.730769,0.034288,0.001000,0.001000,0.001000,0.001000,0.001000
1005.750000,0.035138,0.001000,0.001000,0.001000,0.001000,0.001000
1005.769231,0.035968,0.001000,0.001000,0.001000,0.001000,0.001000
1005.788462,0.036778,0.001000,0.001000,0.001000,0.001000,0.001000
1005.807692,0.037568,0.001000,0.001000,0.001000,0.001000,0.001000
1005.826923,0.038337,0.001000,0.001000,0.001000,0.001000,0.001000
1005.846154,0.039084,0.001000,0.001000,0.001000,0.001000,0.001000
1005.865385,0.039810,0.001000,0.001000,0.001000,0.001000,0.001000
1005.884615,0.040513,0.001000,0.001000,0.001000,0.001000,0.001000
1005.903846,0.041194,0.001000,0.001000,0.001000,0.001000,0.001000
1005.923077,0.041852,0.001000,0.001000,0.001000,0.001000,0.001000
1005.942308,0.042486,0.001000,0.001000,0.001000,0.001000,0.001000
1005.961538,0.043097,0.001000,0.001000,0.001000,0.001000,0.001000
1005.980769,0.043684,0.001000,0.001000,0.001000,0.001000,0.001000
1006.000000,0.044246,0.001000,0.001000,0.001000,0.001000,0.001000
1006.019231,0.044784,0.001000,0.001000,0.001000,0.001000,0.001000
1006.038462,0.045296,0.001000,0.001000,0.001000,0.001000,0.001000
1006.057692,0.045784,0.001000,0.001000,0.001000,0.001000,0.001000
1006.076923,0.046246,0.001000,0.001000,0.001000,0.001000,0.001000
1006.096154,0.046682,0.001000,0.001000,0.001000,0.001000,0.001000
1006.115385,0.047092,0.001000,0.001000,0.001000,0.001000,0.001000
1006.134615,0.047476,0.001000,0.001000,0.001000,0.001000,0.001000
1006.153846,0.047833,0.001000,0.001000,0.001000,0.001000,0.001000
1006.173077,0.048163,0.001000,0.001000,0.001000,0.001000,0.001000
1006.192308,0.048467,0.001000,0.001000,0.001000,0.001000,0.001000
1006.211538,0.048744,0.001000,0.001000,0.001000,0.001000,0.001000
1006.230769,0.048993,0.001000,0.001000,0.001000,0.001000,0.001000
1006.250000,0.049215,0.001000,0.001000,0.001000,0.001000,0.001000
1006.269231,0.049410,0.001000,0.001000,0.001000,0.001000,0.001000
1006.288462,0.049577,0.001000,0.001000,0.001000,0.001000,0.001000
1006.307692,0.049716,0.001000,0.001000,0.001000,0.001000,0.001000
1006.326923,0.049828,0.001000,0.001000,0.001000,0.001000,0.001000
1006.346154,0.049912,0.001000,0.001000,0.001000,0.001000,0.001000
1006.365385,0.049968,0.001000,0.001000,0.001000,0.001000,0.001000
1006.384615,0.049996,0.001000,0.001000,0.001000,0.001000,0.001000
1006.403846,0.049997,0.001000,0.001000,0.001000,0.001000,0.001000
1006.423077,0.049969,0.001000,0.001000,0.001000,0.001000,0.001000
1006.442308,0.049914,0.001000,0.001000,0.001000,0.001000,0.001000
1006.461538,0.049830,0.001000,0.001000,0.001000,0.001000,0.001000
1006.480769,0.049719,0.001000,0.001000,0.001000,0.001000,0.001000
1006.500000,0.049580,0.001000,0.001000,0.001000,0.001000,0.001000
1006.519231,0.049414,0.001000,0.001000,0.001000,0.001000,0.001000
1006.538462,0.049220,0.001000,0.001000,0.001000,0.001000,0.001000
1006.557692,0.048998,0.001000,0.001000,0.001000,0.001000,0.001000
1006.576923,0.048749,0.001000,0.001000,0.001000,0.001000,0.001000
1006.596154,0.048473,0.001000,0.001000,0.001000,0.001000,0.001000
1006.615385,0.048170,0.001000,0.001000,0.001000,0.001000,0.001000
1006.634615,0.047840,0.001000,0.001000,0.001000,0.001000,0.001000
1006.653846,0.047483,0.001000,0.001000,0.001000,0.001000,0.001000
1006.673077,0.047100,0.001000,0.001000,0.001000,0.001000,0.001000
1006.692308,0.046691,0.001000,0.001000,0.001000,0.001000,0.001000
1006.711538,0.046255,0.001000,0.001000,0.001000,0.001000,0.001000
1006.730769,0.045794,0.001000,0.001000,0.001000,0.001000,0.001000
1006.750000,0.045307,0.001000,0.001000,0.001000,0.001000,0.001000
1006.769231,0.044795,0.001000,0.001000,0.001000,0.001000,0.001000
1006.788462,0.044258,0.001000,0.001000,0.001000,0.001000,0.001000
1006.807692,0.043696,0.001000,0.001000,0.001000,0.001000,0.001000
1006.826923,0.043110,0.001000,0.001000,0.001000,0.001000,0.001000
1006.846154,0.042500,0.001000,0.001000,0.001000,0.001000,0.001000
1006.865385,0.041866,0.001000,0.001000,0.001000,0.001000,0.001000
1006.884615,0.041208,0.001000,0.001000,0.001000,0.001000,0.001000
1006.903846,0.040528,0.001000,0.001000,0.001000,0.001000,0.001000
1006.923077,0.039825,0.001000,0.001000,0.001000,0.001000,0.001000
1006.942308,0.039100,0.001000,0.001000,0.001000,0.001000,0.001000
1006.961538,0.038353,0.001000,0.001000,0.001000,0.001000,0.001000
1006.980769,0.037585,0.001000,0.001000,0.001000,0.001000,0.001000
1007.000000,0.036796,0.001000,0.001000,0.001000,0.001000,0.001000
1007.019231,0.035986,0.001000,0.001000,0.001000,0.001000,0.001000
1007.038462,0.035156,0.001000,0.001000,0.001000,0.001000,0.001000
1007.057692,0.034306,0.001000,0.001000,0.001000,0.001000,0.001000
1007.076923,0.033438,0.001000,0.001000,0.001000,0.001000,0.001000
1007.096154,0.032550,0.001000,0.001000,0.001000,0.001000,0.001000
1007.115385,0.031645,0.001000,0.001000,0.001000,0.001000,0.001000
1007.134615,0.030722,0.001000,0.001000,0.001000,0.001000,0.001000
1007.153846,0.029781,0.001000,0.001000,0.001000,0.001000,0.001000
1007.173077,0.028825,0.001000,0.001000,0.001000,0.001000,0.001000
1007.192308,0.027852,0.001000,0.001000,0.001000,0.001000,0.001000
1007.211538,0.026863,0.001000,0.001000,0.001000,0.001000,0.001000
1007.230769,0.025860,0.001000,0.001000,0.001000,0.001000,0.001000
1007.250000,0.024842,0.001000,0.001000,0.001000,0.001000,0.001000
1007.269231,0.023810,0.001000,0.001000,0.001000,0.001000,0.001000
1007.288462,0.022765,0.001000,0.001000,0.001000,0.001000,0.001000
1007.307692,0.021707,0.001000,0.001000,0.001000,0.001000,0.001000
1007.326923,0.020637,0.001000,0.001000,0.001000,0.001000,0.001000
1007.346154,0.019556,0.001000,0.001000,0.001000,0.001000,0.001000
1007.365385,0.018464,0.001000,0.001000,0.001000,0.001000,0.001000
1007.384615,0.017361,0.001000,0.001000,0.001000,0.001000,0.001000
1007.403846,0.016249,0.001000,0.001000,0.001000,0.001000,0.001000
1007.423077,0.015127,0.001000,0.001000,0.001000,0.001000,0.001000
1007.442308,0.013998,0.001000,0.001000,0.001000,0.001000,0.001000
1007.461538,0.012860,0.001000,0.001000,0.001000,0.001000,0.001000
1007.480769,0.011715,0.001000,0.001000,0.001000,0.001000,0.001000
1007.500000,0.010564,0.001000,0.001000,0.001000,0.001000,0.001000
1007.519231,0.009407,0.001000,0.001000,0.001000,0.001000,0.001000
1007.538462,0.008244,0.001000,0.001000,0.001000,0.001000,0.001000
1007.557692,0.007077,0.001000,0.001000,0.001000,0.001000,0.001000
1007.576923,0.005906,0.001000,0.001000,0.001000,0.001000,0.001000
1007.596154,0.004732,0.001000,0.001000,0.001000,0.001000,0.001000
1007.615385,0.003555,0.001000,0.001000,0.001000,0.001000,0.001000
1007.634615,0.002376,0.001000,0.001000,0.001000,0.001000,0.001000
1007.653846,0.001196,0.001000,0.001000,0.001000,0.001000,0.001000
1007.673077,0.000015,0.001000,0.001000,0.001000,0.001000,0.001000
1007.692308,-0.001166,0.001000,0.001000,0.001000,0.001000,0.001000
1007.711538,-0.002346,0.001000,0.001000,0.001000,0.001000,0.001000
1007.730769,-0.003525,0.001000,0.001000,0.001000,0.001000,0.001000
1007.750000,-0.004702,0.001000,0.001000,0.001000,0.001000,0.001000
1007.769231,-0.005876,0.001000,0.001000,0.001000,0.001000,0.001000
1007.788462,-0.007047,0.001000,0.001000,0.001000,0.001000,0.001000
1007.807692,-0.008215,0.001000,0.001000,0.001000,0.001000,0.001000
1007.826923,-0.009377,0.001000,0.001000,0.001000,0.001000,0.001000
1007.846154,-0.010534,0.001000,0.001000,0.001000,0.001000,0.001000
1007.865385,-0.011686,0.001000,0.001000,0.001000,0.001000,0.001000
1007.884615,-0.012831,0.001000,0.001000,0.001000,0.001000,0.001000
1007.903846,-0.013969,0.001000,0.001000,0.001000,0.001000,0.001000
1007.923077,-0.015099,0.001000,0.001000,0.001000,0.001000,0.001000
1007.942308,-0.016220,0.001000,0.001000,0.001000,0.001000,0.001000
1007.961538,-0.017333,0.001000,0.001000,0.001000,0.001000,0.001000
1007.980769,-0.018436,0.001000,0.001000,0.001000,0.001000,0.001000
1008.000000,-0.019528,0.001000,0.001000,0.001000,0.001000,0.001000
1008.019231,-0.020610,0.001000,0.001000,0.001000,0.001000,0.001000
1008.038462,-0.021680,0.001000,0.001000,0.001000,0.001000,0.001000
1008.057692,-0.022738,0.001000,0.001000,0.001000,0.001000,0.001000
1008.076923,-0.023783,0.001000,0.001000,0.001000,0.001000,0.001000
1008.096154,-0.024815,0.001000,0.001000,0.001000,0.001000,0.001000
1008.115385,-0.025834,0.001000,0.001000,0.001000,0.001000,0.001000
1008.134615,-0.026838,0.001000,0.001000,0.001000,0.001000,0.001000
1008.153846,-0.027826,0.001000,0.001000,0.001000,0.001000,0.001000
1008.173077,-0.028800,0.001000,0.001000,0.001000,0.001000,0.001000
1008.192308,-0.029757,0.001000,0.001000,0.001000,0.001000,0.001000
1008.211538,-0.030698,0.001000,0.001000,0.001000,0.001000,0.001000
1008.230769,-0.031621,0.001000,0.001000,0.001000,0.001000,0.001000
1008.250000,-0.032527,0.001000,0.001000,0.001000,0.001000,0.001000
1008.269231,-0.033415,0.001000,0.001000,0.001000,0.001000,0.001000
1008.288462,-0.034284,0.001000,0.001000,0.001000,0.001000,0.001000
1008.307692,-0.035134,0.001000,0.001000,0.001000,0.001000,0.001000
1008.326923,-0.035965,0.001000,0.001000,0.001000,0.001000,0.001000
1008.346154,-0.036775,0.001000,0.001000,0.001000,0.001000,0.001000
1008.365385,-0.037565,0.001000,0.001000,0.001000,0.001000,0.001000
1008.384615,-0.038334,0.001000,0.001000,0.001000,0.001000,0.001000
1008.403846,-0.039081,0.001000,0.001000,0.001000,0.001000,0.001000
1008.423077,-0.039807,0.001000,0.001000,0.001000,0.001000,0.001000
1008.442308,-0.040510,0.001000,0.001000,0.001000,0.001000,0.001000
1008.461538,-0.041191,0.001000,0.001000,0.001000,0.001000,0.001000
1008.480769,-0.041849,0.001000,0.001000,0.001000,0.001000,0.001000
1008.500000,-0.042484,0.001000,0.001000,0.001000,0.001000,0.001000
1008.519231,-0.043095,0.001000,0.001000,0.001000,0.001000,0.001000
1008.538462,-0.043681,0.001000,0.001000,0.001000,0.001000,0.001000
1008.557692,-0.044244,0.001000,0.001000,0.001000,0.001000,0.001000
1008.576923,-0.044782,0.001000,0.001000,0.001000,0.001000,0.001000
1008.596154,-0.045294,0.001000,0.001000,0.001000,0.001000,0.001000
1008.615385,-0.045782,0.001000,0.001000,0.001000,0.001000,0.001000
1008.634615,-0.046244,0.001000,0.001000,0.001000,0.001000,0.001000
1008.653846,-0.046680,0.001000,0.001000,0.001000,0.001000,0.001000
1008.673077,-0.047090,0.001000,0.001000,0.001000,0.001000,0.001000
1008.692308,-0.047474,0.001000,0.001000,0.001000,0.001000,0.001000
1008.711538,-0.047831,0.001000,0.001000,0.001000,0.001000,0.001000
1008.730769,-0.048162,0.001000,0.001000,0.001000,0.001000,0.001000
1008.750000,-0.048466,0.001000,0.001000,0.001000,0.001000,0.001000
1008.769231,-0.048743,0.001000,0.001000,0.001000,0.001000,0.001000
1008.788462,-0.048992,0.001000,0.001000,0.001000,0.001000,0.001000
1008.807692,-0.049214,0.001000,0.001000,0.001000,0.001000,0.001000
1008.826923,-0.049409,0.001000,0.001000,0.001000,0.001000,0.001000
1008.846154,-0.049576,0.001000,0.001000,0.001000,0.001000,0.001000
1008.865385,-0.049716,0.001000,0.001000,0.001000,0.001000,0.001000
1008.884615,-0.049828,0.001000,0.001000,0.001000,0.001000,0.001000
1008.903846,-0.049912,0.001000,0.001000,0.001000,0.001000,0.001000
1008.923077,-0.049968,0.001000,0.001000,0.001000,0.001000,0.001000
1008.942308,-0.049996,0.001000,0.001000,0.001000,0.001000,0.001000
1008.961538,-0.049997,0.001000,0.001000,0.001000,0.001000,0.001000
1008.980769,-0.049969,0.001000,0.001000,0.001000,0.001000,0.001000
1009.000000,-0.049914,0.001000,0.001000,0.001000,0.001000,0.001000
1009.019231,-0.049831,0.001000,0.001000,0.001000,0.001000,0.001000
1009.038462,-0.049720,0.001000,0.001000,0.001000,0.001000,0.001000
1009.057692,-0.049581,0.001000,0.001000,0.001000,0.001000,0.001000
1009.076923,-0.049415,0.001000,0.001000,0.001000,0.001000,0.001000
1009.096154,-0.049221,0.001000,0.001000,0.001000,0.001000,0.001000
1009.115385,-0.048999,0.001000,0.001000,0.001000,0.001000,0.001000
1009.134615,-0.048750,0.001000,0.001000,0.001000,0.001000,0.001000
1009.153846,-0.048474,0.001000,0.001000,0.001000,0.001000,0.001000
1009.173077,-0.048171,0.001000,0.001000,0.001000,0.001000,0.001000
1009.192308,-0.047842,0.001000,0.001000,0.001000,0.001000,0.001000
1009.211538,-0.047485,0.001000,0.001000,0.001000,0.001000,0.001000
1009.230769,-0.047102,0.001000,0.001000,0.001000,0.001000,0.001000
1009.250000,-0.046693,0.001000,0.001000,0.001000,0.001000,0.001000
1009.269231,-0.046257,0.001000,0.001000,0.001000,0.001000,0.001000
1009.288462,-0.045796,0.001000,0.001000,0.001000,0.001000,0.001000
1009.307692,-0.045309,0.001000,0.001000,0.001000,0.001000,0.001000
1009.326923,-0.044797,0.001000,0.001000,0.001000,0.001000,0.001000
1009.346154,-0.044260,0.001000,0.001000,0.001000,0.001000,0.001000
1009.365385,-0.043699,0.001000,0.001000,0.001000,0.001000,0.001000
1009.384615,-0.043112,0.001000,0.001000,0.001000,0.001000,0.001000
1009.403846,-0.042502,0.001000,0.001000,0.001000,0.001000,0.001000
1009.423077,-0.041868,0.001000,0.001000,0.001000,0.001000,0.001000
1009.442308,-0.041211,0.001000,0.001000,0.001000,0.001000,0.001000
1009.461538,-0.040531,0.001000,0.001000,0.001000,0.001000,0.001000
1009.480769,-0.039828,0.001000,0.001000,0.001000,0.001000,0.001000
1009.500000,-0.039103,0.001000,0.001000,0.001000,0.001000,0.001000
1009.519231,-0.038356,0.001000,0.001000,0.001000,0.001000,0.001000
1009.538462,-0.037588,0.001000,0.001000,0.001000,0.001000,0.001000
1009.557692,-0.036799,0.001000,0.001000,0.001000,0.001000,0.001000
1009.576923,-0.035989,0.001000,0.001000,0.001000,0.001000,0.001000
1009.596154,-0.035159,0.001000,0.001000,0.001000,0.001000,0.001000
1009.615385,-0.034310,0.001000,0.001000,0.001000,0.001000,0.001000
1009.634615,-0.033441,0.001000,0.001000,0.001000,0.001000,0.001000
1009.653846,-0.032554,0.001000,0.001000,0.001000,0.001000,0.001000
1009.673077,-0.031649,0.001000,0.001000,0.001000,0.001000,0.001000
1009.692308,-0.030726,0.001000,0.001000,0.001000,0.001000,0.001000
1009.711538,-0.029786,0.001000,0.001000,0.001000,0.001000,0.001000
1009.730769,-0.028829,0.001000,0.001000,0.001000,0.001000,0.001000
1009.750000,-0.027856,0.001000,0.001000,0.001000,0.001000,0.001000
1009.769231,-0.026867,0.001000,0.001000,0.001000,0.001000,0.001000
1009.788462,-0.025864,0.001000,0.001000,0.001000,0.001000,0.001000
1009.807692,-0.024846,0.001000,0.001000,0.001000,0.001000,0.001000
1009.826923,-0.023814,0.001000,0.001000,0.001000,0.001000,0.001000
1009.846154,-0.022769,0.001000,0.001000,0.001000,0.001000,0.001000
1009.865385,-0.021712,0.001000,0.001000,0.001000,0.001000,0.001000
1009.884615,-0.020642,0.001000,0.001000,0.001000,0.001000,0.001000
1009.903846,-0.019561,0.001000,0.001000,0.001000,0.001000,0.001000
1009.923077,-0.018468,0.001000,0.001000,0.001000,0.001000,0.001000
1009.942308,-0.017366,0.001000,0.001000,0.001000,0.001000,0.001000
1009.961538,-0.016254,0.001000,0.001000,0.001000,0.001000,0.001000
1009.980769,-0.015132,0.001000,0.001000,0.001000,0.001000,0.001000
1010.000000,-0.014003,0.001000,0.001000,0.001000,0.001000,0.001000
1010.019231,-0.012865,0.001000,0.001000,0.001000,0.001000,0.001000
1010.038462,-0.011720,0.001000,0.001000,0.001000,0.001000,0.001000
1010.057692,-0.010569,0.001000,0.001000,0.001000,0.001000,0.001000
1010.076923,-0.009412,0.001000,0.001000,0.001000,0.001000,0.001000
1010.096154,-0.008249,0.001000,0.001000,0.001000,0.001000,0.001000
1010.115385,-0.007082,0.001000,0.001000,0.001000,0.001000,0.001000
1010.134615,-0.005911,0.001000,0.001000,0.001000,0.001000,0.001000
1010.153846,-0.004737,0.001000,0.001000,0.001000,0.001000,0.001000
1010.173077,-0.003560,0.001000,0.001000,0.001000,0.001000,0.001000
1010.192308,-0.002381,0.001000,0.001000,0.001000,0.001000,0.001000
1010.211538,-0.001201,0.001000,0.001000,0.001000,0.001000,0.001000
1010.230769,-0.000020,0.001000,0.001000,0.001000,0.001000,0.001000
1010.250000,0.001161,0.001000,0.001000,0.001000,0.001000,0.001000
1010.269231,0.002341,0.001000,0.001000,0.001000,0.001000,0.001000
1010.288462,0.003520,0.001000,0.001000,0.001000,0.001000,0.001000
1010.307692,0.004697,0.001000,0.001000,0.001000,0.001000,0.001000
1010.326923,0.005871,0.001000,0.001000,0.001000,0.001000,0.001000
1010.346154,0.007042,0.001000,0.001000,0.001000,0.001000,0.001000
1010.365385,0.008210,0.001000,0.001000,0.001000,0.001000,0.001000
1010.384615,0.009372,0.001000,0.001000,0.001000,0.001000,0.001000
1010.403846,0.010530,0.001000,0.001000,0.001000,0.001000,0.001000
1010.423077,0.011681,0.001000,0.001000,0.001000,0.001000,0.001000
1010.442308,0.012826,0.001000,0.001000,0.001000,0.001000,0.001000
1010.461538,0.013964,0.001000,0.001000,0.001000,0.001000,0.001000
1010.480769,0.015094,0.001000,0.001000,0.001000,0.001000,0.001000
1010.500000,0.016215,0.001000,0.001000,0.001000,0.001000,0.001000
1010.519231,0.017328,0.001000,0.001000,0.001000,0.001000,0.001000
1010.538462,0.018431,0.001000,0.001000,0.001000,0.001000,0.001000
1010.557692,0.019523,0.001000,0.001000,0.001000,0.001000,0.001000
1010.576923,0.020605,0.001000,0.001000,0.001000,0.001000,0.001000
1010.596154,0.021675,0.001000,0.001000,0.001000,0.001000,0.001000
1010.615385,0.022733,0.001000,0.001000,0.001000,0.001000,0.001000
1010.634615,0.023779,0.001000,0.001000,0.001000,0.001000,0.001000
1010.653846,0.024811,0.001000,0.001000,0.001000,0.001000,0.001000
1010.673077,0.025829,0.001000,0.001000,0.001000,0.001000,0.001000
1010.692308,0.026833,0.001000,0.001000,0.001000,0.001000,0.001000
1010.711538,0.027822,0.001000,0.001000,0.001000,0.001000,0.001000
1010.730769,0.028796,0.001000,0.001000,0.001000,0.001000,0.001000
1010.750000,0.029753,0.001000,0.001000,0.001000,0.001000,0.001000
1010.769231,0.030694,0.001000,0.001000,0.001000,0.001000,0.001000
1010.788462,0.031618,0.001000,0.001000,0.001000,0.001000,0.001000
1010.807692,0.032524,0.001000,0.001000,0.001000,0.001000,0.001000
1010.826923,0.033411,0.001000,0.001000,0.001000,0.001000,0.001000
1010.846154,0.034281,0.001000,0.001000,0.001000,0.001000,0.001000
1010.865385,0.035131,0.001000,0.001000,0.001000,0.001000,0.001000
1010.884615,0.035961,0.001000,0.001000,0.001000,0.001000,0.001000
1010.903846,0.036772,0.001000,0.001000,0.001000,0.001000,0.001000
1010.923077,0.037562,0.001000,0.001000,0.001000,0.001000,0.001000
1010.942308,0.038331,0.001000,0.001000,0.001000,0.001000,0.001000
1010.961538,0.039078,0.001000,0.001000,0.001000,0.001000,0.001000
1010.980769,0.039804,0.001000,0.001000,0.001000,0.001000,0.001000
1011.000000,0.040507,0.001000,0.001000,0.001000,0.001000,0.001000
1011.019231,0.041188,0.001000,0.001000,0.001000,0.001000,0.001000
1011.038462,0.041846,0.001000,0.001000,0.001000,0.001000,0.001000
1011.057692,0.042481,0.001000,0.001000,0.001000,0.001000,0.001000
1011.076923,0.043092,0.001000,0.001000,0.001000,0.001000,0.001000
1011.096154,0.043679,0.001000,0.001000,0.001000,0.001000,0.001000
1011.115385,0.044241,0.001000,0.001000,0.001000,0.001000,0.001000
1011.134615,0.044779,0.001000,0.001000,0.001000,0.001000,0.001000
1011.153846,0.045292,0.001000,0.001000,0.001000,0.001000,0.001000
1011.173077,0.045780,0.001000,0.001000,0.001000,0.001000,0.001000
1011.192308,0.046242,0.001000,0.001000,0.001000,0.001000,0.001000
1011.211538,0.046678,0.001000,0.001000,0.001000,0.001000,0.001000
1011.230769,0.047088,0.001000,0.001000,0.001000,0.001000,0.001000
1011.250000,0.047472,0.001000,0.001000,0.001000,0.001000,0.001000
1011.269231,0.047830,0.001000,0.001000,0.001000,0.001000,0.001000
1011.288462,0.048161,0.001000,0.001000,0.001000,0.001000,0.001000
1011.307692,0.048465,0.001000,0.001000,0.001000,0.001000,0.001000
1011.326923,0.048741,0.001000,0.001000,0.001000,0.001000,0.001000
1011.346154,0.048991,0.001000,0.001000,0.001000,0.001000,0.001000
1011.365385,0.049213,0.001000,0.001000,0.001000,0.001000,0.001000
1011.384615,0.049408,0.001000,0.001000,0.001000,0.001000,0.001000
1011.403846,0.049576,0.001000,0.001000,0.001000,0.001000,0.001000
1011.423077,0.049715,0.001000,0.001000,0.001000,0.001000,0.001000
1011.442308,0.049827,0.001000,0.001000,0.001000,0.001000,0.001000
1011.461538,0.049912,0.001000,0.001000,0.001000,0.001000,0.001000
1011.480769,0.049968,0.001000,0.001000,0.001000,0.001000,0.001000
1011.500000,0.049996,0.001000,0.001000,0.001000,0.001000,0.001000
1011.519231,0.049997,0.001000,0.001000,0.001000,0.001000,0.001000
1011.538462,0.049969,0.001000,0.001000,0.001000,0.001000,0.001000
1011.557692,0.049914,0.001000,0.001000,0.001000,0.001000,0.001000
1011.576923,0.049831,0.001000,0.001000,0.001000,0.001000,0.001000
1011.596154,0.049720,0.001000,0.001000,0.001000,0.001000,0.001000
1011.615385,0.049582,0.001000,0.001000,0.001000,0.001000,0.001000
1011.634615,0.049415,0.001000,0.001000,0.001000,0.001000,0.001000
1011.653846,0.049221,0.001000,0.001000,0.001000,0.001000,0.001000
1011.673077,0.049000,0.001000,0.001000,0.001000,0.001000,0.001000
1011.692308,0.048752,0.001000,0.001000,0.001000,0.001000,0.001000
1011.711538,0.048476,0.001000,0.001000,0.001000,0.001000,0.001000
1011.730769,0.048173,0.001000,0.001000,0.001000,0.001000,0.001000
1011.750000,0.047843,0.001000,0.001000,0.001000,0.001000,0.001000
1011.769231,0.047487,0.001000,0.001000,0.001000,0.001000,0.001000
1011.788462,0.047104,0.001000,0.001000,0.001000,0.001000,0.001000
1011.807692,0.046694,0.001000,0.001000,0.001000,0.001000,0.001000
1011.826923,0.046259,0.001000,0.001000,0.001000,0.001000,0.001000
1011.846154,0.045798,0.001000,0.001000,0.001000,0.001000,0.001000
1011.865385,0.045311,0.001000,0.001000,0.001000,0.001000,0.001000
1011.884615,0.044800,0.001000,0.001000,0.001000,0.001000,0.001000
1011.903846,0.044263,0.001000,0.001000,0.001000,0.001000,0.001000
1011.923077,0.043701,0.001000,0.001000,0.001000,0.001000,0.001000
1011.942308,0.043115,0.001000,0.001000,0.001000,0.001000,0.001000
1011.961538,0.042505,0.001000,0.001000,0.001000,0.001000,0.001000
1011.980769,0.041871,0.001000,0.001000,0.001000,0.001000,0.001000
1012.000000,0.041214,0.001000,0.001000,0.001000,0.001000,0.001000
1012.019231,0.040534,0.001000,0.001000,0.001000,0.001000,0.001000
1012.038462,0.039831,0.001000,0.001000,0.001000,0.001000,0.001000
1012.057692,0.039106,0.001000,0.001000,0.001000,0.001000,0.001000
1012.076923,0.038360,0.001000,0.001000,0.001000,0.001000,0.001000
1012.096154,0.037592,0.001000,0.001000,0.001000,0.001000,0.001000
1012.115385,0.036802,0.001000,0.001000,0.001000,0.001000,0.001000
1012.134615,0.035993,0.001000,0.001000,0.001000,0.001000,0.001000
1012.153846,0.035163,0.001000,0.001000,0.001000,0.001000,0.001000
1012.173077,0.034314,0.001000,0.001000,0.001000,0.001000,0.001000
1012.192308,0.033445,0.001000,0.001000,0.001000,0.001000,0.001000
1012.211538,0.032558,0.001000,0.001000,0.001000,0.001000,0.001000
1012.230769,0.031653,0.001000,0.001000,0.001000,0.001000,0.001000
1012.250000,0.030730,0.001000,0.001000,0.001000,0.001000,0.001000
1012.269231,0.029790,0.001000,0.001000,0.001000,0.001000,0.001000
1012.288462,0.028833,0.001000,0.001000,0.001000,0.001000,0.001000
1012.307692,0.027860,0.001000,0.001000,0.001000,0.001000,0.001000
1012.326923,0.026872,0.001000,0.001000,0.001000,0.001000,0.001000
1012.346154,0.025868,0.001000,0.001000,0.001000,0.001000,0.001000
1012.365385,0.024851,0.001000,0.001000,0.001000,0.001000,0.001000
1012.384615,0.023819,0.001000,0.001000,0.001000,0.001000,0.001000
1012.403846,0.022774,0.001000,0.001000,0.001000,0.001000,0.001000
1012.423077,0.021716,0.001000,0.001000,0.001000,0.001000,0.001000
1012.442308,0.020647,0.001000,0.001000,0.001000,0.001000,0.001000
1012.461538,0.019565,0.001000,0.001000,0.001000,0.001000,0.001000
1012.480769,0.018473,0.001000,0.001000,0.001000,0.001000,0.001000
1012.500000,0.017371,0.001000,0.001000,0.001000,0.001000,0.001000
1012.519231,0.016258,0.001000,0.001000,0.001000,0.001000,0.001000
1012.538462,0.015137,0.001000,0.001000,0.001000,0.001000,0.001000
1012.557692,0.014007,0.001000,0.001000,0.001000,0.001000,0.001000
1012.576923,0.012870,0.001000,0.001000,0.001000,0.001000,0.001000
1012.596154,0.011725,0.001000,0.001000,0.001000,0.001000,0.001000
1012.615385,0.010574,0.001000,0.001000,0.001000,0.001000,0.001000
1012.634615,0.009417,0.001000,0.001000,0.001000,0.001000,0.001000
1012.653846,0.008254,0.001000,0.001000,0.001000,0.001000,0.001000
1012.673077,0.007087,0.001000,0.001000,0.001000,0.001000,0.001000
1012.692308,0.005916,0.001000,0.001000,0.001000,0.001000,0.001000
1012.711538,0.004742,0.001000,0.001000,0.001000,0.001000,0.001000
1012.730769,0.003565,0.001000,0.001000,0.001000,0.001000,0.001000
1012.750000,0.002386,0.001000,0.001000,0.001000,0.001000,0.001000
1012.769231,0.001206,0.001000,0.001000,0.001000,0.001000,0.001000
1012.788462,0.000025,0.001000,0.001000,0.001000,0.001000,0.001000
1012.807692,-0.001156,0.001000,0.001000,0.001000,0.001000,0.001000
1012.826923,-0.002336,0.001000,0.001000,0.001000,0.001000,0.001000
1012.846154,-0.003515,0.001000,0.001000,0.001000,0.001000,0.001000
1012.865385,-0.004692,0.001000,0.001000,0.001000,0.001000,0.001000
1012.884615,-0.005866,0.001000,0.001000,0.001000,0.001000,0.001000
1012.903846,-0.007037,0.001000,0.001000,0.001000,0.001000,0.001000
1012.923077,-0.008205,0.001000,0.001000,0.001000,0.001000,0.001000
1012.942308,-0.009367,0.001000,0.001000,0.001000,0.001000,0.001000
1012.961538,-0.010525,0.001000,0.001000,0.001000,0.001000,0.001000
1012.980769,-0.011676,0.001000,0.001000,0.001000,0.001000,0.001000
1013.000000,-0.012821,0.001000,0.001000,0.001000,0.001000,0.001000
1013.019231,-0.013959,0.001000,0.001000,0.001000,0.001000,0.001000
1013.038462,-0.015089,0.001000,0.001000,0.001000,0.001000,0.001000
1013.057692,-0.016211,0.001000,0.001000,0.001000,0.001000,0.001000
1013.076923,-0.017323,0.001000,0.001000,0.001000,0.001000,0.001000
1013.096154,-0.018426,0.001000,0.001000,0.001000,0.001000,0.001000
1013.115385,-0.019519,0.001000,0.001000,0.001000,0.001000,0.001000
1013.134615,-0.020601,0.001000,0.001000,0.001000,0.001000,0.001000
1013.153846,-0.021671,0.001000,0.001000,0.001000,0.001000,0.001000
1013.173077,-0.022729,0.001000,0.001000,0.001000,0.001000,0.001000
1013.192308,-0.023774,0.001000,0.001000,0.001000,0.001000,0.001000
1013.211538,-0.024807,0.001000,0.001000,0.001000,0.001000,0.001000
1013.230769,-0.025825,0.001000,0.001000,0.001000,0.001000,0.001000
1013.250000,-0.026829,0.001000,0.001000,0.001000,0.001000,0.001000
1013.269231,-0.027818,0.001000,0.001000,0.001000,0.001000,0.001000
1013.288462,-0.028792,0.001000,0.001000,0.001000,0.001000,0.001000
1013.307692,-0.029749,0.001000,0.001000,0.001000,0.001000,0.001000
1013.326923,-0.030690,0.001000,0.001000,0.001000,0.001000,0.001000
1013.346154,-0.031614,0.001000,0.001000,0.001000,0.001000,0.001000
1013.365385,-0.032520,0.001000,0.001000,0.001000,0.001000,0.001000
1013.384615,-0.033408,0.001000,0.001000,0.001000,0.001000,0.001000
1013.403846,-0.034277,0.001000,0.001000,0.001000,0.001000,0.001000
1013.423077,-0.035127,0.001000,0.001000,0.001000,0.001000,0.001000
1013.442308,-0.035958,0.001000,0.001000,0.001000,0.001000,0.001000
1013.461538,-0.036768,0.001000,0.001000,0.001000,0.001000,0.001000
1013.480769,-0.037558,0.001000,0.001000,0.001000,0.001000,0.001000
1013.500000,-0.038327,0.001000,0.001000,0.001000,0.001000,0.001000
1013.519231,-0.039075,0.001000,0.001000,0.001000,0.001000,0.001000
1013.538462,-0.039801,0.001000,0.001000,0.001000,0.001000,0.001000
1013.557692,-0.040504,0.001000,0.001000,0.001000,0.001000,0.001000
1013.576923,-0.041186,0.001000,0.001000,0.001000,0.001000,0.001000
1013.596154,-0.041844,0.001000,0.001000,0.001000,0.001000,0.001000
1013.615385,-0.042478,0.001000,0.001000,0.001000,0.001000,0.001000
1013.634615,-0.043089,0.001000,0.001000,0.001000,0.001000,0.001000
1013.653846,-0.043676,0.001000,0.001000,0.001000,0.001000,0.001000
1013.673077,-0.044239,0.001000,0.001000,0.001000,0.001000,0.001000
1013.692308,-0.044777,0.001000,0.001000,0.001000,0.001000,0.001000
1013.711538,-0.045290,0.001000,0.001000,0.001000,0.001000,0.001000
1013.730769,-0.045778,0.001000,0.001000,0.001000,0.001000,0.001000
1013.750000,-0.046240,0.001000,0.001000,0.001000,0.001000,0.001000
1013.769231,-0.046676,0.001000,0.001000,0.001000,0.001000,0.001000
1013.788462,-0.047087,0.001000,0.001000,0.001000,0.001000,0.001000
1013.807692,-0.047471,0.001000,0.001000,0.001000,0.001000,0.001000
1013.826923,-0.047828,0.001000,0.001000,0.001000,0.001000,0.001000
1013.846154,-0.048159,0.001000,0.001000,0.001000,0.001000,0.001000
1013.865385,-0.048463,0.001000,0.001000,0.001000,0.001000,0.001000
1013.884615,-0.048740,0.001000,0.001000,0.001000,0.001000,0.001000
1013.903846,-0.048990,0.001000,0.001000,0.001000,0.001000,0.001000
1013.923077,-0.049213,0.001000,0.001000,0.001000,0.001000,0.001000
1013.942308,-0.049408,0.001000,0.001000,0.001000,0.001000,0.001000
1013.961538,-0.049575,0.001000,0.001000,0.001000,0.001000,0.001000
1013.980769,-0.049715,0.001000,0.001000,0.001000,0.001000,0.001000
1014.000000,-0.049827,0.001000,0.001000,0.001000,0.001000,0.001000
1014.019231,-0.049911,0.001000,0.001000,0.001000,0.001000,0.001000
1014.038462,-0.049968,0.001000,0.001000,0.001000,0.001000,0.001000
1014.057692,-0.049996,0.001000,0.001000,0.001000,0.001000,0.001000
1014.076923,-0.049997,0.001000,0.001000,0.001000,0.001000,0.001000
1014.096154,-0.049970,0.001000,0.001000,0.001000,0.001000,0.001000
1014.115385,-0.049914,0.001000,0.001000,0.001000,0.001000,0.001000
1014.134615,-0.049832,0.001000,0.001000,0.001000,0.001000,0.001000
1014.153846,-0.049721,0.001000,0.001000,0.001000,0.001000,0.001000
1014.173077,-0.049582,0.001000,0.001000,0.001000,0.001000,0.001000
1014.192308,-0.049416,0.001000,0.001000,0.001000,0.001000,0.001000
1014.211538,-0.049222,0.001000,0.001000,0.001000,0.001000,0.001000
1014.230769,-0.049001,0.001000,0.001000,0.001000,0.001000,0.001000
1014.250000,-0.048753,0.001000,0.001000,0.001000,0.001000,0.001000
1014.269231,-0.048477,0.001000,0.001000,0.001000,0.001000,0.001000
1014.288462,-0.048174,0.001000,0.001000,0.001000,0.001000,0.001000
1014.307692,-0.047844,0.001000,0.001000,0.001000,0.001000,0.001000
1014.326923,-0.047488,0.001000,0.001000,0.001000,0.001000,0.001000
1014.346154,-0.047105,0.001000,0.001000,0.001000,0.001000,0.001000
1014.365385,-0.046696,0.001000,0.001000,0.001000,0.001000,0.001000
1014.384615,-0.046261,0.001000,0.001000,0.001000,0.001000,0.001000
1014.403846,-0.045800,0.001000,0.001000,0.001000,0.001000,0.001000
1014.423077,-0.045314,0.001000,0.001000,0.001000,0.001000,0.001000
1014.442308,-0.044802,0.001000,0.001000,0.001000,0.001000,0.001000
1014.461538,-0.044265,0.001000,0.001000,0.001000,0.001000,0.001000
1014.480769,-0.043703,0.001000,0.001000,0.001000,0.001000,0.001000
1014.500000,-0.043118,0.001000,0.001000,0.001000,0.001000,0.001000
1014.519231,-0.042508,0.001000,0.001000,0.001000,0.001000,0.001000
1014.538462,-0.041874,0.001000,0.001000,0.001000,0.001000,0.001000
1014.557692,-0.041217,0.001000,0.001000,0.001000,0.001000,0.001000
1014.576923,-0.040537,0.001000,0.001000,0.001000,0.001000,0.001000
1014.596154,-0.039834,0.001000,0.001000,0.001000,0.001000,0.001000
1014.615385,-0.039110,0.001000,0.001000,0.001000,0.001000,0.001000
1014.634615,-0.038363,0.001000,0.001000,0.001000,0.001000,0.001000
1014.653846,-0.037595,0.001000,0.001000,0.001000,0.001000,0.001000
1014.673077,-0.036806,0.001000,0.001000,0.001000,0.001000,0.001000
1014.692308,-0.035996,0.001000,0.001000,0.001000,0.001000,0.001000
1014.711538,-0.035167,0.001000,0.001000,0.001000,0.001000,0.001000
1014.730769,-0.034317,0.001000,0.001000,0.001000,0.001000,0.001000
1014.750000,-0.033449,0.001000,0.001000,0.001000,0.001000,0.001000
1014.769231,-0.032562,0.001000,0.001000,0.001000,0.001000,0.001000
1014.788462,-0.031657,0.001000,0.001000,0.001000,0.001000,0.001000
1014.807692,-0.030734,0.001000,0.001000,0.001000,0.001000,0.001000
1014.826923,-0.029794,0.001000,0.001000,0.001000,0.001000,0.001000
1014.846154,-0.028837,0.001000,0.001000,0.001000,0.001000,0.001000
1014.865385,-0.027864,0.001000,0.001000,0.001000,0.001000,0.001000
1014.884615,-0.026876,0.001000,0.001000,0.001000,0.001000,0.001000
1014.903846,-0.025873,0.001000,0.001000,0.001000,0.001000,0.001000
1014.923077,-0.024855,0.001000,0.001000,0.001000,0.001000,0.001000
1014.942308,-0.023823,0.001000,0.001000,0.001000,0.001000,0.001000
1014.961538,-0.022778,0.001000,0.001000,0.001000,0.001000,0.001000
1014.980769,-0.021721,0.001000,0.001000,0.001000,0.001000,0.001000
1015.000000,-0.020651,0.001000,0.001000,0.001000,0.001000,0.001000
1015.019231,-0.019570,0.001000,0.001000,0.001000,0.001000,0.001000
1015.038462,-0.018478,0.001000,0.001000,0.001000,0.001000,0.001000
1015.057692,-0.017375,0.001000,0.001000,0.001000,0.001000,0.001000
1015.076923,-0.016263,0.001000,0.001000,0.001000,0.001000,0.001000
1015.096154,-0.015142,0.001000,0.001000,0.001000,0.001000,0.001000
1015.115385,-0.014012,0.001000,0.001000,0.001000,0.001000,0.001000
1015.134615,-0.012875,0.001000,0.001000,0.001000,0.001000,0.001000
1015.153846,-0.011730,0.001000,0.001000,0.001000,0.001000,0.001000
1015.173077,-0.010579,0.001000,0.001000,0.001000,0.001000,0.001000
1015.192308,-0.009422,0.001000,0.001000,0.001000,0.001000,0.001000
1015.211538,-0.008259,0.001000,0.001000,0.001000,0.001000,0.001000
1015.230769,-0.007092,0.001000,0.001000,0.001000,0.001000,0.001000
1015.250000,-0.005921,0.001000,0.001000,0.001000,0.001000,0.001000
1015.269231,-0.004747,0.001000,0.001000,0.001000,0.001000,0.001000
1015.288462,-0.003570,0.001000,0.001000,0.001000,0.001000,0.001000
1015.307692,-0.002391,0.001000,0.001000,0.001000,0.001000,0.001000
1015.326923,-0.001211,0.001000,0.001000,0.001000,0.001000,0.001000
1015.346154,-0.000030,0.001000,0.001000,0.001000,0.001000,0.001000
1015.365385,0.001151,0.001000,0.001000,0.001000,0.001000,0.001000
1015.384615,0.002331,0.001000,0.001000,0.001000,0.001000,0.001000
1015.403846,0.003510,0.001000,0.001000,0.001000,0.001000,0.001000
1015.423077,0.004687,0.001000,0.001000,0.001000,0.001000,0.001000
1015.442308,0.005861,0.001000,0.001000,0.001000,0.001000,0.001000
1015.461538,0.007032,0.001000,0.001000,0.001000,0.001000,0.001000
1015.480769,0.008200,0.001000,0.001000,0.001000,0.001000,0.001000
1015.500000,0.009362,0.001000,0.001000,0.001000,0.001000,0.001000
1015.519231,0.010520,0.001000,0.001000,0.001000,0.001000,0.001000
1015.538462,0.011671,0.001000,0.001000,0.001000,0.001000,0.001000
1015.557692,0.012816,0.001000,0.001000,0.001000,0.001000,0.001000
1015.576923,0.013954,0.001000,0.001000,0.001000,0.001000,0.001000
1015.596154,0.015084,0.001000,0.001000,0.001000,0.001000,0.001000
1015.615385,0.016206,0.001000,0.001000,0.001000,0.001000,0.001000
1015.634615,0.017318,0.001000,0.001000,0.001000,0.001000,0.001000
1015.653846,0.018421,0.001000,0.001000,0.001000,0.001000,0.001000
1015.673077,0.019514,0.001000,0.001000,0.001000,0.001000,0.001000
1015.692308,0.020596,0.001000,0.001000,0.001000,0.001000,0.001000
1015.711538,0.021666,0.001000,0.001000,0.001000,0.001000,0.001000
1015.730769,0.022724,0.001000,0.001000,0.001000,0.001000,0.001000
1015.750000,0.023770,0.001000,0.001000,0.001000,0.001000,0.001000
1015.769231,0.024802,0.001000,0.001000,0.001000,0.001000,0.001000
1015.788462,0.025821,0.001000,0.001000,0.001000,0.001000,0.001000
1015.807692,0.026825,0.001000,0.001000,0.001000,0.001000,0.001000
1015.826923,0.027814,0.001000,0.001000,0.001000,0.001000,0.001000
1015.846154,0.028787,0.001000,0.001000,0.001000,0.001000,0.001000
1015.865385,0.029745,0.001000,0.001000,0.001000,0.001000,0.001000
1015.884615,0.030686,0.001000,0.001000,0.001000,0.001000,0.001000
1015.903846,0.031610,0.001000,0.001000,0.001000,0.001000,0.001000
1015.923077,0.032516,0.001000,0.001000,0.001000,0.001000,0.001000
1015.942308,0.033404,0.001000,0.001000,0.001000,0.001000,0.001000
1015.961538,0.034273,0.001000,0.001000,0.001000,0.001000,0.001000
1015.980769,0.035124,0.001000,0.001000,0.001000,0.001000,0.001000
1016.000000,0.035954,0.001000,0.001000,0.001000,0.001000,0.001000
1016.019231,0.036765,0.001000,0.001000,0.001000,0.001000,0.001000
1016.038462,0.037555,0.001000,0.001000,0.001000,0.001000,0.001000
1016.057692,0.038324,0.001000,0.001000,0.001000,0.001000,0.001000
1016.076923,0.039072,0.001000,0.001000,0.001000,0.001000,0.001000
1016.096154,0.039798,0.001000,0.001000,0.001000,0.001000,0.001000
1016.115385,0.040502,0.001000,0.001000,0.001000,0.001000,0.001000
1016.134615,0.041183,0.001000,0.001000,0.001000,0.001000,0.001000
1016.153846,0.041841,0.001000,0.001000,0.001000,0.001000,0.001000
1016.173077,0.042476,0.001000,0.001000,0.001000,0.001000,0.001000
1016.192308,0.043087,0.001000,0.001000,0.001000,0.001000,0.001000
1016.211538,0.043674,0.001000,0.001000,0.001000,0.001000,0.001000
1016.230769,0.044237,0.001000,0.001000,0.001000,0.001000,0.001000
1016.250000,0.044775,0.001000,0.001000,0.001000,0.001000,0.001000
1016.269231,0.045288,0.001000,0.001000,0.001000,0.001000,0.001000
1016.288462,0.045776,0.001000,0.001000,0.001000,0.001000,0.001000
1016.307692,0.046238,0.001000,0.001000,0.001000,0.001000,0.001000
1016.326923,0.046675,0.001000,0.001000,0.001000,0.001000,0.001000
1016.346154,0.047085,0.001000,0.001000,0.001000,0.001000,0.001000
1016.365385,0.047469,0.001000,0.001000,0.001000,0.001000,0.001000
1016.384615,0.047827,0.001000,0.001000,0.001000,0.001000,0.001000
1016.403846,0.048158,0.001000,0.001000,0.001000,0.001000,0.001000
1016.423077,0.048462,0.001000,0.001000,0.001000,0.001000,0.001000
1016.442308,0.048739,0.001000,0.001000,0.001000,0.001000,0.001000
1016.461538,0.048989,0.001000,0.001000,0.001000,0.001000,0.001000
1016.480769,0.049212,0.001000,0.001000,0.001000,0.001000,0.001000
1016.500000,0.049407,0.001000,0.001000,0.001000,0.001000,0.001000
1016.519231,0.049574,0.001000,0.001000,0.001000,0.001000,0.001000
1016.538462,0.049714,0.001000,0.001000,0.001000,0.001000,0.001000
1016.557692,0.049827,0.001000,0.001000,0.001000,0.001000,0.001000
1016.576923,0.049911,0.001000,0.001000,0.001000,0.001000,0.001000
1016.596154,0.049967,0.001000,0.001000,0.001000,0.001000,0.001000
1016.615385,0.049996,0.001000,0.001000,0.001000,0.001000,0.001000
1016.634615,0.049997,0.001000,0.001000,0.001000,0.001000,0.001000
1016.653846,0.049970,0.001000,0.001000,0.001000,0.001000,0.001000
1016.673077,0.049915,0.001000,0.001000,0.001000,0.001000,0.001000
1016.692308,0.049832,0.001000,0.001000,0.001000,0.001000,0.001000
1016.711538,0.049721,0.001000,0.001000,0.001000,0.001000,0.001000
1016.730769,0.049583,0.001000,0.001000,0.001000,0.001000,0.001000
1016.750000,0.049417,0.001000,0.001000,0.001000,0.001000,0.001000
1016.769231,0.049223,0.001000,0.001000,0.001000,0.001000,0.001000
1016.788462,0.049002,0.001000,0.001000,0.001000,0.001000,0.001000
1016.807692,0.048754,0.001000,0.001000,0.001000,0.001000,0.001000
1016.826923,0.048478,0.001000,0.001000,0.001000,0.001000,0.001000
1016.846154,0.048175,0.001000,0.001000,0.001000,0.001000,0.001000
1016.865385,0.047846,0.001000,0.001000,0.001000,0.001000,0.001000
1016.884615,0.047490,0.001000,0.001000,0.001000,0.001000,0.001000
1016.903846,0.047107,0.001000,0.001000,0.001000,0.001000,0.001000
1016.923077,0.046698,0.001000,0.001000,0.001000,0.001000,0.001000
1016.942308,0.046263,0.001000,0.001000,0.001000,0.001000,0.001000
1016.961538,0.045802,0.001000,0.001000,0.001000,0.001000,0.001000
1016.980769,0.045316,0.001000,0.001000,0.001000,0.001000,0.001000
1017.000000,0.044804,0.001000,0.001000,0.001000,0.001000,0.001000
1017.019231,0.044267,0.001000,0.001000,0.001000,0.001000,0.001000
1017.038462,0.043706,0.001000,0.001000,0.001000,0.001000,0.001000
1017.057692,0.043120,0.001000,0.001000,0.001000,0.001000,0.001000
1017.076923,0.042510,0.001000,0.001000,0.001000,0.001000,0.001000
1017.096154,0.041877,0.001000,0.001000,0.001000,0.001000,0.001000
1017.115385,0.041220,0.001000,0.001000,0.001000,0.001000,0.001000
1017.134615,0.040540,0.001000,0.001000,0.001000,0.001000,0.001000
1017.153846,0.039837,0.001000,0.001000,0.001000,0.001000,0.001000
1017.173077,0.039113,0.001000,0.001000,0.001000,0.001000,0.001000
1017.192308,0.038366,0.001000,0.001000,0.001000,0.001000,0.001000
1017.211538,0.037598,0.001000,0.001000,0.001000,0.001000,0.001000
1017.230769,0.036809,0.001000,0.001000,0.001000,0.001000,0.001000
1017.250000,0.036000,0.001000,0.001000,0.001000,0.001000,0.001000
1017.269231,0.035170,0.001000,0.001000,0.001000,0.001000,0.001000
1017.288462,0.034321,0.001000,0.001000,0.001000,0.001000,0.001000
1017.307692,0.033453,0.001000,0.001000,0.001000,0.001000,0.001000
1017.326923,0.032566,0.001000,0.001000,0.001000,0.001000,0.001000
1017.346154,0.031660,0.001000,0.001000,0.001000,0.001000,0.001000
1017.365385,0.030738,0.001000,0.001000,0.001000,0.001000,0.001000
1017.384615,0.029798,0.001000,0.001000,0.001000,0.001000,0.001000
1017.403846,0.028841,0.001000,0.001000,0.001000,0.001000,0.001000
1017.423077,0.027868,0.001000,0.001000,0.001000,0.001000,0.001000
1017.442308,0.026880,0.001000,0.001000,0.001000,0.001000,0.001000
1017.461538,0.025877,0.001000,0.001000,0.001000,0.001000,0.001000
1017.480769,0.024859,0.001000,0.001000,0.001000,0.001000,0.001000
1017.500000,0.023828,0.001000,0.001000,0.001000,0.001000,0.001000
1017.519231,0.022783,0.001000,0.001000,0.001000,0.001000,0.001000
1017.538462,0.021725,0.001000,0.001000,0.001000,0.001000,0.001000
1017.557692,0.020656,0.001000,0.001000,0.001000,0.001000,0.001000
1017.576923,0.019575,0.001000,0.001000,0.001000,0.001000,0.001000
1017.596154,0.018482,0.001000,0.001000,0.001000,0.001000,0.001000
1017.615385,0.017380,0.001000,0.001000,0.001000,0.001000,0.001000
1017.634615,0.016268,0.001000,0.001000,0.001000,0.001000,0.001000
1017.653846,0.015147,0.001000,0.001000,0.001000,0.001000,0.001000
1017.673077,0.014017,0.001000,0.001000,0.001000,0.001000,0.001000
1017.692308,0.012880,0.001000,0.001000,0.001000,0.001000,0.001000
1017.711538,0.011735,0.001000,0.001000,0.001000,0.001000,0.001000
1017.730769,0.010584,0.001000,0.001000,0.001000,0.001000,0.001000
1017.750000,0.009427,0.001000,0.001000,0.001000,0.001000,0.001000
1017.769231,0.008264,0.001000,0.001000,0.001000,0.001000,0.001000
1017.788462,0.007097,0.001000,0.001000,0.001000,0.001000,0.001000
1017.807692,0.005926,0.001000,0.001000,0.001000,0.001000,0.001000
1017.826923,0.004752,0.001000,0.001000,0.001000,0.001000,0.001000
1017.846154,0.003575,0.001000,0.001000,0.001000,0.001000,0.001000
1017.865385,0.002396,0.001000,0.001000,0.001000,0.001000,0.001000
1017.884615,0.001216,0.001000,0.001000,0.001000,0.001000,0.001000
1017.903846,0.000035,0.001000,0.001000,0.001000,0.001000,0.001000
1017.923077,-0.001146,0.001000,0.001000,0.001000,0.001000,0.001000
1017.942308,-0.002326,0.001000,0.001000,0.001000,0.001000,0.001000
1017.961538,-0.003505,0.001000,0.001000,0.001000,0.001000,0.001000
1017.980769,-0.004682,0.001000,0.001000,0.001000,0.001000,0.001000
1018.000000,-0.005856,0.001000,0.001000,0.001000,0.001000,0.001000
1018.019231,-0.007027,0.001000,0.001000,0.001000,0.001000,0.001000
1018.038462,-0.008195,0.001000,0.001000,0.001000,0.001000,0.001000
1018.057692,-0.009357,0.001000,0.001000,0.001000,0.001000,0.001000
1018.076923,-0.010515,0.001000,0.001000,0.001000,0.001000,0.001000
1018.096154,-0.011666,0.001000,0.001000,0.001000,0.001000,0.001000
1018.115385,-0.012811,0.001000,0.001000,0.001000,0.001000,0.001000
1018.134615,-0.013949,0.001000,0.001000,0.001000,0.001000,0.001000
1018.153846,-0.015079,0.001000,0.001000,0.001000,0.001000,0.001000
1018.173077,-0.016201,0.001000,0.001000,0.001000,0.001000,0.001000
1018.192308,-0.017314,0.001000,0.001000,0.001000,0.001000,0.001000
1018.211538,-0.018417,0.001000,0.001000,0.001000,0.001000,0.001000
1018.230769,-0.019509,0.001000,0.001000,0.001000,0.001000,0.001000
1018.250000,-0.020591,0.001000,0.001000,0.001000,0.001000,0.001000
1018.269231,-0.021662,0.001000,0.001000,0.001000,0.001000,0.001000
1018.288462,-0.022720,0.001000,0.001000,0.001000,0.001000,0.001000
1018.307692,-0.023766,0.001000,0.001000,0.001000,0.001000,0.001000
1018.326923,-0.024798,0.001000,0.001000,0.001000,0.001000,0.001000
1018.346154,-0.025816,0.001000,0.001000,0.001000,0.001000,0.001000
1018.365385,-0.026821,0.001000,0.001000,0.001000,0.001000,0.001000
1018.384615,-0.027810,0.001000,0.001000,0.001000,0.001000,0.001000
1018.403846,-0.028783,0.001000,0.001000,0.001000,0.001000,0.001000
1018.423077,-0.029741,0.001000,0.001000,0.001000,0.001000,0.001000
1018.442308,-0.030682,0.001000,0.001000,0.001000,0.001000,0.001000
1018.461538,-0.031606,0.001000,0.001000,0.001000,0.001000,0.001000
1018.480769,-0.032512,0.001000,0.001000,0.001000,0.001000,0.001000
1018.500000,-0.033400,0.001000,0.001000,0.001000,0.001000,0.001000
1018.519231,-0.034270,0.001000,0.001000,0.001000,0.001000,0.001000
1018.538462,-0.035120,0.001000,0.001000,0.001000,0.001000,0.001000
1018.557692,-0.035951,0.001000,0.001000,0.001000,0.001000,0.001000
1018.576923,-0.036761,0.001000,0.001000,0.001000,0.001000,0.001000
1018.596154,-0.037552,0.001000,0.001000,0.001000,0.001000,0.001000
1018.615385,-0.038321,0.001000,0.001000,0.001000,0.001000,0.001000
1018.634615,-0.039069,0.001000,0.001000,0.001000,0.001000,0.001000
1018.653846,-0.039795,0.001000,0.001000,0.001000,0.001000,0.001000
1018.673077,-0.040499,0.001000,0.001000,0.001000,0.001000,0.001000
1018.692308,-0.041180,0.001000,0.001000,0.001000,0.001000,0.001000
1018.711538,-0.041838,0.001000,0.001000,0.001000,0.001000,0.001000
1018.730769,-0.042473,0.001000,0.001000,0.001000,0.001000,0.001000
1018.750000,-0.043084,0.001000,0.001000,0.001000,0.001000,0.001000
1018.769231,-0.043672,0.001000,0.001000,0.001000,0.001000,0.001000
1018.788462,-0.044234,0.001000,0.001000,0.001000,0.001000,0.001000
1018.807692,-0.044773,0.001000,0.001000,0.001000,0.001000,0.001000
1018.826923,-0.045286,0.001000,0.001000,0.001000,0.001000,0.001000
1018.846154,-0.045774,0.001000,0.001000,0.001000,0.001000,0.001000
1018.865385,-0.046236,0.001000,0.001000,0.001000,0.001000,0.001000
1018.884615,-0.046673,0.001000,0.001000,0.001000,0.001000,0.001000
1018.903846,-0.047083,0.001000,0.001000,0.001000,0.001000,0.001000
1018.923077,-0.047468,0.001000,0.001000,0.001000,0.001000,0.001000
1018.942308,-0.047825,0.001000,0.001000,0.001000,0.001000,0.001000
1018.961538,-0.048157,0.001000,0.001000,0.001000,0.001000,0.001000
1018.980769,-0.048461,0.001000,0.001000,0.001000,0.001000,0.001000
1019.000000,-0.048738,0.001000,0.001000,0.001000,0.001000,0.001000
1019.019231,-0.048988,0.001000,0.001000,0.001000,0.001000,0.001000
1019.038462,-0.049211,0.001000,0.001000,0.001000,0.001000,0.001000
1019.057692,-0.049406,0.001000,0.001000,0.001000,0.001000,0.001000
1019.076923,-0.049574,0.001000,0.001000,0.001000,0.001000,0.001000
1019.096154,-0.049714,0.001000,0.001000,0.001000,0.001000,0.001000
1019.115385,-0.049826,0.001000,0.001000,0.001000,0.001000,0.001000
1019.134615,-0.049911,0.001000,0.001000,0.001000,0.001000,0.001000
1019.153846,-0.049967,0.001000,0.001000,0.001000,0.001000,0.001000
1019.173077,-0.049996,0.001000,0.001000,0.001000,0.001000,0.001000
1019.192308,-0.049997,0.001000,0.001000,0.001000,0.001000,0.001000
1019.211538,-0.049970,0.001000,0.001000,0.001000,0.001000,0.001000
1019.230769,-0.049915,0.001000,0.001000,0.001000,0.001000,0.001000
1019.250000,-0.049832,0.001000,0.001000,0.001000,0.001000,0.001000
1019.269231,-0.049722,0.001000,0.001000,0.001000,0.001000,0.001000
1019.288462,-0.049584,0.001000,0.001000,0.001000,0.001000,0.001000
1019.307692,-0.049418,0.001000,0.001000,0.001000,0.001000,0.001000
1019.326923,-0.049224,0.001000,0.001000,0.001000,0.001000,0.001000
1019.346154,-0.049003,0.001000,0.001000,0.001000,0.001000,0.001000
1019.365385,-0.048755,0.001000,0.001000,0.001000,0.001000,0.001000
1019.384615,-0.048479,0.001000,0.001000,0.001000,0.001000,0.001000
1019.403846,-0.048177,0.001000,0.001000,0.001000,0.001000,0.001000
1019.423077,-0.047847,0.001000,0.001000,0.001000,0.001000,0.001000
1019.442308,-0.047491,0.001000,0.001000,0.001000,0.001000,0.001000
1019.461538,-0.047109,0.001000,0.001000,0.001000,0.001000,0.001000
1019.480769,-0.046700,0.001000,0.001000,0.001000,0.001000,0.001000
1019.500000,-0.046265,0.001000,0.001000,0.001000,0.001000,0.001000
1019.519231,-0.045804,0.001000,0.001000,0.001000,0.001000,0.001000
1019.538462,-0.045318,0.001000,0.001000,0.001000,0.001000,0.001000
1019.557692,-0.044806,0.001000,0.001000,0.001000,0.001000,0.001000
1019.576923,-0.044270,0.001000,0.001000,0.001000,0.001000,0.001000
1019.596154,-0.043708,0.001000,0.001000,0.001000,0.001000,0.001000
1019.615385,-0.043123,0.001000,0.001000,0.001000,0.001000,0.001000
1019.634615,-0.042513,0.001000,0.001000,0.001000,0.001000,0.001000
1019.653846,-0.041880,0.001000,0.001000,0.001000,0.001000,0.001000
1019.673077,-0.041223,0.001000,0.001000,0.001000,0.001000,0.001000
1019.692308,-0.040543,0.001000,0.001000,0.001000,0.001000,0.001000
1019.711538,-0.039840,0.001000,0.001000,0.001000,0.001000,0.001000
1019.730769,-0.039116,0.001000,0.001000,0.001000,0.001000,0.001000
1019.750000,-0.038369,0.001000,0.001000,0.001000,0.001000,0.001000
1019.769231,-0.037601,0.001000,0.001000,0.001000,0.001000,0.001000
1019.788462,-0.036813,0.001000,0.001000,0.001000,0.001000,0.001000
1019.807692,-0.036003,0.001000,0.001000,0.001000,0.001000,0.001000
1019.826923,-0.035174,0.001000,0.001000,0.001000,0.001000,0.001000
1019.846154,-0.034325,0.001000,0.001000,0.001000,0.001000,0.001000
1019.865385,-0.033456,0.001000,0.001000,0.001000,0.001000,0.001000
1019.884615,-0.032569,0.001000,0.001000,0.001000,0.001000,0.001000
1019.903846,-0.031664,0.001000,0.001000,0.001000,0.001000,0.001000
1019.923077,-0.030742,0.001000,0.001000,0.001000,0.001000,0.001000
1019.942308,-0.029802,0.001000,0.001000,0.001000,0.001000,0.001000
1019.961538,-0.028845,0.001000,0.001000,0.001000,0.001000,0.001000
1019.980769,-0.027873,0.001000,0.001000,0.001000,0.001000,0.001000
1020.000000,-0.026884,0.001000,0.001000,0.001000,0.001000,0.001000
1020.019231,-0.025881,0.001000,0.001000,0.001000,0.001000,0.001000
1020.038462,-0.024864,0.001000,0.001000,0.001000,0.001000,0.001000
1020.057692,-0.023832,0.001000,0.001000,0.001000,0.001000,0.001000
1020.076923,-0.022787,0.001000,0.001000,0.001000,0.001000,0.001000
1020.096154,-0.021730,0.001000,0.001000,0.001000,0.001000,0.001000
1020.115385,-0.020660,0.001000,0.001000,0.001000,0.001000,0.001000
1020.134615,-0.019579,0.001000,0.001000,0.001000,0.001000,0.001000
1020.153846,-0.018487,0.001000,0.001000,0.001000,0.001000,0.001000
1020.173077,-0.017385,0.001000,0.001000,0.001000,0.001000,0.001000
1020.192308,-0.016273,0.001000,0.001000,0.001000,0.001000,0.001000
1020.211538,-0.015151,0.001000,0.001000,0.001000,0.001000,0.001000
1020.230769,-0.014022,0.001000,0.001000,0.001000,0.001000,0.001000
1020.250000,-0.012884,0.001000,0.001000,0.001000,0.001000,0.001000
1020.269231,-0.011740,0.001000,0.001000,0.001000,0.001000,0.001000
1020.288462,-0.010589,0.001000,0.001000,0.001000,0.001000,0.001000
1020.307692,-0.009432,0.001000,0.001000,0.001000,0.001000,0.001000
1020.326923,-0.008269,0.001000,0.001000,0.001000,0.001000,0.001000
1020.346154,-0.007102,0.001000,0.001000,0.001000,0.001000,0.001000
1020.365385,-0.005931,0.001000,0.001000,0.001000,0.001000,0.001000
1020.384615,-0.004757,0.001000,0.001000,0.001000,0.001000,0.001000
1020.403846,-0.003580,0.001000,0.001000,0.001000,0.001000,0.001000
1020.423077,-0.002401,0.001000,0.001000,0.001000,0.001000,0.001000
1020.442308,-0.001221,0.001000,0.001000,0.001000,0.001000,0.001000
1020.461538,-0.000040,0.001000,0.001000,0.001000,0.001000,0.001000
1020.480769,0.001141,0.001000,0.001000,0.001000,0.001000,0.001000
1020.500000,0.002321,0.001000,0.001000,0.001000,0.001000,0.001000
1020.519231,0.003500,0.001000,0.001000,0.001000,0.001000,0.001000
1020.538462,0.004677,0.001000,0.001000,0.001000,0.001000,0.001000
1020.557692,0.005851,0.001000,0.001000,0.001000,0.001000,0.001000
1020.576923,0.007022,0.001000,0.001000,0.001000,0.001000,0.001000
1020.596154,0.008190,0.001000,0.001000,0.001000,0.001000,0.001000
1020.615385,0.009352,0.001000,0.001000,0.001000,0.001000,0.001000
1020.634615,0.010510,0.001000,0.001000,0.001000,0.001000,0.001000
1020.653846,0.011661,0.001000,0.001000,0.001000,0.001000,0.001000
1020.673077,0.012806,0.001000,0.001000,0.001000,0.001000,0.001000
1020.692308,0.013944,0.001000,0.001000,0.001000,0.001000,0.001000
1020.711538,0.015075,0.001000,0.001000,0.001000,0.001000,0.001000
1020.730769,0.016196,0.001000,0.001000,0.001000,0.001000,0.001000
1020.750000,0.017309,0.001000,0.001000,0.001000,0.001000,0.001000
1020.769231,0.018412,0.001000,0.001000,0.001000,0.001000,0.001000
1020.788462,0.019505,0.001000,0.001000,0.001000,0.001000,0.001000
1020.807692,0.020587,0.001000,0.001000,0.001000,0.001000,0.001000
1020.826923,0.021657,0.001000,0.001000,0.001000,0.001000,0.001000
1020.846154,0.022715,0.001000,0.001000,0.001000,0.001000,0.001000
1020.865385,0.023761,0.001000,0.001000,0.001000,0.001000,0.001000
1020.884615,0.024794,0.001000,0.001000,0.001000,0.001000,0.001000
1020.903846,0.025812,0.001000,0.001000,0.001000,0.001000,0.001000
1020.923077,0.026816,0.001000,0.001000,0.001000,0.001000,0.001000
1020.942308,0.027806,0.001000,0.001000,0.001000,0.001000,0.001000
1020.961538,0.028779,0.001000,0.001000,0.001000,0.001000,0.001000
1020.980769,0.029737,0.001000,0.001000,0.001000,0.001000,0.001000
1021.000000,0.030678,0.001000,0.001000,0.001000,0.001000,0.001000
1021.019231,0.031602,0.001000,0.001000,0.001000,0.001000,0.001000
1021.038462,0.032508,0.001000,0.001000,0.001000,0.001000,0.001000
1021.057692,0.033396,0.001000,0.001000,0.001000,0.001000,0.001000
1021.076923,0.034266,0.001000,0.001000,0.001000,0.001000,0.001000
1021.096154,0.035116,0.001000,0.001000,0.001000,0.001000,0.001000
1021.115385,0.035947,0.001000,0.001000,0.001000,0.001000,0.001000
1021.134615,0.036758,0.001000,0.001000,0.001000,0.001000,0.001000
1021.153846,0.037548,0.001000,0.001000,0.001000,0.001000,0.001000
1021.173077,0.038318,0.001000,0.001000,0.001000,0.001000,0.001000
1021.192308,0.039065,0.001000,0.001000,0.001000,0.001000,0.001000
1021.211538,0.039792,0.001000,0.001000,0.001000,0.001000,0.001000
1021.230769,0.040496,0.001000,0.001000,0.001000,0.001000,0.001000
1021.250000,0.041177,0.001000,0.001000,0.001000,0.001000,0.001000
1021.269231,0.041835,0.001000,0.001000,0.001000,0.001000,0.001000
1021.288462,0.042470,0.001000,0.001000,0.001000,0.001000,0.001000
1021.307692,0.043082,0.001000,0.001000,0.001000,0.001000,0.001000
1021.326923,0.043669,0.001000,0.001000,0.001000,0.001000,0.001000
1021.346154,0.044232,0.001000,0.001000,0.001000,0.001000,0.001000
1021.365385,0.044770,0.001000,0.001000,0.001000,0.001000,0.001000
1021.384615,0.045284,0.001000,0.001000,0.001000,0.001000,0.001000
1021.403846,0.045772,0.001000,0.001000,0.001000,0.001000,0.001000
1021.423077,0.046234,0.001000,0.001000,0.001000,0.001000,0.001000
1021.442308,0.046671,0.001000,0.001000,0.001000,0.001000,0.001000
1021.461538,0.047082,0.001000,0.001000,0.001000,0.001000,0.001000
1021.480769,0.047466,0.001000,0.001000,0.001000,0.001000,0.001000
1021.500000,0.047824,0.001000,0.001000,0.001000,0.001000,0.001000
1021.519231,0.048155,0.001000,0.001000,0.001000,0.001000,0.001000
1021.538462,0.048460,0.001000,0.001000,0.001000,0.001000,0.001000
1021.557692,0.048737,0.001000,0.001000,0.001000,0.001000,0.001000
1021.576923,0.048987,0.001000,0.001000,0.001000,0.001000,0.001000
1021.596154,0.049210,0.001000,0.001000,0.001000,0.001000,0.001000
1021.615385,0.049405,0.001000,0.001000,0.001000,0.001000,0.001000
1021.634615,0.049573,0.001000,0.001000,0.001000,0.001000,0.001000
1021.653846,0.049713,0.001000,0.001000,0.001000,0.001000,0.001000
1021.673077,0.049826,0.001000,0.001000,0.001000,0.001000,0.001000
1021.692308,0.049910,0.001000,0.001000,0.001000,0.001000,0.001000
1021.711538,0.049967,0.001000,0.001000,0.001000,0.001000,0.001000
1021.730769,0.049996,0.001000,0.001000,0.001000,0.001000,0.001000
1021.750000,0.049997,0.001000,0.001000,0.001000,0.001000,0.001000
1021.769231,0.049970,0.001000,0.001000,0.001000,0.001000,0.001000
1021.788462,0.049915,0.001000,0.001000,0.001000,0.001000,0.001000
1021.807692,0.049833,0.001000,0.001000,0.001000,0.001000,0.001000
1021.826923,0.049722,0.001000,0.001000,0.001000,0.001000,0.001000
1021.846154,0.049584,0.001000,0.001000,0.001000,0.001000,0.001000
1021.865385,0.049418,0.001000,0.001000,0.001000,0.001000,0.001000
1021.884615,0.049225,0.001000,0.001000,0.001000,0.001000,0.001000
1021.903846,0.049004,0.001000,0.001000,0.001000,0.001000,0.001000
1021.923077,0.048756,0.001000,0.001000,0.001000,0.001000,0.001000
1021.942308,0.048481,0.001000,0.001000,0.001000,0.001000,0.001000
1021.961538,0.048178,0.001000,0.001000,0.001000,0.001000,0.001000
1021.980769,0.047849,0.001000,0.001000,0.001000,0.001000,0.001000
1022.000000,0.047493,0.001000,0.001000,0.001000,0.001000,0.001000
1022.019231,0.047110,0.001000,0.001000,0.001000,0.001000,0.001000
1022.038462,0.046702,0.001000,0.001000,0.001000,0.001000,0.001000
1022.057692,0.046267,0.001000,0.001000,0.001000,0.001000,0.001000
1022.076923,0.045806,0.001000,0.001000,0.001000,0.001000,0.001000
1022.096154,0.045320,0.001000,0.001000,0.001000,0.001000,0.001000
1022.115385,0.044808,0.001000,0.001000,0.001000,0.001000,0.001000
1022.134615,0.044272,0.001000,0.001000,0.001000,0.001000,0.001000
1022.153846,0.043711,0.001000,0.001000,0.001000,0.001000,0.001000
1022.173077,0.043125,0.001000,0.001000,0.001000,0.001000,0.001000
1022.192308,0.042516,0.001000,0.001000,0.001000,0.001000,0.001000
1022.211538,0.041882,0.001000,0.001000,0.001000,0.001000,0.001000
1022.230769,0.041226,0.001000,0.001000,0.001000,0.001000,0.001000
1022.250000,0.040546,0.001000,0.001000,0.001000,0.001000,0.001000
1022.269231,0.039844,0.001000,0.001000,0.001000,0.001000,0.001000
1022.288462,0.039119,0.001000,0.001000,0.001000,0.001000,0.001000
1022.307692,0.038373,0.001000,0.001000,0.001000,0.001000,0.001000
1022.326923,0.037605,0.001000,0.001000,0.001000,0.001000,0.001000
1022.346154,0.036816,0.001000,0.001000,0.001000,0.001000,0.001000
1022.365385,0.036007,0.001000,0.001000,0.001000,0.001000,0.001000
1022.384615,0.035177,0.001000,0.001000,0.001000,0.001000,0.001000
1022.403846,0.034328,0.001000,0.001000,0.001000,0.001000,0.001000
1022.423077,0.033460,0.001000,0.001000,0.001000,0.001000,0.001000
1022.442308,0.032573,0.001000,0.001000,0.001000,0.001000,0.001000
1022.461538,0.031668,0.001000,0.001000,0.001000,0.001000,0.001000
1022.480769,0.030746,0.001000,0.001000,0.001000,0.001000,0.001000
1022.500000,0.029806,0.001000,0.001000,0.001000,0.001000,0.001000
1022.519231,0.028849,0.001000,0.001000,0.001000,0.001000,0.001000
1022.538462,0.027877,0.001000,0.001000,0.001000,0.001000,0.001000
1022.557692,0.026889,0.001000,0.001000,0.001000,0.001000,0.001000
1022.576923,0.025886,0.001000,0.001000,0.001000,0.001000,0.001000
1022.596154,0.024868,0.001000,0.001000,0.001000,0.001000,0.001000
1022.615385,0.023837,0.001000,0.001000,0.001000,0.001000,0.001000
1022.634615,0.022792,0.001000,0.001000,0.001000,0.001000,0.001000
1022.653846,0.021734,0.001000,0.001000,0.001000,0.001000,0.001000
1022.673077,0.020665,0.001000,0.001000,0.001000,0.001000,0.001000
1022.692308,0.019584,0.001000,0.001000,0.001000,0.001000,0.001000
1022.711538,0.018492,0.001000,0.001000,0.001000,0.001000,0.001000
1022.730769,0.017389,0.001000,0.001000,0.001000,0.001000,0.001000
1022.750000,0.016277,0.001000,0.001000,0.001000,0.001000,0.001000
1022.769231,0.015156,0.001000,0.001000,0.001000,0.001000,0.001000
1022.788462,0.014027,0.001000,0.001000,0.001000,0.001000,0.001000
1022.807692,0.012889,0.001000,0.001000,0.001000,0.001000,0.001000
1022.826923,0.011745,0.001000,0.001000,0.001000,0.001000,0.001000
1022.846154,0.010594,0.001000,0.001000,0.001000,0.001000,0.001000
1022.865385,0.009437,0.001000,0.001000,0.001000,0.001000,0.001000
1022.884615,0.008274,0.001000,0.001000,0.001000,0.001000,0.001000
1022.903846,0.007107,0.001000,0.001000,0.001000,0.001000,0.001000
1022.923077,0.005936,0.001000,0.001000,0.001000,0.001000,0.001000
1022.942308,0.004762,0.001000,0.001000,0.001000,0.001000,0.001000
1022.961538,0.003585,0.001000,0.001000,0.001000,0.001000,0.001000
1022.980769,0.002407,0.001000,0.001000,0.001000,0.001000,0.001000
1023.000000,0.001226,0.001000,0.001000,0.001000,0.001000,0.001000
1023.019231,0.000045,0.001000,0.001000,0.001000,0.001000,0.001000
1023.038462,-0.001136,0.001000,0.001000,0.001000,0.001000,0.001000
1023.057692,-0.002316,0.001000,0.001000,0.001000,0.001000,0.001000
1023.076923,-0.003495,0.001000,0.001000,0.001000,0.001000,0.001000
1023.096154,-0.004672,0.001000,0.001000,0.001000,0.001000,0.001000
1023.115385,-0.005846,0.001000,0.001000,0.001000,0.001000,0.001000
1023.134615,-0.007017,0.001000,0.001000,0.001000,0.001000,0.001000
1023.153846,-0.008185,0.001000,0.001000,0.001000,0.001000,0.001000
1023.173077,-0.009347,0.001000,0.001000,0.001000,0.001000,0.001000
1023.192308,-0.010505,0.001000,0.001000,0.001000,0.001000,0.001000
1023.211538,-0.011656,0.001000,0.001000,0.001000,0.001000,0.001000
1023.230769,-0.012802,0.001000,0.001000,0.001000,0.001000,0.001000
1023.250000,-0.013940,0.001000,0.001000,0.001000,0.001000,0.001000
1023.269231,-0.015070,0.001000,0.001000,0.001000,0.001000,0.001000
1023.288462,-0.016192,0.001000,0.001000,0.001000,0.001000,0.001000
1023.307692,-0.017304,0.001000,0.001000,0.001000,0.001000,0.001000
1023.326923,-0.018407,0.001000,0.001000,0.001000,0.001000,0.001000
1023.346154,-0.019500,0.001000,0.001000,0.001000,0.001000,0.001000
1023.365385,-0.020582,0.001000,0.001000,0.001000,0.001000,0.001000
1023.384615,-0.021653,0.001000,0.001000,0.001000,0.001000,0.001000
1023.403846,-0.022711,0.001000,0.001000,0.001000,0.001000,0.001000
1023.423077,-0.023757,0.001000,0.001000,0.001000,0.001000,0.001000
1023.442308,-0.024789,0.001000,0.001000,0.001000,0.001000,0.001000
1023.461538,-0.025808,0.001000,0.001000,0.001000,0.001000,0.001000
1023.480769,-0.026812,0.001000,0.001000,0.001000,0.001000,0.001000
1023.500000,-0.027801,0.001000,0.001000,0.001000,0.001000,0.001000
1023.519231,-0.028775,0.001000,0.001000,0.001000,0.001000,0.001000
1023.538462,-0.029733,0.001000,0.001000,0.001000,0.001000,0.001000
1023.557692,-0.030674,0.001000,0.001000,0.001000,0.001000,0.001000
1023.576923,-0.031598,0.001000,0.001000,0.001000,0.001000,0.001000
1023.596154,-0.032504,0.001000,0.001000,0.001000,0.001000,0.001000
1023.615385,-0.033393,0.001000,0.001000,0.001000,0.001000,0.001000
1023.634615,-0.034262,0.001000,0.001000,0.001000,0.001000,0.001000
1023.653846,-0.035113,0.001000,0.001000,0.001000,0.001000,0.001000
1023.673077,-0.035944,0.001000,0.001000,0.001000,0.001000,0.001000
1023.692308,-0.036755,0.001000,0.001000,0.001000,0.001000,0.001000
1023.711538,-0.037545,0.001000,0.001000,0.001000,0.001000,0.001000
1023.730769,-0.038314,0.001000,0.001000,0.001000,0.001000,0.001000
1023.750000,-0.039062,0.001000,0.001000,0.001000,0.001000,0.001000
1023.769231,-0.039789,0.001000,0.001000,0.001000,0.001000,0.001000
1023.788462,-0.040493,0.001000,0.001000,0.001000,0.001000,0.001000
1023.807692,-0.041174,0.001000,0.001000,0.001000,0.001000,0.001000
1023.826923,-0.041833,0.001000,0.001000,0.001000,0.001000,0.001000
1023.846154,-0.042468,0.001000,0.001000,0.001000,0.001000,0.001000
1023.865385,-0.043079,0.001000,0.001000,0.001000,0.001000,0.001000
1023.884615,-0.043667,0.001000,0.001000,0.001000,0.001000,0.001000
1023.903846,-0.044230,0.001000,0.001000,0.001000,0.001000,0.001000
1023.923077,-0.044768,0.001000,0.001000,0.001000,0.001000,0.001000
1023.942308,-0.045282,0.001000,0.001000,0.001000,0.001000,0.001000
1023.961538,-0.045770,0.001000,0.001000,0.001000,0.001000,0.001000
1023.980769,-0.046232,0.001000,0.001000,0.001000,0.001000,0.001000
1024.000000,-0.046669,0.001000,0.001000,0.001000,0.001000,0.001000
1024.019231,-0.047080,0.001000,0.001000,0.001000,0.001000,0.001000
1024.038462,-0.047464,0.001000,0.001000,0.001000,0.001000,0.001000
1024.057692,-0.047822,0.001000,0.001000,0.001000,0.001000,0.001000
1024.076923,-0.048154,0.001000,0.001000,0.001000,0.001000,0.001000
1024.096154,-0.048458,0.001000,0.001000,0.001000,0.001000,0.001000
1024.115385,-0.048736,0.001000,0.001000,0.001000,0.001000,0.001000
1024.134615,-0.048986,0.001000,0.001000,0.001000,0.001000,0.001000
1024.153846,-0.049209,0.001000,0.001000,0.001000,0.001000,0.001000
1024.173077,-0.049405,0.001000,0.001000,0.001000,0.001000,0.001000
1024.192308,-0.049572,0.001000,0.001000,0.001000,0.001000,0.001000
1024.211538,-0.049713,0.001000,0.001000,0.001000,0.001000,0.001000
1024.230769,-0.049825,0.001000,0.001000,0.001000,0.001000,0.001000
1024.250000,-0.049910,0.001000,0.001000,0.001000,0.001000,0.001000
1024.269231,-0.049967,0.001000,0.001000,0.001000,0.001000,0.001000
1024.288462,-0.049996,0.001000,0.001000,0.001000,0.001000,0.001000
1024.307692,-0.049997,0.001000,0.001000,0.001000,0.001000,0.001000
1024.326923,-0.049970,0.001000,0.001000,0.001000,0.001000,0.001000
1024.346154,-0.049916,0.001000,0.001000,0.001000,0.001000,0.001000
1024.365385,-0.049833,0.001000,0.001000,0.001000,0.001000,0.001000
1024.384615,-0.049723,0.001000,0.001000,0.001000,0.001000,0.001000
1024.403846,-0.049585,0.001000,0.001000,0.001000,0.001000,0.001000
1024.423077,-0.049419,0.001000,0.001000,0.001000,0.001000,0.001000
1024.442308,-0.049226,0.001000,0.001000,0.001000,0.001000,0.001000
1024.461538,-0.049005,0.001000,0.001000,0.001000,0.001000,0.001000
1024.480769,-0.048757,0.001000,0.001000,0.001000,0.001000,0.001000
1024.500000,-0.048482,0.001000,0.001000,0.001000,0.001000,0.001000
1024.519231,-0.048180,0.001000,0.001000,0.001000,0.001000,0.001000
1024.538462,-0.047850,0.001000,0.001000,0.001000,0.001000,0.001000
1024.557692,-0.047494,0.001000,0.001000,0.001000,0.001000,0.001000
1024.576923,-0.047112,0.001000,0.001000,0.001000,0.001000,0.001000
1024.596154,-0.046703,0.001000,0.001000,0.001000,0.001000,0.001000
1024.615385,-0.046269,0.001000,0.001000,0.001000,0.001000,0.001000
1024.634615,-0.045808,0.001000,0.001000,0.001000,0.001000,0.001000
1024.653846,-0.045322,0.001000,0.001000,0.001000,0.001000,0.001000
1024.673077,-0.044811,0.001000,0.001000,0.001000,0.001000,0.001000
1024.692308,-0.044274,0.001000,0.001000,0.001000,0.001000,0.001000
1024.711538,-0.043713,0.001000,0.001000,0.001000,0.001000,0.001000
1024.730769,-0.043128,0.001000,0.001000,0.001000,0.001000,0.001000
1024.750000,-0.042518,0.001000,0.001000,0.001000,0.001000,0.001000
1024.769231,-0.041885,0.001000,0.001000,0.001000,0.001000,0.001000
1024.788462,-0.041228,0.001000,0.001000,0.001000,0.001000,0.001000
1024.807692,-0.040549,0.001000,0.001000,0.001000,0.001000,0.001000
1024.826923,-0.039847,0.001000,0.001000,0.001000,0.001000,0.001000
1024.846154,-0.039122,0.001000,0.001000,0.001000,0.001000,0.001000
1024.865385,-0.038376,0.001000,0.001000,0.001000,0.001000,0.001000
1024.884615,-0.037608,0.001000,0.001000,0.001000,0.001000,0.001000
1024.903846,-0.036819,0.001000,0.001000,0.001000,0.001000,0.001000
1024.923077,-0.036010,0.001000,0.001000,0.001000,0.001000,0.001000
1024.942308,-0.035181,0.001000,0.001000,0.001000,0.001000,0.001000
1024.961538,-0.034332,0.001000,0.001000,0.001000,0.001000,0.001000
1024.980769,-0.033464,0.001000,0.001000,0.001000,0.001000,0.001000
1025.000000,-0.032577,0.001000,0.001000,0.001000,0.001000,0.001000
1025.019231,-0.031672,0.001000,0.001000,0.001000,0.001000,0.001000
1025.038462,-0.030750,0.001000,0.001000,0.001000,0.001000,0.001000
1025.057692,-0.029810,0.001000,0.001000,0.001000,0.001000,0.001000
1025.076923,-0.028853,0.001000,0.001000,0.001000,0.001000,0.001000
1025.096154,-0.027881,0.001000,0.001000,0.001000,0.001000,0.001000
1025.115385,-0.026893,0.001000,0.001000,0.001000,0.001000,0.001000
1025.134615,-0.025890,0.001000,0.001000,0.001000,0.001000,0.001000
1025.153846,-0.024872,0.001000,0.001000,0.001000,0.001000,0.001000
1025.173077,-0.023841,0.001000,0.001000,0.001000,0.001000,0.001000
1025.192308,-0.022796,0.001000,0.001000,0.001000,0.001000,0.001000
1025.211538,-0.021739,0.001000,0.001000,0.001000,0.001000,0.001000
1025.230769,-0.020669,0.001000,0.001000,0.001000,0.001000,0.001000
1025.250000,-0.019588,0.001000,0.001000,0.001000,0.001000,0.001000
1025.269231,-0.018496,0.001000,0.001000,0.001000,0.001000,0.001000
1025.288462,-0.017394,0.001000,0.001000,0.001000,0.001000,0.001000
1025.307692,-0.016282,0.001000,0.001000,0.001000,0.001000,0.001000
1025.326923,-0.015161,0.001000,0.001000,0.001000,0.001000,0.001000
1025.346154,-0.014032,0.001000,0.001000,0.001000,0.001000,0.001000
1025.365385,-0.012894,0.001000,0.001000,0.001000,0.001000,0.001000
1025.384615,-0.011750,0.001000,0.001000,0.001000,0.001000,0.001000
1025.403846,-0.010599,0.001000,0.001000,0.001000,0.001000,0.001000
1025.423077,-0.009442,0.001000,0.001000,0.001000,0.001000,0.001000
1025.442308,-0.008279,0.001000,0.001000,0.001000,0.001000,0.001000
1025.461538,-0.007112,0.001000,0.001000,0.001000,0.001000,0.001000
1025.480769,-0.005941,0.001000,0.001000,0.001000,0.001000,0.001000
1025.500000,-0.004767,0.001000,0.001000,0.001000,0.001000,0.001000
1025.519231,-0.003590,0.001000,0.001000,0.001000,0.001000,0.001000
1025.538462,-0.002412,0.001000,0.001000,0.001000,0.001000,0.001000
1025.557692,-0.001231,0.001000,0.001000,0.001000,0.001000,0.001000
1025.576923,-0.000050,0.001000,0.001000,0.001000,0.001000,0.001000
1025.596154,0.001130,0.001000,0.001000,0.001000,0.001000,0.001000
1025.615385,0.002311,0.001000,0.001000,0.001000,0.001000,0.001000
1025.634615,0.003490,0.001000,0.001000,0.001000,0.001000,0.001000
1025.653846,0.004667,0.001000,0.001000,0.001000,0.001000,0.001000
1025.673077,0.005841,0.001000,0.001000,0.001000,0.001000,0.001000
1025.692308,0.007012,0.001000,0.001000,0.001000,0.001000,0.001000
1025.711538,0.008180,0.001000,0.001000,0.001000,0.001000,0.001000
1025.730769,0.009342,0.001000,0.001000,0.001000,0.001000,0.001000
1025.750000,0.010500,0.001000,0.001000,0.001000,0.001000,0.001000
1025.769231,0.011652,0.001000,0.001000,0.001000,0.001000,0.001000
1025.788462,0.012797,0.001000,0.001000,0.001000,0.001000,0.001000
1025.807692,0.013935,0.001000,0.001000,0.001000,0.001000,0.001000
1025.826923,0.015065,0.001000,0.001000,0.001000,0.001000,0.001000
1025.846154,0.016187,0.001000,0.001000,0.001000,0.001000,0.001000
1025.865385,0.017300,0.001000,0.001000,0.001000,0.001000,0.001000
1025.884615,0.018403,0.001000,0.001000,0.001000,0.001000,0.001000
1025.903846,0.019496,0.001000,0.001000,0.001000,0.001000,0.001000
1025.923077,0.020578,0.001000,0.001000,0.001000,0.001000,0.001000
1025.942308,0.021648,0.001000,0.001000,0.001000,0.001000,0.001000
1025.961538,0.022707,0.001000,0.001000,0.001000,0.001000,0.001000
1025.980769,0.023752,0.001000,0.001000,0.001000,0.001000,0.001000
1026.000000,0.024785,0.001000,0.001000,0.001000,0.001000,0.001000
1026.019231,0.025804,0.001000,0.001000,0.001000,0.001000,0.001000
1026.038462,0.026808,0.001000,0.001000,0.001000,0.001000,0.001000
1026.057692,0.027797,0.001000,0.001000,0.001000,0.001000,0.001000
1026.076923,0.028771,0.001000,0.001000,0.001000,0.001000,0.001000
1026.096154,0.029729,0.001000,0.001000,0.001000,0.001000,0.001000
1026.115385,0.030670,0.001000,0.001000,0.001000,0.001000,0.001000
1026.134615,0.031594,0.001000,0.001000,0.001000,0.001000,0.001000
1026.153846,0.032501,0.001000,0.001000,0.001000,0.001000,0.001000
1026.173077,0.033389,0.001000,0.001000,0.001000,0.001000,0.001000
1026.192308,0.034259,0.001000,0.001000,0.001000,0.001000,0.001000
1026.211538,0.035109,0.001000,0.001000,0.001000,0.001000,0.001000
1026.230769,0.035940,0.001000,0.001000,0.001000,0.001000,0.001000
1026.250000,0.036751,0.001000,0.001000,0.001000,0.001000,0.001000
1026.269231,0.037542,0.001000,0.001000,0.001000,0.001000,0.001000
1026.288462,0.038311,0.001000,0.001000,0.001000,0.001000,0.001000
1026.307692,0.039059,0.001000,0.001000,0.001000,0.001000,0.001000
1026.326923,0.039786,0.001000,0.001000,0.001000,0.001000,0.001000
1026.346154,0.040490,0.001000,0.001000,0.001000,0.001000,0.001000
1026.365385,0.041171,0.001000,0.001000,0.001000,0.001000,0.001000
1026.384615,0.041830,0.001000,0.001000,0.001000,0.001000,0.001000
1026.403846,0.042465,0.001000,0.001000,0.001000,0.001000,0.001000
1026.423077,0.043077,0.001000,0.001000,0.001000,0.001000,0.001000
1026.442308,0.043664,0.001000,0.001000,0.001000,0.001000,0.001000
1026.461538,0.044227,0.001000,0.001000,0.001000,0.001000,0.001000
1026.480769,0.044766,0.001000,0.001000,0.001000,0.001000,0.001000
1026.500000,0.045279,0.001000,0.001000,0.001000,0.001000,0.001000
1026.519231,0.045768,0.001000,0.001000,0.001000,0.001000,0.001000
1026.538462,0.046230,0.001000,0.001000,0.001000,0.001000,0.001000
1026.557692,0.046667,0.001000,0.001000,0.001000,0.001000,0.001000
1026.576923,0.047078,0.001000,0.001000,0.001000,0.001000,0.001000
1026.596154,0.047463,0.001000,0.001000,0.001000,0.001000,0.001000
1026.615385,0.047821,0.001000,0.001000,0.001000,0.001000,0.001000
1026.634615,0.048152,0.001000,0.001000,0.001000,0.001000,0.001000
1026.653846,0.048457,0.001000,0.001000,0.001000,0.001000,0.001000
1026.673077,0.048735,0.001000,0.001000,0.001000,0.001000,0.001000
1026.692308,0.048985,0.001000,0.001000,0.001000,0.001000,0.001000
1026.711538,0.049208,0.001000,0.001000,0.001000,0.001000,0.001000
1026.730769,0.049404,0.001000,0.001000,0.001000,0.001000,0.001000
1026.750000,0.049572,0.001000,0.001000,0.001000,0.001000,0.001000
1026.769231,0.049712,0.001000,0.001000,0.001000,0.001000,0.001000
1026.788462,0.049825,0.001000,0.001000,0.001000,0.001000,0.001000
1026.807692,0.049910,0.001000,0.001000,0.001000,0.001000,0.001000
1026.826923,0.049967,0.001000,0.001000,0.001000,0.001000,0.001000
1026.846154,0.049996,0.001000,0.001000,0.001000,0.001000,0.001000
1026.865385,0.049997,0.001000,0.001000,0.001000,0.001000,0.001000
1026.884615,0.049970,0.001000,0.001000,0.001000,0.001000,0.001000
1026.903846,0.049916,0.001000,0.001000,0.001000,0.001000,0.001000
1026.923077,0.049834,0.001000,0.001000,0.001000,0.001000,0.001000
1026.942308,0.049723,0.001000,0.001000,0.001000,0.001000,0.001000
1026.961538,0.049586,0.001000,0.001000,0.001000,0.001000,0.001000
1026.980769,0.049420,0.001000,0.001000,0.001000,0.001000,0.001000
1027.000000,0.049227,0.001000,0.001000,0.001000,0.001000,0.001000
1027.019231,0.049006,0.001000,0.001000,0.001000,0.001000,0.001000
1027.038462,0.048758,0.001000,0.001000,0.001000,0.001000,0.001000
1027.057692,0.048483,0.001000,0.001000,0.001000,0.001000,0.001000
1027.076923,0.048181,0.001000,0.001000,0.001000,0.001000,0.001000
1027.096154,0.047852,0.001000,0.001000,0.001000,0.001000,0.001000
1027.115385,0.047496,0.001000,0.001000,0.001000,0.001000,0.001000
1027.134615,0.047114,0.001000,0.001000,0.001000,0.001000,0.001000
1027.153846,0.046705,0.001000,0.001000,0.001000,0.001000,0.001000
1027.173077,0.046271,0.001000,0.001000,0.001000,0.001000,0.001000
1027.192308,0.045810,0.001000,0.001000,0.001000,0.001000,0.001000
1027.211538,0.045324,0.001000,0.001000,0.001000,0.001000,0.001000
1027.230769,0.044813,0.001000,0.001000,0.001000,0.001000,0.001000
1027.250000,0.044277,0.001000,0.001000,0.001000,0.001000,0.001000
1027.269231,0.043716,0.001000,0.001000,0.001000,0.001000,0.001000
1027.288462,0.043130,0.001000,0.001000,0.001000,0.001000,0.001000
1027.307692,0.042521,0.001000,0.001000,0.001000,0.001000,0.001000
1027.326923,0.041888,0.001000,0.001000,0.001000,0.001000,0.001000
1027.346154,0.041231,0.001000,0.001000,0.001000,0.001000,0.001000
1027.365385,0.040552,0.001000,0.001000,0.001000,0.001000,0.001000
1027.384615,0.039850,0.001000,0.001000,0.001000,0.001000,0.001000
1027.403846,0.039125,0.001000,0.001000,0.001000,0.001000,0.001000
1027.423077,0.038379,0.001000,0.001000,0.001000,0.001000,0.001000
1027.442308,0.037611,0.001000,0.001000,0.001000,0.001000,0.001000
1027.461538,0.036823,0.001000,0.001000,0.001000,0.001000,0.001000
1027.480769,0.036014,0.001000,0.001000,0.001000,0.001000,0.001000
1027.500000,0.035185,0.001000,0.001000,0.001000,0.001000,0.001000
1027.519231,0.034336,0.001000,0.001000,0.001000,0.001000,0.001000
1027.538462,0.033468,0.001000,0.001000,0.001000,0.001000,0.001000
1027.557692,0.032581,0.001000,0.001000,0.001000,0.001000,0.001000
1027.576923,0.031676,0.001000,0.001000,0.001000,0.001000,0.001000
1027.596154,0.030754,0.001000,0.001000,0.001000,0.001000,0.001000
1027.615385,0.029814,0.001000,0.001000,0.001000,0.001000,0.001000
1027.634615,0.028858,0.001000,0.001000,0.001000,0.001000,0.001000
1027.653846,0.027885,0.001000,0.001000,0.001000,0.001000,0.001000
1027.673077,0.026897,0.001000,0.001000,0.001000,0.001000,0.001000
1027.692308,0.025894,0.001000,0.001000,0.001000,0.001000,0.001000
1027.711538,0.024877,0.001000,0.001000,0.001000,0.001000,0.001000
1027.730769,0.023845,0.001000,0.001000,0.001000,0.001000,0.001000
1027.750000,0.022801,0.001000,0.001000,0.001000,0.001000,0.001000
1027.769231,0.021744,0.001000,0.001000,0.001000,0.001000,0.001000
1027.788462,0.020674,0.001000,0.001000,0.001000,0.001000,0.001000
1027.807692,0.019593,0.001000,0.001000,0.001000,0.001000,0.001000
1027.826923,0.018501,0.001000,0.001000,0.001000,0.001000,0.001000
1027.846154,0.017399,0.001000,0.001000,0.001000,0.001000,0.001000
1027.865385,0.016287,0.001000,0.001000,0.001000,0.001000,0.001000
1027.884615,0.015166,0.001000,0.001000,0.001000,0.001000,0.001000
1027.903846,0.014036,0.001000,0.001000,0.001000,0.001000,0.001000
1027.923077,0.012899,0.001000,0.001000,0.001000,0.001000,0.001000
1027.942308,0.011755,0.001000,0.001000,0.001000,0.001000,0.001000
1027.961538,0.010603,0.001000,0.001000,0.001000,0.001000,0.001000
1027.980769,0.009446,0.001000,0.001000,0.001000,0.001000,0.001000
1028.000000,0.008284,0.001000,0.001000,0.001000,0.001000,0.001000
1028.019231,0.007117,0.001000,0.001000,0.001000,0.001000,0.001000
1028.038462,0.005946,0.001000,0.001000,0.001000,0.001000,0.001000
1028.057692,0.004772,0.001000,0.001000,0.001000,0.001000,0.001000
1028.076923,0.003595,0.001000,0.001000,0.001000,0.001000,0.001000
1028.096154,0.002417,0.001000,0.001000,0.001000,0.001000,0.001000
1028.115385,0.001236,0.001000,0.001000,0.001000,0.001000,0.001000
1028.134615,0.000056,0.001000,0.001000,0.001000,0.001000,0.001000
1028.153846,-0.001125,0.001000,0.001000,0.001000,0.001000,0.001000
1028.173077,-0.002306,0.001000,0.001000,0.001000,0.001000,0.001000
1028.192308,-0.003485,0.001000,0.001000,0.001000,0.001000,0.001000
1028.211538,-0.004662,0.001000,0.001000,0.001000,0.001000,0.001000
1028.230769,-0.005836,0.001000,0.001000,0.001000,0.001000,0.001000
1028.250000,-0.007007,0.001000,0.001000,0.001000,0.001000,0.001000
1028.269231,-0.008175,0.001000,0.001000,0.001000,0.001000,0.001000
1028.288462,-0.009337,0.001000,0.001000,0.001000,0.001000,0.001000
1028.307692,-0.010495,0.001000,0.001000,0.001000,0.001000,0.001000
1028.326923,-0.011647,0.001000,0.001000,0.001000,0.001000,0.001000
1028.346154,-0.012792,0.001000,0.001000,0.001000,0.001000,0.001000
1028.365385,-0.013930,0.001000,0.001000,0.001000,0.001000,0.001000
1028.384615,-0.015060,0.001000,0.001000,0.001000,0.001000,0.001000
1028.403846,-0.016182,0.001000,0.001000,0.001000,0.001000,0.001000
1028.423077,-0.017295,0.001000,0.001000,0.001000,0.001000,0.001000
1028.442308,-0.018398,0.001000,0.001000,0.001000,0.001000,0.001000
1028.461538,-0.019491,0.001000,0.001000,0.001000,0.001000,0.001000
1028.480769,-0.020573,0.001000,0.001000,0.001000,0.001000,0.001000
1028.500000,-0.021644,0.001000,0.001000,0.001000,0.001000,0.001000
1028.519231,-0.022702,0.001000,0.001000,0.001000,0.001000,0.001000
1028.538462,-0.023748,0.001000,0.001000,0.001000,0.001000,0.001000
1028.557692,-0.024780,0.001000,0.001000,0.001000,0.001000,0.001000
1028.576923,-0.025799,0.001000,0.001000,0.001000,0.001000,0.001000
1028.596154,-0.026804,0.001000,0.001000,0.001000,0.001000,0.001000
1028.615385,-0.027793,0.001000,0.001000,0.001000,0.001000,0.001000
1028.634615,-0.028767,0.001000,0.001000,0.001000,0.001000,0.001000
1028.653846,-0.029725,0.001000,0.001000,0.001000,0.001000,0.001000
1028.673077,-0.030666,0.001000,0.001000,0.001000,0.001000,0.001000
1028.692308,-0.031590,0.001000,0.001000,0.001000,0.001000,0.001000
1028.711538,-0.032497,0.001000,0.001000,0.001000,0.001000,0.001000
1028.730769,-0.033385,0.001000,0.001000,0.001000,0.001000,0.001000
1028.750000,-0.034255,0.001000,0.001000,0.001000,0.001000,0.001000
1028.769231,-0.035106,0.001000,0.001000,0.001000,0.001000,0.001000
1028.788462,-0.035937,0.001000,0.001000,0.001000,0.001000,0.001000
1028.807692,-0.036748,0.001000,0.001000,0.001000,0.001000,0.001000
1028.826923,-0.037538,0.001000,0.001000,0.001000,0.001000,0.001000
1028.846154,-0.038308,0.001000,0.001000,0.001000,0.001000,0.001000
1028.865385,-0.039056,0.001000,0.001000,0.001000,0.001000,0.001000
1028.884615,-0.039782,0.001000,0.001000,0.001000,0.001000,0.001000
1028.903846,-0.040487,0.001000,0.001000,0.001000,0.001000,0.001000
1028.923077,-0.041168,0.001000,0.001000,0.001000,0.001000,0.001000
1028.942308,-0.041827,0.001000,0.001000,0.001000,0.001000,0.001000
1028.961538,-0.042462,0.001000,0.001000,0.001000,0.001000,0.001000
1028.980769,-0.043074,0.001000,0.001000,0.001000,0.001000,0.001000
1029.000000,-0.043662,0.001000,0.001000,0.001000,0.001000,0.001000
1029.019231,-0.044225,0.001000,0.001000,0.001000,0.001000,0.001000
1029.038462,-0.044764,0.001000,0.001000,0.001000,0.001000,0.001000
1029.057692,-0.045277,0.001000,0.001000,0.001000,0.001000,0.001000
1029.076923,-0.045766,0.001000,0.001000,0.001000,0.001000,0.001000
1029.096154,-0.046228,0.001000,0.001000,0.001000,0.001000,0.001000
1029.115385,-0.046665,0.001000,0.001000,0.001000,0.001000,0.001000
1029.134615,-0.047076,0.001000,0.001000,0.001000,0.001000,0.001000
1029.153846,-0.047461,0.001000,0.001000,0.001000,0.001000,0.001000
1029.173077,-0.047820,0.001000,0.001000,0.001000,0.001000,0.001000
1029.192308,-0.048151,0.001000,0.001000,0.001000,0.001000,0.001000
1029.211538,-0.048456,0.001000,0.001000,0.001000,0.001000,0.001000
1029.230769,-0.048734,0.001000,0.001000,0.001000,0.001000,0.001000
1029.250000,-0.048984,0.001000,0.001000,0.001000,0.001000,0.001000
1029.269231,-0.049207,0.001000,0.001000,0.001000,0.001000,0.001000
1029.288462,-0.049403,0.001000,0.001000,0.001000,0.001000,0.001000
1029.307692,-0.049571,0.001000,0.001000,0.001000,0.001000,0.001000
1029.326923,-0.049712,0.001000,0.001000,0.001000,0.001000,0.001000
1029.346154,-0.049824,0.001000,0.001000,0.001000,0.001000,0.001000
1029.365385,-0.049909,0.001000,0.001000,0.001000,0.001000,0.001000
1029.384615,-0.049967,0.001000,0.001000,0.001000,0.001000,0.001000
1029.403846,-0.049996,0.001000,0.001000,0.001000,0.001000,0.001000
1029.423077,-0.049997,0.001000,0.001000,0.001000,0.001000,0.001000
1029.442308,-0.049971,0.001000,0.001000,0.001000,0.001000,0.001000
1029.461538,-0.049916,0.001000,0.001000,0.001000,0.001000,0.001000
1029.480769,-0.049834,0.001000,0.001000,0.001000,0.001000,0.001000
1029.500000,-0.049724,0.001000,0.001000,0.001000,0.001000,0.001000
1029.519231,-0.049586,0.001000,0.001000,0.001000,0.001000,0.001000
1029.538462,-0.049421,0.001000,0.001000,0.001000,0.001000,0.001000
1029.557692,-0.049228,0.001000,0.001000,0.001000,0.001000,0.001000
1029.576923,-0.049007,0.001000,0.001000,0.001000,0.001000,0.001000
1029.596154,-0.048759,0.001000,0.001000,0.001000,0.001000,0.001000
1029.615385,-0.048484,0.001000,0.001000,0.001000,0.001000,0.001000
1029.634615,-0.048182,0.001000,0.001000,0.001000,0.001000,0.001000
1029.653846,-0.047853,0.001000,0.001000,0.001000,0.001000,0.001000
1029.673077,-0.047498,0.001000,0.001000,0.001000,0.001000,0.001000
1029.692308,-0.047115,0.001000,0.001000,0.001000,0.001000,0.001000
1029.711538,-0.046707,0.001000,0.001000,0.001000,0.001000,0.001000
1029.730769,-0.046273,0.001000,0.001000,0.001000,0.001000,0.001000
1029.750000,-0.045812,0.001000,0.001000,0.001000,0.001000,0.001000
1029.769231,-0.045326,0.001000,0.001000,0.001000,0.001000,0.001000
1029.788462,-0.044815,0.001000,0.001000,0.001000,0.001000,0.001000
1029.807692,-0.044279,0.001000,0.001000,0.001000,0.001000,0.001000
1029.826923,-0.043718,0.001000,0.001000,0.001000,0.001000,0.001000
1029.846154,-0.043133,0.001000,0.001000,0.001000,0.001000,0.001000
1029.865385,-0.042524,0.001000,0.001000,0.001000,0.001000,0.001000
1029.884615,-0.041891,0.001000,0.001000,0.001000,0.001000,0.001000
1029.903846,-0.041234,0.001000,0.001000,0.001000,0.001000,0.001000
1029.923077,-0.040555,0.001000,0.001000,0.001000,0.001000,0.001000
1029.942308,-0.039853,0.001000,0.001000,0.001000,0.001000,0.001000
1029.961538,-0.039128,0.001000,0.001000,0.001000,0.001000,0.001000
1029.980769,-0.038382,0.001000,0.001000,0.001000,0.001000,0.001000
1030.000000,0.000000,0.001000,0.001000,0.001000,0.001000,0.001000
1030.019231,0.001171,0.001000,0.001000,0.001000,0.001000,0.001000
1030.038462,0.002341,0.001000,0.001000,0.001000,0.001000,0.001000
1030.057692,0.003510,0.001000,0.001000,0.001000,0.001000,0.001000
1030.076923,0.004677,0.001000,0.001000,0.001000,0.001000,0.001000
1030.096154,0.005842,0.001000,0.001000,0.001000,0.001000,0.001000
1030.115385,0.007003,0.001000,0.001000,0.001000,0.001000,0.001000
1030.134615,0.008161,0.001000,0.001000,0.001000,0.001000,0.001000
1030.153846,0.009314,0.001000,0.001000,0.001000,0.001000,0.001000
1030.173077,0.010461,0.001000,0.001000,0.001000,0.001000,0.001000
1030.192308,0.011604,0.001000,0.001000,0.001000,0.001000,0.001000
1030.211538,0.012739,0.001000,0.001000,0.001000,0.001000,0.001000
1030.230769,0.013868,0.001000,0.001000,0.001000,0.001000,0.001000
1030.250000,0.014989,0.001000,0.001000,0.001000,0.001000,0.001000
1030.269231,0.016102,0.001000,0.001000,0.001000,0.001000,0.001000
1030.288462,0.017206,0.001000,0.001000,0.001000,0.001000,0.001000
1030.307692,0.018301,0.001000,0.001000,0.001000,0.001000,0.001000
1030.326923,0.019386,0.001000,0.001000,0.001000,0.001000,0.001000
1030.346154,0.020460,0.001000,0.001000,0.001000,0.001000,0.001000
1030.365385,0.021523,0.001000,0.001000,0.001000,0.001000,0.001000
1030.384615,0.022574,0.001000,0.001000,0.001000,0.001000,0.001000
1030.403846,0.023612,0.001000,0.001000,0.001000,0.001000,0.001000
1030.423077,0.024638,0.001000,0.001000,0.001000,0.001000,0.001000
1030.442308,0.025650,0.001000,0.001000,0.001000,0.001000,0.001000
1030.461538,0.026648,0.001000,0.001000,0.001000,0.001000,0.001000
1030.480769,0.027632,0.001000,0.001000,0.001000,0.001000,0.001000
1030.500000,0.028600,0.001000,0.001000,0.001000,0.001000,0.001000
1030.519231,0.029553,0.001000,0.001000,0.001000,0.001000,0.001000
1030.538462,0.030489,0.001000,0.001000,0.001000,0.001000,0.001000
1030.557692,0.031409,0.001000,0.001000,0.001000,0.001000,0.001000
1030.576923,0.032311,0.001000,0.001000,0.001000,0.001000,0.001000
1030.596154,0.033196,0.001000,0.001000,0.001000,0.001000,0.001000
1030.615385,0.034062,0.001000,0.001000,0.001000,0.001000,0.001000
1030.634615,0.034910,0.001000,0.001000,0.001000,0.001000,0.001000
1030.653846,0.035739,0.001000,0.001000,0.001000,0.001000,0.001000
1030.673077,0.036548,0.001000,0.001000,0.001000,0.001000,0.001000
1030.692308,0.037337,0.001000,0.001000,0.001000,0.001000,0.001000
1030.711538,0.038106,0.001000,0.001000,0.001000,0.001000,0.001000
1030.730769,0.038853,0.001000,0.001000,0.001000,0.001000,0.001000
1030.750000,0.039580,0.001000,0.001000,0.001000,0.001000,0.001000
1030.769231,0.040284,0.001000,0.001000,0.001000,0.001000,0.001000
1030.788462,0.040967,0.001000,0.001000,0.001000,0.001000,0.001000
1030.807692,0.041627,0.001000,0.001000,0.001000,0.001000,0.001000
1030.826923,0.042264,0.001000,0.001000,0.001000,0.001000,0.001000
1030.846154,0.042878,0.001000,0.001000,0.001000,0.001000,0.001000
1030.865385,0.043469,0.001000,0.001000,0.001000,0.001000,0.001000
1030.884615,0.044035,0.001000,0.001000,0.001000,0.001000,0.001000
1030.903846,0.044578,0.001000,0.001000,0.001000,0.001000,0.001000
1030.923077,0.045096,0.001000,0.001000,0.001000,0.001000,0.001000
1030.942308,0.045589,0.001000,0.001000,0.001000,0.001000,0.001000
1030.961538,0.046058,0.001000,0.001000,0.001000,0.001000,0.001000
1030.980769,0.046501,0.001000,0.001000,0.001000,0.001000,0.001000
1031.000000,0.046918,0.001000,0.001000,0.001000,0.001000,0.001000
1031.019231,0.047310,0.001000,0.001000,0.001000,0.001000,0.001000
1031.038462,0.047676,0.001000,0.001000,0.001000,0.001000,0.001000
1031.057692,0.048016,0.001000,0.001000,0.001000,0.001000,0.001000
1031.076923,0.048329,0.001000,0.001000,0.001000,0.001000,0.001000
1031.096154,0.048616,0.001000,0.001000,0.001000,0.001000,0.001000
1031.115385,0.048876,0.001000,0.001000,0.001000,0.001000,0.001000
1031.134615,0.049110,0.001000,0.001000,0.001000,0.001000,0.001000
1031.153846,0.049316,0.001000,0.001000,0.001000,0.001000,0.001000
1031.173077,0.049496,0.001000,0.001000,0.001000,0.001000,0.001000
1031.192308,0.049648,0.001000,0.001000,0.001000,0.001000,0.001000
1031.211538,0.049773,0.001000,0.001000,0.001000,0.001000,0.001000
1031.230769,0.049871,0.001000,0.001000,0.001000,0.001000,0.001000
1031.250000,0.049941,0.001000,0.001000,0.001000,0.001000,0.001000
1031.269231,0.049984,0.001000,0.001000,0.001000,0.001000,0.001000
1031.288462,0.050000,0.001000,0.001000,0.001000,0.001000,0.001000
1031.307692,0.049988,0.001000,0.001000,0.001000,0.001000,0.001000
1031.326923,0.049949,0.001000,0.001000,0.001000,0.001000,0.001000
1031.346154,0.049882,0.001000,0.001000,0.001000,0.001000,0.001000
1031.365385,0.049788,0.001000,0.001000,0.001000,0.001000,0.001000
1031.384615,0.049667,0.001000,0.001000,0.001000,0.001000,0.001000
1031.403846,0.049518,0.001000,0.001000,0.001000,0.001000,0.001000
1031.423077,0.049343,0.001000,0.001000,0.001000,0.001000,0.001000
1031.442308,0.049140,0.001000,0.001000,0.001000,0.001000,0.001000
1031.461538,0.048910,0.001000,0.001000,0.001000,0.001000,0.001000
1031.480769,0.048653,0.001000,0.001000,0.001000,0.001000,0.001000
1031.500000,0.048370,0.001000,0.001000,0.001000,0.001000,0.001000
1031.519231,0.048060,0.001000,0.001000,0.001000,0.001000,0.001000
1031.538462,0.047724,0.001000,0.001000,0.001000,0.001000,0.001000
1031.557692,0.047362,0.001000,0.001000,0.001000,0.001000,0.001000
1031.576923,0.046974,0.001000,0.001000,0.001000,0.001000,0.001000
1031.596154,0.046560,0.001000,0.001000,0.001000,0.001000,0.001000
1031.615385,0.046120,0.001000,0.001000,0.001000,0.001000,0.001000
1031.634615,0.045655,0.001000,0.001000,0.001000,0.001000,0.001000
1031.653846,0.045165,0.001000,0.001000,0.001000,0.001000,0.001000
1031.673077,0.044650,0.001000,0.001000,0.001000,0.001000,0.001000
1031.692308,0.044111,0.001000,0.001000,0.001000,0.001000,0.001000
1031.711538,0.043548,0.001000,0.001000,0.001000,0.001000,0.001000
1031.730769,0.042960,0.001000,0.001000,0.001000,0.001000,0.001000
1031.750000,0.042350,0.001000,0.001000,0.001000,0.001000,0.001000
1031.769231,0.041716,0.001000,0.001000,0.001000,0.001000,0.001000
1031.788462,0.041059,0.001000,0.001000,0.001000,0.001000,0.001000
1031.807692,0.040379,0.001000,0.001000,0.001000,0.001000,0.001000
1031.826923,0.039677,0.001000,0.001000,0.001000,0.001000,0.001000
1031.846154,0.038954,0.001000,0.001000,0.001000,0.001000,0.001000
1031.865385,0.038209,0.001000,0.001000,0.001000,0.001000,0.001000
1031.884615,0.037444,0.001000,0.001000,0.001000,0.001000,0.001000
1031.903846,0.036657,0.001000,0.001000,0.001000,0.001000,0.001000
1031.923077,0.035851,0.001000,0.001000,0.001000,0.001000,0.001000
1031.942308,0.035025,0.001000,0.001000,0.001000,0.001000,0.001000
1031.961538,0.034180,0.001000,0.001000,0.001000,0.001000,0.001000
1031.980769,0.033316,0.001000,0.001000,0.001000,0.001000,0.001000
1032.000000,0.032433,0.001000,0.001000,0.001000,0.001000,0.001000
1032.019231,0.031533,0.001000,0.001000,0.001000,0.001000,0.001000
1032.038462,0.030616,0.001000,0.001000,0.001000,0.001000,0.001000
1032.057692,0.029682,0.001000,0.001000,0.001000,0.001000,0.001000
1032.076923,0.028731,0.001000,0.001000,0.001000,0.001000,0.001000
1032.096154,0.027765,0.001000,0.001000,0.001000,0.001000,0.001000
1032.115385,0.026784,0.001000,0.001000,0.001000,0.001000,0.001000
1032.134615,0.025788,0.001000,0.001000,0.001000,0.001000,0.001000
1032.153846,0.024777,0.001000,0.001000,0.001000,0.001000,0.001000
1032.173077,0.023754,0.001000,0.001000,0.001000,0.001000,0.001000
1032.192308,0.022717,0.001000,0.001000,0.001000,0.001000,0.001000
1032.211538,0.021667,0.001000,0.001000,0.001000,0.001000,0.001000
1032.230769,0.020606,0.001000,0.001000,0.001000,0.001000,0.001000
1032.250000,0.019534,0.001000,0.001000,0.001000,0.001000,0.001000
1032.269231,0.018450,0.001000,0.001000,0.001000,0.001000,0.001000
1032.288462,0.017357,0.001000,0.001000,0.001000,0.001000,0.001000
1032.307692,0.016254,0.001000,0.001000,0.001000,0.001000,0.001000
1032.326923,0.015142,0.001000,0.001000,0.001000,0.001000,0.001000
1032.346154,0.014022,0.001000,0.001000,0.001000,0.001000,0.001000
1032.365385,0.012894,0.001000,0.001000,0.001000,0.001000,0.001000
1032.384615,0.011760,0.001000,0.001000,0.001000,0.001000,0.001000
1032.403846,0.010618,0.001000,0.001000,0.001000,0.001000,0.001000
1032.423077,0.009471,0.001000,0.001000,0.001000,0.001000,0.001000
1032.442308,0.008319,0.001000,0.001000,0.001000,0.001000,0.001000
1032.461538,0.007162,0.001000,0.001000,0.001000,0.001000,0.001000
1032.480769,0.006001,0.001000,0.001000,0.001000,0.001000,0.001000
1032.500000,0.004837,0.001000,0.001000,0.001000,0.001000,0.001000
1032.519231,0.003670,0.001000,0.001000,0.001000,0.001000,0.001000
1032.538462,0.002501,0.001000,0.001000,0.001000,0.001000,0.001000
1032.557692,0.001331,0.001000,0.001000,0.001000,0.001000,0.001000
1032.576923,0.000160,0.001000,0.001000,0.001000,0.001000,0.001000
1032.596154,-0.001011,0.001000,0.001000,0.001000,0.001000,0.001000
1032.615385,-0.002181,0.001000,0.001000,0.001000,0.001000,0.001000
1032.634615,-0.003350,0.001000,0.001000,0.001000,0.001000,0.001000
1032.653846,-0.004518,0.001000,0.001000,0.001000,0.001000,0.001000
1032.673077,-0.005682,0.001000,0.001000,0.001000,0.001000,0.001000
1032.692308,-0.006844,0.001000,0.001000,0.001000,0.001000,0.001000
1032.711538,-0.008002,0.001000,0.001000,0.001000,0.001000,0.001000
1032.730769,-0.009156,0.001000,0.001000,0.001000,0.001000,0.001000
1032.750000,-0.010305,0.001000,0.001000,0.001000,0.001000,0.001000
1032.769231,-0.011447,0.001000,0.001000,0.001000,0.001000,0.001000
1032.788462,-0.012584,0.001000,0.001000,0.001000,0.001000,0.001000
1032.807692,-0.013714,0.001000,0.001000,0.001000,0.001000,0.001000
1032.826923,-0.014836,0.001000,0.001000,0.001000,0.001000,0.001000
1032.846154,-0.015950,0.001000,0.001000,0.001000,0.001000,0.001000
1032.865385,-0.017056,0.001000,0.001000,0.001000,0.001000,0.001000
1032.884615,-0.018152,0.001000,0.001000,0.001000,0.001000,0.001000
1032.903846,-0.019238,0.001000,0.001000,0.001000,0.001000,0.001000
1032.923077,-0.020313,0.001000,0.001000,0.001000,0.001000,0.001000
1032.942308,-0.021378,0.001000,0.001000,0.001000,0.001000,0.001000
1032.961538,-0.022430,0.001000,0.001000,0.001000,0.001000,0.001000
1032.980769,-0.023471,0.001000,0.001000,0.001000,0.001000,0.001000
1033.000000,-0.024498,0.001000,0.001000,0.001000,0.001000,0.001000
1033.019231,-0.025512,0.001000,0.001000,0.001000,0.001000,0.001000
1033.038462,-0.026512,0.001000,0.001000,0.001000,0.001000,0.001000
1033.057692,-0.027498,0.001000,0.001000,0.001000,0.001000,0.001000
1033.076923,-0.028468,0.001000,0.001000,0.001000,0.001000,0.001000
1033.096154,-0.029423,0.001000,0.001000,0.001000,0.001000,0.001000
1033.115385,-0.030362,0.001000,0.001000,0.001000,0.001000,0.001000
1033.134615,-0.031284,0.001000,0.001000,0.001000,0.001000,0.001000
1033.153846,-0.032188,0.001000,0.001000,0.001000,0.001000,0.001000
1033.173077,-0.033076,0.001000,0.001000,0.001000,0.001000,0.001000
1033.192308,-0.033945,0.001000,0.001000,0.001000,0.001000,0.001000
1033.211538,-0.034795,0.001000,0.001000,0.001000,0.001000,0.001000
1033.230769,-0.035626,0.001000,0.001000,0.001000,0.001000,0.001000
1033.250000,-0.036438,0.001000,0.001000,0.001000,0.001000,0.001000
1033.269231,-0.037230,0.001000,0.001000,0.001000,0.001000,0.001000
1033.288462,-0.038002,0.001000,0.001000,0.001000,0.001000,0.001000
1033.307692,-0.038752,0.001000,0.001000,0.001000,0.001000,0.001000
1033.326923,-0.039481,0.001000,0.001000,0.001000,0.001000,0.001000
1033.346154,-0.040189,0.001000,0.001000,0.001000,0.001000,0.001000
1033.365385,-0.040875,0.001000,0.001000,0.001000,0.001000,0.001000
1033.384615,-0.041538,0.001000,0.001000,0.001000,0.001000,0.001000
1033.403846,-0.042178,0.001000,0.001000,0.001000,0.001000,0.001000
1033.423077,-0.042795,0.001000,0.001000,0.001000,0.001000,0.001000
1033.442308,-0.043389,0.001000,0.001000,0.001000,0.001000,0.001000
1033.461538,-0.043959,0.001000,0.001000,0.001000,0.001000,0.001000
1033.480769,-0.044505,0.001000,0.001000,0.001000,0.001000,0.001000
1033.500000,-0.045027,0.001000,0.001000,0.001000,0.001000,0.001000
1033.519231,-0.045523,0.001000,0.001000,0.001000,0.001000,0.001000
1033.538462,-0.045995,0.001000,0.001000,0.001000,0.001000,0.001000
1033.557692,-0.046442,0.001000,0.001000,0.001000,0.001000,0.001000
1033.576923,-0.046863,0.001000,0.001000,0.001000,0.001000,0.001000
1033.596154,-0.047258,0.001000,0.001000,0.001000,0.001000,0.001000
1033.615385,-0.047628,0.001000,0.001000,0.001000,0.001000,0.001000
1033.634615,-0.047971,0.001000,0.001000,0.001000,0.001000,0.001000
1033.653846,-0.048288,0.001000,0.001000,0.001000,0.001000,0.001000
1033.673077,-0.048579,0.001000,0.001000,0.001000,0.001000,0.001000
1033.692308,-0.048842,0.001000,0.001000,0.001000,0.001000,0.001000
1033.711538,-0.049080,0.001000,0.001000,0.001000,0.001000,0.001000
1033.730769,-0.049290,0.001000,0.001000,0.001000,0.001000,0.001000
1033.750000,-0.049473,0.001000,0.001000,0.001000,0.001000,0.001000
1033.769231,-0.049629,0.001000,0.001000,0.001000,0.001000,0.001000
1033.788462,-0.049758,0.001000,0.001000,0.001000,0.001000,0.001000
1033.807692,-0.049859,0.001000,0.001000,0.001000,0.001000,0.001000
1033.826923,-0.049933,0.001000,0.001000,0.001000,0.001000,0.001000
1033.846154,-0.049980,0.001000,0.001000,0.001000,0.001000,0.001000
1033.865385,-0.049999,0.001000,0.001000,0.001000,0.001000,0.001000
1033.884615,-0.049991,0.001000,0.001000,0.001000,0.001000,0.001000
1033.903846,-0.049956,0.001000,0.001000,0.001000,0.001000,0.001000
1033.923077,-0.049893,0.001000,0.001000,0.001000,0.001000,0.001000
1033.942308,-0.049803,0.001000,0.001000,0.001000,0.001000,0.001000
1033.961538,-0.049685,0.001000,0.001000,0.001000,0.001000,0.001000
1033.980769,-0.049540,0.001000,0.001000,0.001000,0.001000,0.001000
1034.000000,-0.049368,0.001000,0.001000,0.001000,0.001000,0.001000
1034.019231,-0.049169,0.001000,0.001000,0.001000,0.001000,0.001000
1034.038462,-0.048943,0.001000,0.001000,0.001000,0.001000,0.001000
1034.057692,-0.048690,0.001000,0.001000,0.001000,0.001000,0.001000
1034.076923,-0.048411,0.001000,0.001000,0.001000,0.001000,0.001000
1034.096154,-0.048104,0.001000,0.001000,0.001000,0.001000,0.001000
1034.115385,-0.047772,0.001000,0.001000,0.001000,0.001000,0.001000
1034.134615,-0.047413,0.001000,0.001000,0.001000,0.001000,0.001000
1034.153846,-0.047028,0.001000,0.001000,0.001000,0.001000,0.001000
1034.173077,-0.046618,0.001000,0.001000,0.001000,0.001000,0.001000
1034.192308,-0.046182,0.001000,0.001000,0.001000,0.001000,0.001000
1034.211538,-0.045720,0.001000,0.001000,0.001000,0.001000,0.001000
1034.230769,-0.045234,0.001000,0.001000,0.001000,0.001000,0.001000
1034.250000,-0.044722,0.001000,0.001000,0.001000,0.001000,0.001000
1034.269231,-0.044187,0.001000,0.001000,0.001000,0.001000,0.001000
1034.288462,-0.043626,0.001000,0.001000,0.001000,0.001000,0.001000
1034.307692,-0.043042,0.001000,0.001000,0.001000,0.001000,0.001000
1034.326923,-0.042435,0.001000,0.001000,0.001000,0.001000,0.001000
1034.346154,-0.041804,0.001000,0.001000,0.001000,0.001000,0.001000
1034.365385,-0.041150,0.001000,0.001000,0.001000,0.001000,0.001000
1034.384615,-0.040474,0.001000,0.001000,0.001000,0.001000,0.001000
1034.403846,-0.039775,0.001000,0.001000,0.001000,0.001000,0.001000
1034.423077,-0.039054,0.001000,0.001000,0.001000,0.001000,0.001000
1034.442308,-0.038313,0.001000,0.001000,0.001000,0.001000,0.001000
1034.461538,-0.037550,0.001000,0.001000,0.001000,0.001000,0.001000
1034.480769,-0.036766,0.001000,0.001000,0.001000,0.001000,0.001000
1034.500000,-0.035963,0.001000,0.001000,0.001000,0.001000,0.001000
1034.519231,-0.035139,0.001000,0.001000,0.001000,0.001000,0.001000
1034.538462,-0.034297,0.001000,0.001000,0.001000,0.001000,0.001000
1034.557692,-0.033435,0.001000,0.001000,0.001000,0.001000,0.001000
1034.576923,-0.032555,0.001000,0.001000,0.001000,0.001000,0.001000
1034.596154,-0.031658,0.001000,0.001000,0.001000,0.001000,0.001000
1034.615385,-0.030743,0.001000,0.001000,0.001000,0.001000,0.001000
1034.634615,-0.029811,0.001000,0.001000,0.001000,0.001000,0.001000
1034.653846,-0.028863,0.001000,0.001000,0.001000,0.001000,0.001000
1034.673077,-0.027899,0.001000,0.001000,0.001000,0.001000,0.001000
