timestamp,ax,ay,az,gx,gy,gz
1000.000000,0.000000,0.001000,0.001000,0.001000,0.001000,0.001000
1000.019231,0.001123,0.001000,0.001000,0.001000,0.001000,0.001000
1000.038462,0.002246,0.001000,0.001000,0.001000,0.001000,0.001000
1000.057692,0.003368,0.001000,0.001000,0.001000,0.001000,0.001000
1000.076923,0.004488,0.001000,0.001000,0.001000,0.001000,0.001000
1000.096154,0.005606,0.001000,0.001000,0.001000,0.001000,0.001000
1000.115385,0.006721,0.001000,0.001000,0.001000,0.001000,0.001000
1000.134615,0.007833,0.001000,0.001000,0.001000,0.001000,0.001000
1000.153846,0.008940,0.001000,0.001000,0.001000,0.001000,0.001000
1000.173077,0.010043,0.001000,0.001000,0.001000,0.001000,0.001000
1000.192308,0.011142,0.001000,0.001000,0.001000,0.001000,0.001000
1000.211538,0.012234,0.001000,0.001000,0.001000,0.001000,0.001000
1000.230769,0.013320,0.001000,0.001000,0.001000,0.001000,0.001000
1000.250000,0.014400,0.001000,0.001000,0.001000,0.001000,0.001000
1000.269231,0.015472,0.001000,0.001000,0.001000,0.001000,0.001000
1000.288462,0.016536,0.001000,0.001000,0.001000,0.001000,0.001000
1000.307692,0.017593,0.001000,0.001000,0.001000,0.001000,0.001000
1000.326923,0.018640,0.001000,0.001000,0.001000,0.001000,0.001000
1000.346154,0.019678,0.001000,0.001000,0.001000,0.001000,0.001000
1000.365385,0.020705,0.001000,0.001000,0.001000,0.001000,0.001000
1000.384615,0.021723,0.001000,0.001000,0.001000,0.001000,0.001000
1000.403846,0.022729,0.001000,0.001000,0.001000,0.001000,0.001000
1000.423077,0.023724,0.001000,0.001000,0.001000,0.001000,0.001000
1000.442308,0.024707,0.001000,0.001000,0.001000,0.001000,0.001000
1000.461538,0.025678,0.001000,0.001000,0.001000,0.001000,0.001000
1000.480769,0.026635,0.001000,0.001000,0.001000,0.001000,0.001000
1000.500000,0.027579,0.001000,0.001000,0.001000,0.001000,0.001000
1000.519231,0.028509,0.001000,0.001000,0.001000,0.001000,0.001000
1000.538462,0.029425,0.001000,0.001000,0.001000,0.001000,0.001000
1000.557692,0.030326,0.001000,0.001000,0.001000,0.001000,0.001000
1000.576923,0.031212,0.001000,0.001000,0.001000,0.001000,0.001000
1000.596154,0.032082,0.001000,0.001000,0.001000,0.001000,0.001000
1000.615385,0.032935,0.001000,0.001000,0.001000,0.001000,0.001000
1000.634615,0.033772,0.001000,0.001000,0.001000,0.001000,0.001000
1000.653846,0.034592,0.001000,0.001000,0.001000,0.001000,0.001000
1000.673077,0.035395,0.001000,0.001000,0.001000,0.001000,0.001000
1000.692308,0.036179,0.001000,0.001000,0.001000,0.001000,0.001000
1000.711538,0.036946,0.001000,0.001000,0.001000,0.001000,0.001000
1000.730769,0.037693,0.001000,0.001000,0.001000,0.001000,0.001000
1000.750000,0.038422,0.001000,0.001000,0.001000,0.001000,0.001000
1000.769231,0.039131,0.001000,0.001000,0.001000,0.001000,0.001000
1000.788462,0.039821,0.001000,0.001000,0.001000,0.001000,0.001000
1000.807692,0.040490,0.001000,0.001000,0.001000,0.001000,0.001000
1000.826923,0.041139,0.001000,0.001000,0.001000,0.001000,0.001000
1000.846154,0.041767,0.001000,0.001000,0.001000,0.001000,0.001000
1000.865385,0.042374,0.001000,0.001000,0.001000,0.001000,0.001000
1000.884615,0.042960,0.001000,0.001000,0.001000,0.001000,0.001000
1000.903846,0.043524,0.001000,0.001000,0.001000,0.001000,0.001000
1000.923077,0.044066,0.001000,0.001000,0.001000,0.001000,0.001000
1000.942308,0.044586,0.001000,0.001000,0.001000,0.001000,0.001000
1000.961538,0.045083,0.001000,0.001000,0.001000,0.001000,0.001000
1000.980769,0.045557,0.001000,0.001000,0.001000,0.001000,0.001000
1001.000000,0.046009,0.001000,0.001000,0.001000,0.001000,0.001000
1001.019231,0.046437,0.001000,0.001000,0.001000,0.001000,0.001000
1001.038462,0.046842,0.001000,0.001000,0.001000,0.001000,0.001000
1001.057692,0.047223,0.001000,0.001000,0.001000,0.001000,0.001000
1001.076923,0.047580,0.001000,0.001000,0.001000,0.001000,0.001000
1001.096154,0.047914,0.001000,0.001000,0.001000,0.001000,0.001000
1001.115385,0.048223,0.001000,0.001000,0.001000,0.001000,0.001000
1001.134615,0.048507,0.001000,0.001000,0.001000,0.001000,0.001000
1001.153846,0.048768,0.001000,0.001000,0.001000,0.001000,0.001000
1001.173077,0.049003,0.001000,0.001000,0.001000,0.001000,0.001000
1001.192308,0.049214,0.001000,0.001000,0.001000,0.001000,0.001000
1001.211538,0.049400,0.001000,0.001000,0.001000,0.001000,0.001000
1001.230769,0.049561,0.001000,0.001000,0.001000,0.001000,0.001000
1001.250000,0.049697,0.001000,0.001000,0.001000,0.001000,0.001000
1001.269231,0.049808,0.001000,0.001000,0.001000,0.001000,0.001000
1001.288462,0.049894,0.001000,0.001000,0.001000,0.001000,0.001000
1001.307692,0.049954,0.001000,0.001000,0.001000,0.001000,0.001000
1001.326923,0.049990,0.001000,0.001000,0.001000,0.001000,0.001000
1001.346154,0.050000,0.001000,0.001000,0.001000,0.001000,0.001000
1001.365385,0.049985,0.001000,0.001000,0.001000,0.001000,0.001000
1001.384615,0.049944,0.001000,0.001000,0.001000,0.001000,0.001000
1001.403846,0.049879,0.001000,0.001000,0.001000,0.001000,0.001000
1001.423077,0.049788,0.001000,0.001000,0.001000,0.001000,0.001000
1001.442308,0.049672,0.001000,0.001000,0.001000,0.001000,0.001000
1001.461538,0.049531,0.001000,0.001000,0.001000,0.001000,0.001000
1001.480769,0.049365,0.001000,0.001000,0.001000,0.001000,0.001000
1001.500000,0.049174,0.001000,0.001000,0.001000,0.001000,0.001000
1001.519231,0.048958,0.001000,0.001000,0.001000,0.001000,0.001000
1001.538462,0.048718,0.001000,0.001000,0.001000,0.001000,0.001000
1001.557692,0.048453,0.001000,0.001000,0.001000,0.001000,0.001000
1001.576923,0.048163,0.001000,0.001000,0.001000,0.001000,0.001000
1001.596154,0.047849,0.001000,0.001000,0.001000,0.001000,0.001000
1001.615385,0.047511,0.001000,0.001000,0.001000,0.001000,0.001000
1001.634615,0.047149,0.001000,0.001000,0.001000,0.001000,0.001000
1001.653846,0.046764,0.001000,0.001000,0.001000,0.001000,0.001000
1001.673077,0.046354,0.001000,0.001000,0.001000,0.001000,0.001000
1001.692308,0.045921,0.001000,0.001000,0.001000,0.001000,0.001000
1001.711538,0.045465,0.001000,0.001000,0.001000,0.001000,0.001000
1001.730769,0.044986,0.001000,0.001000,0.001000,0.001000,0.001000
1001.750000,0.044484,0.001000,0.001000,0.001000,0.001000,0.001000
1001.769231,0.043960,0.001000,0.001000,0.001000,0.001000,0.001000
1001.788462,0.043414,0.001000,0.001000,0.001000,0.001000,0.001000
1001.807692,0.042846,0.001000,0.001000,0.001000,0.001000,0.001000
1001.826923,0.042256,0.001000,0.001000,0.001000,0.001000,0.001000
1001.846154,0.041644,0.001000,0.001000,0.001000,0.001000,0.001000
1001.865385,0.041012,0.001000,0.001000,0.001000,0.001000,0.001000
1001.884615,0.040359,0.001000,0.001000,0.001000,0.001000,0.001000
1001.903846,0.039686,0.001000,0.001000,0.001000,0.001000,0.001000
1001.923077,0.038992,0.001000,0.001000,0.001000,0.001000,0.001000
1001.942308,0.038279,0.001000,0.001000,0.001000,0.001000,0.001000
1001.961538,0.037547,0.001000,0.001000,0.001000,0.001000,0.001000
1001.980769,0.036795,0.001000,0.001000,0.001000,0.001000,0.001000
1002.000000,0.036025,0.001000,0.001000,0.001000,0.001000,0.001000
1002.019231,0.035237,0.001000,0.001000,0.001000,0.001000,0.001000
1002.038462,0.034431,0.001000,0.001000,0.001000,0.001000,0.001000
1002.057692,0.033608,0.001000,0.001000,0.001000,0.001000,0.001000
1002.076923,0.032767,0.001000,0.001000,0.001000,0.001000,0.001000
1002.096154,0.031911,0.001000,0.001000,0.001000,0.001000,0.001000
1002.115385,0.031038,0.001000,0.001000,0.001000,0.001000,0.001000
1002.134615,0.030149,0.001000,0.001000,0.001000,0.001000,0.001000
1002.153846,0.029245,0.001000,0.001000,0.001000,0.001000,0.001000
1002.173077,0.028326,0.001000,0.001000,0.001000,0.001000,0.001000
1002.192308,0.027393,0.001000,0.001000,0.001000,0.001000,0.001000
1002.211538,0.026447,0.001000,0.001000,0.001000,0.001000,0.001000
1002.230769,0.025487,0.001000,0.001000,0.001000,0.001000,0.001000
1002.250000,0.024514,0.001000,0.001000,0.001000,0.001000,0.001000
1002.269231,0.023528,0.001000,0.001000,0.001000,0.001000,0.001000
1002.288462,0.022531,0.001000,0.001000,0.001000,0.001000,0.001000
1002.307692,0.021522,0.001000,0.001000,0.001000,0.001000,0.001000
1002.326923,0.020503,0.001000,0.001000,0.001000,0.001000,0.001000
1002.346154,0.019473,0.001000,0.001000,0.001000,0.001000,0.001000
1002.365385,0.018433,0.001000,0.001000,0.001000,0.001000,0.001000
1002.384615,0.017384,0.001000,0.001000,0.001000,0.001000,0.001000
1002.403846,0.016326,0.001000,0.001000,0.001000,0.001000,0.001000
1002.423077,0.015260,0.001000,0.001000,0.001000,0.001000,0.001000
1002.442308,0.014187,0.001000,0.001000,0.001000,0.001000,0.001000
1002.461538,0.013106,0.001000,0.001000,0.001000,0.001000,0.001000
1002.480769,0.012018,0.001000,0.001000,0.001000,0.001000,0.001000
1002.500000,0.010925,0.001000,0.001000,0.001000,0.001000,0.001000
1002.519231,0.009825,0.001000,0.001000,0.001000,0.001000,0.001000
1002.538462,0.008721,0.001000,0.001000,0.001000,0.001000,0.001000
1002.557692,0.007613,0.001000,0.001000,0.001000,0.001000,0.001000
1002.576923,0.006501,0.001000,0.001000,0.001000,0.001000,0.001000
1002.596154,0.005385,0.001000,0.001000,0.001000,0.001000,0.001000
1002.615385,0.004267,0.001000,0.001000,0.001000,0.001000,0.001000
1002.634615,0.003146,0.001000,0.001000,0.001000,0.001000,0.001000
1002.653846,0.002024,0.001000,0.001000,0.001000,0.001000,0.001000
1002.673077,0.000901,0.001000,0.001000,0.001000,0.001000,0.001000
1002.692308,-0.000223,0.001000,0.001000,0.001000,0.001000,0.001000
1002.711538,-0.001346,0.001000,0.001000,0.001000,0.001000,0.001000
1002.730769,-0.002469,0.001000,0.001000,0.001000,0.001000,0.001000
1002.750000,-0.003590,0.001000,0.001000,0.001000,0.001000,0.001000
1002.769231,-0.004710,0.001000,0.001000,0.001000,0.001000,0.001000
1002.788462,-0.005827,0.001000,0.001000,0.001000,0.001000,0.001000
1002.807692,-0.006942,0.001000,0.001000,0.001000,0.001000,0.001000
1002.826923,-0.008052,0.001000,0.001000,0.001000,0.001000,0.001000
1002.846154,-0.009159,0.001000,0.001000,0.001000,0.001000,0.001000
1002.865385,-0.010261,0.001000,0.001000,0.001000,0.001000,0.001000
1002.884615,-0.011358,0.001000,0.001000,0.001000,0.001000,0.001000
1002.903846,-0.012450,0.001000,0.001000,0.001000,0.001000,0.001000
1002.923077,-0.013535,0.001000,0.001000,0.001000,0.001000,0.001000
1002.942308,-0.014613,0.001000,0.001000,0.001000,0.001000,0.001000
1002.961538,-0.015683,0.001000,0.001000,0.001000,0.001000,0.001000
1002.980769,-0.016746,0.001000,0.001000,0.001000,0.001000,0.001000
1003.000000,-0.017801,0.001000,0.001000,0.001000,0.001000,0.001000
1003.019231,-0.018846,0.001000,0.001000,0.001000,0.001000,0.001000
1003.038462,-0.019882,0.001000,0.001000,0.001000,0.001000,0.001000
1003.057692,-0.020908,0.001000,0.001000,0.001000,0.001000,0.001000
1003.076923,-0.021923,0.001000,0.001000,0.001000,0.001000,0.001000
1003.096154,-0.022927,0.001000,0.001000,0.001000,0.001000,0.001000
1003.115385,-0.023920,0.001000,0.001000,0.001000,0.001000,0.001000
1003.134615,-0.024900,0.001000,0.001000,0.001000,0.001000,0.001000
1003.153846,-0.025868,0.001000,0.001000,0.001000,0.001000,0.001000
1003.173077,-0.026823,0.001000,0.001000,0.001000,0.001000,0.001000
1003.192308,-0.027765,0.001000,0.001000,0.001000,0.001000,0.001000
1003.211538,-0.028692,0.001000,0.001000,0.001000,0.001000,0.001000
1003.230769,-0.029605,0.001000,0.001000,0.001000,0.001000,0.001000
1003.250000,-0.030503,0.001000,0.001000,0.001000,0.001000,0.001000
1003.269231,-0.031385,0.001000,0.001000,0.001000,0.001000,0.001000
1003.288462,-0.032252,0.001000,0.001000,0.001000,0.001000,0.001000
1003.307692,-0.033102,0.001000,0.001000,0.001000,0.001000,0.001000
1003.326923,-0.033936,0.001000,0.001000,0.001000,0.001000,0.001000
1003.346154,-0.034752,0.001000,0.001000,0.001000,0.001000,0.001000
1003.365385,-0.035551,0.001000,0.001000,0.001000,0.001000,0.001000
1003.384615,-0.036332,0.001000,0.001000,0.001000,0.001000,0.001000
1003.403846,-0.037095,0.001000,0.001000,0.001000,0.001000,0.001000
1003.423077,-0.037839,0.001000,0.001000,0.001000,0.001000,0.001000
1003.442308,-0.038564,0.001000,0.001000,0.001000,0.001000,0.001000
1003.461538,-0.039269,0.001000,0.001000,0.001000,0.001000,0.001000
1003.480769,-0.039955,0.001000,0.001000,0.001000,0.001000,0.001000
1003.500000,-0.040620,0.001000,0.001000,0.001000,0.001000,0.001000
1003.519231,-0.041265,0.001000,0.001000,0.001000,0.001000,0.001000
1003.538462,-0.041889,0.001000,0.001000,0.001000,0.001000,0.001000
1003.557692,-0.042492,0.001000,0.001000,0.001000,0.001000,0.001000
1003.576923,-0.043073,0.001000,0.001000,0.001000,0.001000,0.001000
1003.596154,-0.043633,0.001000,0.001000,0.001000,0.001000,0.001000
1003.615385,-0.044171,0.001000,0.001000,0.001000,0.001000,0.001000
1003.634615,-0.044686,0.001000,0.001000,0.001000,0.001000,0.001000
1003.653846,-0.045179,0.001000,0.001000,0.001000,0.001000,0.001000
1003.673077,-0.045649,0.001000,0.001000,0.001000,0.001000,0.001000
1003.692308,-0.046095,0.001000,0.001000,0.001000,0.001000,0.001000
1003.711538,-0.046519,0.001000,0.001000,0.001000,0.001000,0.001000
1003.730769,-0.046919,0.001000,0.001000,0.001000,0.001000,0.001000
1003.750000,-0.047296,0.001000,0.001000,0.001000,0.001000,0.001000
1003.769231,-0.047648,0.001000,0.001000,0.001000,0.001000,0.001000
1003.788462,-0.047977,0.001000,0.001000,0.001000,0.001000,0.001000
1003.807692,-0.048281,0.001000,0.001000,0.001000,0.001000,0.001000
1003.826923,-0.048561,0.001000,0.001000,0.001000,0.001000,0.001000
1003.846154,-0.048816,0.001000,0.001000,0.001000,0.001000,0.001000
1003.865385,-0.049047,0.001000,0.001000,0.001000,0.001000,0.001000
1003.884615,-0.049253,0.001000,0.001000,0.001000,0.001000,0.001000
1003.903846,-0.049434,0.001000,0.001000,0.001000,0.001000,0.001000
1003.923077,-0.049590,0.001000,0.001000,0.001000,0.001000,0.001000
1003.942308,-0.049721,0.001000,0.001000,0.001000,0.001000,0.001000
1003.961538,-0.049827,0.001000,0.001000,0.001000,0.001000,0.001000
1003.980769,-0.049908,0.001000,0.001000,0.001000,0.001000,0.001000
1004.000000,-0.049963,0.001000,0.001000,0.001000,0.001000,0.001000
1004.019231,-0.049994,0.001000,0.001000,0.001000,0.001000,0.001000
1004.038462,-0.049999,0.001000,0.001000,0.001000,0.001000,0.001000
1004.057692,-0.049979,0.001000,0.001000,0.001000,0.001000,0.001000
1004.076923,-0.049933,0.001000,0.001000,0.001000,0.001000,0.001000
1004.096154,-0.049863,0.001000,0.001000,0.001000,0.001000,0.001000
1004.115385,-0.049767,0.001000,0.001000,0.001000,0.001000,0.001000
1004.134615,-0.049646,0.001000,0.001000,0.001000,0.001000,0.001000
1004.153846,-0.049500,0.001000,0.001000,0.001000,0.001000,0.001000
1004.173077,-0.049329,0.001000,0.001000,0.001000,0.001000,0.001000
1004.192308,-0.049133,0.001000,0.001000,0.001000,0.001000,0.001000
1004.211538,-0.048913,0.001000,0.001000,0.001000,0.001000,0.001000
1004.230769,-0.048667,0.001000,0.001000,0.001000,0.001000,0.001000
1004.250000,-0.048397,0.001000,0.001000,0.001000,0.001000,0.001000
1004.269231,-0.048103,0.001000,0.001000,0.001000,0.001000,0.001000
1004.288462,-0.047784,0.001000,0.001000,0.001000,0.001000,0.001000
1004.307692,-0.047442,0.001000,0.001000,0.001000,0.001000,0.001000
1004.326923,-0.047075,0.001000,0.001000,0.001000,0.001000,0.001000
1004.346154,-0.046684,0.001000,0.001000,0.001000,0.001000,0.001000
1004.365385,-0.046270,0.001000,0.001000,0.001000,0.001000,0.001000
1004.384615,-0.045833,0.001000,0.001000,0.001000,0.001000,0.001000
1004.403846,-0.045372,0.001000,0.001000,0.001000,0.001000,0.001000
1004.423077,-0.044889,0.001000,0.001000,0.001000,0.001000,0.001000
1004.442308,-0.044382,0.001000,0.001000,0.001000,0.001000,0.001000
1004.461538,-0.043854,0.001000,0.001000,0.001000,0.001000,0.001000
1004.480769,-0.043303,0.001000,0.001000,0.001000,0.001000,0.001000
1004.500000,-0.042730,0.001000,0.001000,0.001000,0.001000,0.001000
1004.519231,-0.042136,0.001000,0.001000,0.001000,0.001000,0.001000
1004.538462,-0.041521,0.001000,0.001000,0.001000,0.001000,0.001000
1004.557692,-0.040884,0.001000,0.001000,0.001000,0.001000,0.001000
1004.576923,-0.040227,0.001000,0.001000,0.001000,0.001000,0.001000
1004.596154,-0.039550,0.001000,0.001000,0.001000,0.001000,0.001000
1004.615385,-0.038853,0.001000,0.001000,0.001000,0.001000,0.001000
1004.634615,-0.038136,0.001000,0.001000,0.001000,0.001000,0.001000
1004.653846,-0.037399,0.001000,0.001000,0.001000,0.001000,0.001000
1004.673077,-0.036644,0.001000,0.001000,0.001000,0.001000,0.001000
1004.692308,-0.035871,0.001000,0.001000,0.001000,0.001000,0.001000
1004.711538,-0.035079,0.001000,0.001000,0.001000,0.001000,0.001000
1004.730769,-0.034269,0.001000,0.001000,0.001000,0.001000,0.001000
1004.750000,-0.033443,0.001000,0.001000,0.001000,0.001000,0.001000
1004.769231,-0.032599,0.001000,0.001000,0.001000,0.001000,0.001000
1004.788462,-0.031739,0.001000,0.001000,0.001000,0.001000,0.001000
1004.807692,-0.030863,0.001000,0.001000,0.001000,0.001000,0.001000
1004.826923,-0.029971,0.001000,0.001000,0.001000,0.001000,0.001000
1004.846154,-0.029064,0.001000,0.001000,0.001000,0.001000,0.001000
1004.865385,-0.028143,0.001000,0.001000,0.001000,0.001000,0.001000
1004.884615,-0.027207,0.001000,0.001000,0.001000,0.001000,0.001000
1004.903846,-0.026258,0.001000,0.001000,0.001000,0.001000,0.001000
1004.923077,-0.025295,0.001000,0.001000,0.001000,0.001000,0.001000
1004.942308,-0.024319,0.001000,0.001000,0.001000,0.001000,0.001000
1004.961538,-0.023332,0.001000,0.001000,0.001000,0.001000,0.001000
1004.980769,-0.022332,0.001000,0.001000,0.001000,0.001000,0.001000
1005.000000,-0.021321,0.001000,0.001000,0.001000,0.001000,0.001000
1005.019231,-0.020300,0.001000,0.001000,0.001000,0.001000,0.001000
1005.038462,-0.019268,0.001000,0.001000,0.001000,0.001000,0.001000
1005.057692,-0.018226,0.001000,0.001000,0.001000,0.001000,0.001000
1005.076923,-0.017175,0.001000,0.001000,0.001000,0.001000,0.001000
1005.096154,-0.016116,0.001000,0.001000,0.001000,0.001000,0.001000
1005.115385,-0.015048,0.001000,0.001000,0.001000,0.001000,0.001000
1005.134615,-0.013973,0.001000,0.001000,0.001000,0.001000,0.001000
1005.153846,-0.012891,0.001000,0.001000,0.001000,0.001000,0.001000
1005.173077,-0.011802,0.001000,0.001000,0.001000,0.001000,0.001000
1005.192308,-0.010707,0.001000,0.001000,0.001000,0.001000,0.001000
1005.211538,-0.009607,0.001000,0.001000,0.001000,0.001000,0.001000
1005.230769,-0.008502,0.001000,0.001000,0.001000,0.001000,0.001000
1005.250000,-0.007393,0.001000,0.001000,0.001000,0.001000,0.001000
1005.269231,-0.006280,0.001000,0.001000,0.001000,0.001000,0.001000
1005.288462,-0.005164,0.001000,0.001000,0.001000,0.001000,0.001000
1005.307692,-0.004045,0.001000,0.001000,0.001000,0.001000,0.001000
1005.326923,-0.002924,0.001000,0.001000,0.001000,0.001000,0.001000
1005.346154,-0.001802,0.001000,0.001000,0.001000,0.001000,0.001000
1005.365385,-0.000679,0.001000,0.001000,0.001000,0.001000,0.001000
1005.384615,0.000445,0.001000,0.001000,0.001000,0.001000,0.001000
1005.403846,0.001568,0.001000,0.001000,0.001000,0.001000,0.001000
1005.423077,0.002691,0.001000,0.001000,0.001000,0.001000,0.001000
1005.442308,0.003812,0.001000,0.001000,0.001000,0.001000,0.001000
1005.461538,0.004931,0.001000,0.001000,0.001000,0.001000,0.001000
1005.480769,0.006048,0.001000,0.001000,0.001000,0.001000,0.001000
1005.500000,0.007162,0.001000,0.001000,0.001000,0.001000,0.001000
1005.519231,0.008272,0.001000,0.001000,0.001000,0.001000,0.001000
1005.538462,0.009378,0.001000,0.001000,0.001000,0.001000,0.001000
1005.557692,0.010479,0.001000,0.001000,0.001000,0.001000,0.001000
1005.576923,0.011575,0.001000,0.001000,0.001000,0.001000,0.001000
1005.596154,0.012665,0.001000,0.001000,0.001000,0.001000,0.001000
1005.615385,0.013749,0.001000,0.001000,0.001000,0.001000,0.001000
1005.634615,0.014825,0.001000,0.001000,0.001000,0.001000,0.001000
1005.653846,0.015895,0.001000,0.001000,0.001000,0.001000,0.001000
1005.673077,0.016956,0.001000,0.001000,0.001000,0.001000,0.001000
1005.692308,0.018008,0.001000,0.001000,0.001000,0.001000,0.001000
1005.711538,0.019052,0.001000,0.001000,0.001000,0.001000,0.001000
1005.730769,0.020086,0.001000,0.001000,0.001000,0.001000,0.001000
1005.750000,0.021110,0.001000,0.001000,0.001000,0.001000,0.001000
1005.769231,0.022123,0.001000,0.001000,0.001000,0.001000,0.001000
1005.788462,0.023125,0.001000,0.001000,0.001000,0.001000,0.001000
1005.807692,0.024115,0.001000,0.001000,0.001000,0.001000,0.001000
1005.826923,0.025093,0.001000,0.001000,0.001000,0.001000,0.001000
1005.846154,0.026059,0.001000,0.001000,0.001000,0.001000,0.001000
1005.865385,0.027011,0.001000,0.001000,0.001000,0.001000,0.001000
1005.884615,0.027949,0.001000,0.001000,0.001000,0.001000,0.001000
1005.903846,0.028874,0.001000,0.001000,0.001000,0.001000,0.001000
1005.923077,0.029784,0.001000,0.001000,0.001000,0.001000,0.001000
1005.942308,0.030679,0.001000,0.001000,0.001000,0.001000,0.001000
1005.961538,0.031558,0.001000,0.001000,0.001000,0.001000,0.001000
1005.980769,0.032422,0.001000,0.001000,0.001000,0.001000,0.001000
1006.000000,0.033269,0.001000,0.001000,0.001000,0.001000,0.001000
1006.019231,0.034099,0.001000,0.001000,0.001000,0.001000,0.001000
1006.038462,0.034912,0.001000,0.001000,0.001000,0.001000,0.001000
1006.057692,0.035708,0.001000,0.001000,0.001000,0.001000,0.001000
1006.076923,0.036485,0.001000,0.001000,0.001000,0.001000,0.001000
1006.096154,0.037244,0.001000,0.001000,0.001000,0.001000,0.001000
1006.115385,0.037984,0.001000,0.001000,0.001000,0.001000,0.001000
1006.134615,0.038705,0.001000,0.001000,0.001000,0.001000,0.001000
1006.153846,0.039407,0.001000,0.001000,0.001000,0.001000,0.001000
1006.173077,0.040088,0.001000,0.001000,0.001000,0.001000,0.001000
1006.192308,0.040750,0.001000,0.001000,0.001000,0.001000,0.001000
1006.211538,0.041390,0.001000,0.001000,0.001000,0.001000,0.001000
1006.230769,0.042010,0.001000,0.001000,0.001000,0.001000,0.001000
1006.250000,0.042609,0.001000,0.001000,0.001000,0.001000,0.001000
1006.269231,0.043186,0.001000,0.001000,0.001000,0.001000,0.001000
1006.288462,0.043741,0.001000,0.001000,0.001000,0.001000,0.001000
1006.307692,0.044274,0.001000,0.001000,0.001000,0.001000,0.001000
1006.326923,0.044785,0.001000,0.001000,0.001000,0.001000,0.001000
1006.346154,0.045274,0.001000,0.001000,0.001000,0.001000,0.001000
1006.365385,0.045739,0.001000,0.001000,0.001000,0.001000,0.001000
1006.384615,0.046181,0.001000,0.001000,0.001000,0.001000,0.001000
1006.403846,0.046600,0.001000,0.001000,0.001000,0.001000,0.001000
1006.423077,0.046996,0.001000,0.001000,0.001000,0.001000,0.001000
1006.442308,0.047367,0.001000,0.001000,0.001000,0.001000,0.001000
1006.461538,0.047715,0.001000,0.001000,0.001000,0.001000,0.001000
1006.480769,0.048039,0.001000,0.001000,0.001000,0.001000,0.001000
1006.500000,0.048338,0.001000,0.001000,0.001000,0.001000,0.001000
1006.519231,0.048613,0.001000,0.001000,0.001000,0.001000,0.001000
1006.538462,0.048864,0.001000,0.001000,0.001000,0.001000,0.001000
1006.557692,0.049090,0.001000,0.001000,0.001000,0.001000,0.001000
1006.576923,0.049291,0.001000,0.001000,0.001000,0.001000,0.001000
1006.596154,0.049467,0.001000,0.001000,0.001000,0.001000,0.001000
1006.615385,0.049618,0.001000,0.001000,0.001000,0.001000,0.001000
1006.634615,0.049744,0.001000,0.001000,0.001000,0.001000,0.001000
1006.653846,0.049845,0.001000,0.001000,0.001000,0.001000,0.001000
1006.673077,0.049921,0.001000,0.001000,0.001000,0.001000,0.001000
1006.692308,0.049971,0.001000,0.001000,0.001000,0.001000,0.001000
1006.711538,0.049997,0.001000,0.001000,0.001000,0.001000,0.001000
1006.730769,0.049997,0.001000,0.001000,0.001000,0.001000,0.001000
1006.750000,0.049972,0.001000,0.001000,0.001000,0.001000,0.001000
1006.769231,0.049921,0.001000,0.001000,0.001000,0.001000,0.001000
1006.788462,0.049846,0.001000,0.001000,0.001000,0.001000,0.001000
1006.807692,0.049745,0.001000,0.001000,0.001000,0.001000,0.001000
1006.826923,0.049619,0.001000,0.001000,0.001000,0.001000,0.001000
1006.846154,0.049468,0.001000,0.001000,0.001000,0.001000,0.001000
1006.865385,0.049292,0.001000,0.001000,0.001000,0.001000,0.001000
1006.884615,0.049092,0.001000,0.001000,0.001000,0.001000,0.001000
1006.903846,0.048866,0.001000,0.001000,0.001000,0.001000,0.001000
1006.923077,0.048616,0.001000,0.001000,0.001000,0.001000,0.001000
1006.942308,0.048341,0.001000,0.001000,0.001000,0.001000,0.001000
1006.961538,0.048042,0.001000,0.001000,0.001000,0.001000,0.001000
1006.980769,0.047718,0.001000,0.001000,0.001000,0.001000,0.001000
1007.000000,0.047371,0.001000,0.001000,0.001000,0.001000,0.001000
1007.019231,0.046999,0.001000,0.001000,0.001000,0.001000,0.001000
1007.038462,0.046604,0.001000,0.001000,0.001000,0.001000,0.001000
1007.057692,0.046185,0.001000,0.001000,0.001000,0.001000,0.001000
1007.076923,0.045743,0.001000,0.001000,0.001000,0.001000,0.001000
1007.096154,0.045278,0.001000,0.001000,0.001000,0.001000,0.001000
1007.115385,0.044790,0.001000,0.001000,0.001000,0.001000,0.001000
1007.134615,0.044280,0.001000,0.001000,0.001000,0.001000,0.001000
1007.153846,0.043747,0.001000,0.001000,0.001000,0.001000,0.001000
1007.173077,0.043191,0.001000,0.001000,0.001000,0.001000,0.001000
1007.192308,0.042615,0.001000,0.001000,0.001000,0.001000,0.001000
1007.211538,0.042016,0.001000,0.001000,0.001000,0.001000,0.001000
1007.230769,0.041396,0.001000,0.001000,0.001000,0.001000,0.001000
1007.250000,0.040756,0.001000,0.001000,0.001000,0.001000,0.001000
1007.269231,0.040095,0.001000,0.001000,0.001000,0.001000,0.001000
1007.288462,0.039413,0.001000,0.001000,0.001000,0.001000,0.001000
1007.307692,0.038712,0.001000,0.001000,0.001000,0.001000,0.001000
1007.326923,0.037991,0.001000,0.001000,0.001000,0.001000,0.001000
1007.346154,0.037251,0.001000,0.001000,0.001000,0.001000,0.001000
1007.365385,0.036493,0.001000,0.001000,0.001000,0.001000,0.001000
1007.384615,0.035715,0.001000,0.001000,0.001000,0.001000,0.001000
1007.403846,0.034920,0.001000,0.001000,0.001000,0.001000,0.001000
1007.423077,0.034107,0.001000,0.001000,0.001000,0.001000,0.001000
1007.442308,0.033277,0.001000,0.001000,0.001000,0.001000,0.001000
1007.461538,0.032430,0.001000,0.001000,0.001000,0.001000,0.001000
1007.480769,0.031567,0.001000,0.001000,0.001000,0.001000,0.001000
1007.500000,0.030687,0.001000,0.001000,0.001000,0.001000,0.001000
1007.519231,0.029793,0.001000,0.001000,0.001000,0.001000,0.001000
1007.538462,0.028883,0.001000,0.001000,0.001000,0.001000,0.001000
1007.557692,0.027959,0.001000,0.001000,0.001000,0.001000,0.001000
1007.576923,0.027020,0.001000,0.001000,0.001000,0.001000,0.001000
1007.596154,0.026068,0.001000,0.001000,0.001000,0.001000,0.001000
1007.615385,0.025103,0.001000,0.001000,0.001000,0.001000,0.001000
1007.634615,0.024125,0.001000,0.001000,0.001000,0.001000,0.001000
1007.653846,0.023134,0.001000,0.001000,0.001000,0.001000,0.001000
1007.673077,0.022133,0.001000,0.001000,0.001000,0.001000,0.001000
1007.692308,0.021120,0.001000,0.001000,0.001000,0.001000,0.001000
1007.711538,0.020096,0.001000,0.001000,0.001000,0.001000,0.001000
1007.730769,0.019062,0.001000,0.001000,0.001000,0.001000,0.001000
1007.750000,0.018019,0.001000,0.001000,0.001000,0.001000,0.001000
1007.769231,0.016966,0.001000,0.001000,0.001000,0.001000,0.001000
1007.788462,0.015905,0.001000,0.001000,0.001000,0.001000,0.001000
1007.807692,0.014836,0.001000,0.001000,0.001000,0.001000,0.001000
1007.826923,0.013759,0.001000,0.001000,0.001000,0.001000,0.001000
1007.846154,0.012676,0.001000,0.001000,0.001000,0.001000,0.001000
1007.865385,0.011586,0.001000,0.001000,0.001000,0.001000,0.001000
1007.884615,0.010490,0.001000,0.001000,0.001000,0.001000,0.001000
1007.903846,0.009389,0.001000,0.001000,0.001000,0.001000,0.001000
1007.923077,0.008283,0.001000,0.001000,0.001000,0.001000,0.001000
1007.942308,0.007173,0.001000,0.001000,0.001000,0.001000,0.001000
1007.961538,0.006059,0.001000,0.001000,0.001000,0.001000,0.001000
1007.980769,0.004942,0.001000,0.001000,0.001000,0.001000,0.001000
1008.000000,0.003823,0.001000,0.001000,0.001000,0.001000,0.001000
1008.019231,0.002702,0.001000,0.001000,0.001000,0.001000,0.001000
1008.038462,0.001579,0.001000,0.001000,0.001000,0.001000,0.001000
1008.057692,0.000456,0.001000,0.001000,0.001000,0.001000,0.001000
1008.076923,-0.000668,0.001000,0.001000,0.001000,0.001000,0.001000
1008.096154,-0.001791,0.001000,0.001000,0.001000,0.001000,0.001000
1008.115385,-0.002913,0.001000,0.001000,0.001000,0.001000,0.001000
1008.134615,-0.004034,0.001000,0.001000,0.001000,0.001000,0.001000
1008.153846,-0.005153,0.001000,0.001000,0.001000,0.001000,0.001000
1008.173077,-0.006269,0.001000,0.001000,0.001000,0.001000,0.001000
1008.192308,-0.007382,0.001000,0.001000,0.001000,0.001000,0.001000
1008.211538,-0.008491,0.001000,0.001000,0.001000,0.001000,0.001000
1008.230769,-0.009596,0.001000,0.001000,0.001000,0.001000,0.001000
1008.250000,-0.010697,0.001000,0.001000,0.001000,0.001000,0.001000
1008.269231,-0.011791,0.001000,0.001000,0.001000,0.001000,0.001000
1008.288462,-0.012880,0.001000,0.001000,0.001000,0.001000,0.001000
1008.307692,-0.013962,0.001000,0.001000,0.001000,0.001000,0.001000
1008.326923,-0.015038,0.001000,0.001000,0.001000,0.001000,0.001000
1008.346154,-0.016105,0.001000,0.001000,0.001000,0.001000,0.001000
1008.365385,-0.017165,0.001000,0.001000,0.001000,0.001000,0.001000
1008.384615,-0.018216,0.001000,0.001000,0.001000,0.001000,0.001000
1008.403846,-0.019258,0.001000,0.001000,0.001000,0.001000,0.001000
1008.423077,-0.020289,0.001000,0.001000,0.001000,0.001000,0.001000
1008.442308,-0.021311,0.001000,0.001000,0.001000,0.001000,0.001000
1008.461538,-0.022322,0.001000,0.001000,0.001000,0.001000,0.001000
1008.480769,-0.023322,0.001000,0.001000,0.001000,0.001000,0.001000
1008.500000,-0.024310,0.001000,0.001000,0.001000,0.001000,0.001000
1008.519231,-0.025285,0.001000,0.001000,0.001000,0.001000,0.001000
1008.538462,-0.026248,0.001000,0.001000,0.001000,0.001000,0.001000
1008.557692,-0.027198,0.001000,0.001000,0.001000,0.001000,0.001000
1008.576923,-0.028134,0.001000,0.001000,0.001000,0.001000,0.001000
1008.596154,-0.029055,0.001000,0.001000,0.001000,0.001000,0.001000
1008.615385,-0.029962,0.001000,0.001000,0.001000,0.001000,0.001000
1008.634615,-0.030854,0.001000,0.001000,0.001000,0.001000,0.001000
1008.653846,-0.031730,0.001000,0.001000,0.001000,0.001000,0.001000
1008.673077,-0.032591,0.001000,0.001000,0.001000,0.001000,0.001000
1008.692308,-0.033435,0.001000,0.001000,0.001000,0.001000,0.001000
1008.711538,-0.034261,0.001000,0.001000,0.001000,0.001000,0.001000
1008.730769,-0.035071,0.001000,0.001000,0.001000,0.001000,0.001000
1008.750000,-0.035863,0.001000,0.001000,0.001000,0.001000,0.001000
1008.769231,-0.036637,0.001000,0.001000,0.001000,0.001000,0.001000
1008.788462,-0.037392,0.001000,0.001000,0.001000,0.001000,0.001000
1008.807692,-0.038129,0.001000,0.001000,0.001000,0.001000,0.001000
1008.826923,-0.038846,0.001000,0.001000,0.001000,0.001000,0.001000
1008.846154,-0.039543,0.001000,0.001000,0.001000,0.001000,0.001000
1008.865385,-0.040221,0.001000,0.001000,0.001000,0.001000,0.001000
1008.884615,-0.040878,0.001000,0.001000,0.001000,0.001000,0.001000
1008.903846,-0.041515,0.001000,0.001000,0.001000,0.001000,0.001000
1008.923077,-0.042130,0.001000,0.001000,0.001000,0.001000,0.001000
1008.942308,-0.042725,0.001000,0.001000,0.001000,0.001000,0.001000
1008.961538,-0.043298,0.001000,0.001000,0.001000,0.001000,0.001000
1008.980769,-0.043849,0.001000,0.001000,0.001000,0.001000,0.001000
1009.000000,-0.044377,0.001000,0.001000,0.001000,0.001000,0.001000
1009.019231,-0.044884,0.001000,0.001000,0.001000,0.001000,0.001000
1009.038462,-0.045368,0.001000,0.001000,0.001000,0.001000,0.001000
1009.057692,-0.045828,0.001000,0.001000,0.001000,0.001000,0.001000
1009.076923,-0.046266,0.001000,0.001000,0.001000,0.001000,0.001000
1009.096154,-0.046680,0.001000,0.001000,0.001000,0.001000,0.001000
1009.115385,-0.047071,0.001000,0.001000,0.001000,0.001000,0.001000
1009.134615,-0.047438,0.001000,0.001000,0.001000,0.001000,0.001000
1009.153846,-0.047781,0.001000,0.001000,0.001000,0.001000,0.001000
1009.173077,-0.048100,0.001000,0.001000,0.001000,0.001000,0.001000
1009.192308,-0.048395,0.001000,0.001000,0.001000,0.001000,0.001000
1009.211538,-0.048665,0.001000,0.001000,0.001000,0.001000,0.001000
1009.230769,-0.048910,0.001000,0.001000,0.001000,0.001000,0.001000
1009.250000,-0.049131,0.001000,0.001000,0.001000,0.001000,0.001000
1009.269231,-0.049327,0.001000,0.001000,0.001000,0.001000,0.001000
1009.288462,-0.049499,0.001000,0.001000,0.001000,0.001000,0.001000
1009.307692,-0.049645,0.001000,0.001000,0.001000,0.001000,0.001000
1009.326923,-0.049766,0.001000,0.001000,0.001000,0.001000,0.001000
1009.346154,-0.049862,0.001000,0.001000,0.001000,0.001000,0.001000
1009.365385,-0.049933,0.001000,0.001000,0.001000,0.001000,0.001000
1009.384615,-0.049978,0.001000,0.001000,0.001000,0.001000,0.001000
1009.403846,-0.049999,0.001000,0.001000,0.001000,0.001000,0.001000
1009.423077,-0.049994,0.001000,0.001000,0.001000,0.001000,0.001000
1009.442308,-0.049964,0.001000,0.001000,0.001000,0.001000,0.001000
1009.461538,-0.049908,0.001000,0.001000,0.001000,0.001000,0.001000
1009.480769,-0.049828,0.001000,0.001000,0.001000,0.001000,0.001000
1009.500000,-0.049722,0.001000,0.001000,0.001000,0.001000,0.001000
1009.519231,-0.049591,0.001000,0.001000,0.001000,0.001000,0.001000
1009.538462,-0.049436,0.001000,0.001000,0.001000,0.001000,0.001000
1009.557692,-0.049255,0.001000,0.001000,0.001000,0.001000,0.001000
1009.576923,-0.049049,0.001000,0.001000,0.001000,0.001000,0.001000
1009.596154,-0.048819,0.001000,0.001000,0.001000,0.001000,0.001000
1009.615385,-0.048563,0.001000,0.001000,0.001000,0.001000,0.001000
1009.634615,-0.048284,0.001000,0.001000,0.001000,0.001000,0.001000
1009.653846,-0.047980,0.001000,0.001000,0.001000,0.001000,0.001000
1009.673077,-0.047652,0.001000,0.001000,0.001000,0.001000,0.001000
1009.692308,-0.047299,0.001000,0.001000,0.001000,0.001000,0.001000
1009.711538,-0.046923,0.001000,0.001000,0.001000,0.001000,0.001000
1009.730769,-0.046523,0.001000,0.001000,0.001000,0.001000,0.001000
1009.750000,-0.046100,0.001000,0.001000,0.001000,0.001000,0.001000
1009.769231,-0.045653,0.001000,0.001000,0.001000,0.001000,0.001000
1009.788462,-0.045183,0.001000,0.001000,0.001000,0.001000,0.001000
1009.807692,-0.044691,0.001000,0.001000,0.001000,0.001000,0.001000
1009.826923,-0.044176,0.001000,0.001000,0.001000,0.001000,0.001000
1009.846154,-0.043638,0.001000,0.001000,0.001000,0.001000,0.001000
1009.865385,-0.043079,0.001000,0.001000,0.001000,0.001000,0.001000
1009.884615,-0.042498,0.001000,0.001000,0.001000,0.001000,0.001000
1009.903846,-0.041895,0.001000,0.001000,0.001000,0.001000,0.001000
1009.923077,-0.041271,0.001000,0.001000,0.001000,0.001000,0.001000
1009.942308,-0.040627,0.001000,0.001000,0.001000,0.001000,0.001000
1009.961538,-0.039961,0.001000,0.001000,0.001000,0.001000,0.001000
1009.980769,-0.039276,0.001000,0.001000,0.001000,0.001000,0.001000
1010.000000,-0.038571,0.001000,0.001000,0.001000,0.001000,0.001000
1010.019231,-0.037846,0.001000,0.001000,0.001000,0.001000,0.001000
1010.038462,-0.037103,0.001000,0.001000,0.001000,0.001000,0.001000
1010.057692,-0.036340,0.001000,0.001000,0.001000,0.001000,0.001000
1010.076923,-0.035559,0.001000,0.001000,0.001000,0.001000,0.001000
1010.096154,-0.034760,0.001000,0.001000,0.001000,0.001000,0.001000
1010.115385,-0.033944,0.001000,0.001000,0.001000,0.001000,0.001000
1010.134615,-0.033111,0.001000,0.001000,0.001000,0.001000,0.001000
1010.153846,-0.032260,0.001000,0.001000,0.001000,0.001000,0.001000
1010.173077,-0.031394,0.001000,0.001000,0.001000,0.001000,0.001000
1010.192308,-0.030511,0.001000,0.001000,0.001000,0.001000,0.001000
1010.211538,-0.029614,0.001000,0.001000,0.001000,0.001000,0.001000
1010.230769,-0.028701,0.001000,0.001000,0.001000,0.001000,0.001000
1010.250000,-0.027774,0.001000,0.001000,0.001000,0.001000,0.001000
1010.269231,-0.026833,0.001000,0.001000,0.001000,0.001000,0.001000
1010.288462,-0.025878,0.001000,0.001000,0.001000,0.001000,0.001000
1010.307692,-0.024910,0.001000,0.001000,0.001000,0.001000,0.001000
1010.326923,-0.023930,0.001000,0.001000,0.001000,0.001000,0.001000
1010.346154,-0.022937,0.001000,0.001000,0.001000,0.001000,0.001000
1010.365385,-0.021933,0.001000,0.001000,0.001000,0.001000,0.001000
1010.384615,-0.020918,0.001000,0.001000,0.001000,0.001000,0.001000
1010.403846,-0.019892,0.001000,0.001000,0.001000,0.001000,0.001000
1010.423077,-0.018856,0.001000,0.001000,0.001000,0.001000,0.001000
1010.442308,-0.017811,0.001000,0.001000,0.001000,0.001000,0.001000
1010.461538,-0.016757,0.001000,0.001000,0.001000,0.001000,0.001000
1010.480769,-0.015694,0.001000,0.001000,0.001000,0.001000,0.001000
1010.500000,-0.014623,0.001000,0.001000,0.001000,0.001000,0.001000
1010.519231,-0.013545,0.001000,0.001000,0.001000,0.001000,0.001000
1010.538462,-0.012460,0.001000,0.001000,0.001000,0.001000,0.001000
1010.557692,-0.011369,0.001000,0.001000,0.001000,0.001000,0.001000
1010.576923,-0.010272,0.001000,0.001000,0.001000,0.001000,0.001000
1010.596154,-0.009170,0.001000,0.001000,0.001000,0.001000,0.001000
1010.615385,-0.008063,0.001000,0.001000,0.001000,0.001000,0.001000
1010.634615,-0.006952,0.001000,0.001000,0.001000,0.001000,0.001000
1010.653846,-0.005838,0.001000,0.001000,0.001000,0.001000,0.001000
1010.673077,-0.004721,0.001000,0.001000,0.001000,0.001000,0.001000
1010.692308,-0.003601,0.001000,0.001000,0.001000,0.001000,0.001000
1010.711538,-0.002480,0.001000,0.001000,0.001000,0.001000,0.001000
1010.730769,-0.001357,0.001000,0.001000,0.001000,0.001000,0.001000
1010.750000,-0.000234,0.001000,0.001000,0.001000,0.001000,0.001000
1010.769231,0.000890,0.001000,0.001000,0.001000,0.001000,0.001000
1010.788462,0.002013,0.001000,0.001000,0.001000,0.001000,0.001000
1010.807692,0.003135,0.001000,0.001000,0.001000,0.001000,0.001000
1010.826923,0.004256,0.001000,0.001000,0.001000,0.001000,0.001000
1010.846154,0.005374,0.001000,0.001000,0.001000,0.001000,0.001000
1010.865385,0.006490,0.001000,0.001000,0.001000,0.001000,0.001000
1010.884615,0.007602,0.001000,0.001000,0.001000,0.001000,0.001000
1010.903846,0.008711,0.001000,0.001000,0.001000,0.001000,0.001000
1010.923077,0.009815,0.001000,0.001000,0.001000,0.001000,0.001000
1010.942308,0.010914,0.001000,0.001000,0.001000,0.001000,0.001000
1010.961538,0.012007,0.001000,0.001000,0.001000,0.001000,0.001000
1010.980769,0.013095,0.001000,0.001000,0.001000,0.001000,0.001000
1011.000000,0.014176,0.001000,0.001000,0.001000,0.001000,0.001000
1011.019231,0.015250,0.001000,0.001000,0.001000,0.001000,0.001000
1011.038462,0.016316,0.001000,0.001000,0.001000,0.001000,0.001000
1011.057692,0.017374,0.001000,0.001000,0.001000,0.001000,0.001000
1011.076923,0.018423,0.001000,0.001000,0.001000,0.001000,0.001000
1011.096154,0.019463,0.001000,0.001000,0.001000,0.001000,0.001000
1011.115385,0.020493,0.001000,0.001000,0.001000,0.001000,0.001000
1011.134615,0.021512,0.001000,0.001000,0.001000,0.001000,0.001000
1011.153846,0.022521,0.001000,0.001000,0.001000,0.001000,0.001000
1011.173077,0.023518,0.001000,0.001000,0.001000,0.001000,0.001000
1011.192308,0.024504,0.001000,0.001000,0.001000,0.001000,0.001000
1011.211538,0.025477,0.001000,0.001000,0.001000,0.001000,0.001000
1011.230769,0.026437,0.001000,0.001000,0.001000,0.001000,0.001000
1011.250000,0.027384,0.001000,0.001000,0.001000,0.001000,0.001000
1011.269231,0.028317,0.001000,0.001000,0.001000,0.001000,0.001000
1011.288462,0.029236,0.001000,0.001000,0.001000,0.001000,0.001000
1011.307692,0.030140,0.001000,0.001000,0.001000,0.001000,0.001000
1011.326923,0.031029,0.001000,0.001000,0.001000,0.001000,0.001000
1011.346154,0.031902,0.001000,0.001000,0.001000,0.001000,0.001000
1011.365385,0.032759,0.001000,0.001000,0.001000,0.001000,0.001000
1011.384615,0.033600,0.001000,0.001000,0.001000,0.001000,0.001000
1011.403846,0.034423,0.001000,0.001000,0.001000,0.001000,0.001000
1011.423077,0.035229,0.001000,0.001000,0.001000,0.001000,0.001000
1011.442308,0.036018,0.001000,0.001000,0.001000,0.001000,0.001000
1011.461538,0.036788,0.001000,0.001000,0.001000,0.001000,0.001000
1011.480769,0.037539,0.001000,0.001000,0.001000,0.001000,0.001000
1011.500000,0.038272,0.001000,0.001000,0.001000,0.001000,0.001000
1011.519231,0.038985,0.001000,0.001000,0.001000,0.001000,0.001000
1011.538462,0.039679,0.001000,0.001000,0.001000,0.001000,0.001000
1011.557692,0.040353,0.001000,0.001000,0.001000,0.001000,0.001000
1011.576923,0.041006,0.001000,0.001000,0.001000,0.001000,0.001000
1011.596154,0.041638,0.001000,0.001000,0.001000,0.001000,0.001000
1011.615385,0.042250,0.001000,0.001000,0.001000,0.001000,0.001000
1011.634615,0.042840,0.001000,0.001000,0.001000,0.001000,0.001000
1011.653846,0.043408,0.001000,0.001000,0.001000,0.001000,0.001000
1011.673077,0.043955,0.001000,0.001000,0.001000,0.001000,0.001000
1011.692308,0.044479,0.001000,0.001000,0.001000,0.001000,0.001000
1011.711538,0.044981,0.001000,0.001000,0.001000,0.001000,0.001000
1011.730769,0.045461,0.001000,0.001000,0.001000,0.001000,0.001000
1011.750000,0.045917,0.001000,0.001000,0.001000,0.001000,0.001000
1011.769231,0.046350,0.001000,0.001000,0.001000,0.001000,0.001000
1011.788462,0.046760,0.001000,0.001000,0.001000,0.001000,0.001000
1011.807692,0.047146,0.001000,0.001000,0.001000,0.001000,0.001000
1011.826923,0.047508,0.001000,0.001000,0.001000,0.001000,0.001000
1011.846154,0.047846,0.001000,0.001000,0.001000,0.001000,0.001000
1011.865385,0.048160,0.001000,0.001000,0.001000,0.001000,0.001000
1011.884615,0.048450,0.001000,0.001000,0.001000,0.001000,0.001000
1011.903846,0.048715,0.001000,0.001000,0.001000,0.001000,0.001000
1011.923077,0.048956,0.001000,0.001000,0.001000,0.001000,0.001000
1011.942308,0.049172,0.001000,0.001000,0.001000,0.001000,0.001000
1011.961538,0.049363,0.001000,0.001000,0.001000,0.001000,0.001000
1011.980769,0.049530,0.001000,0.001000,0.001000,0.001000,0.001000
1012.000000,0.049671,0.001000,0.001000,0.001000,0.001000,0.001000
1012.019231,0.049787,0.001000,0.001000,0.001000,0.001000,0.001000
1012.038462,0.049878,0.001000,0.001000,0.001000,0.001000,0.001000
1012.057692,0.049944,0.001000,0.001000,0.001000,0.001000,0.001000
1012.076923,0.049984,0.001000,0.001000,0.001000,0.001000,0.001000
1012.096154,0.050000,0.001000,0.001000,0.001000,0.001000,0.001000
1012.115385,0.049990,0.001000,0.001000,0.001000,0.001000,0.001000
1012.134615,0.049955,0.001000,0.001000,0.001000,0.001000,0.001000
1012.153846,0.049895,0.001000,0.001000,0.001000,0.001000,0.001000
1012.173077,0.049809,0.001000,0.001000,0.001000,0.001000,0.001000
1012.192308,0.049698,0.001000,0.001000,0.001000,0.001000,0.001000
1012.211538,0.049562,0.001000,0.001000,0.001000,0.001000,0.001000
1012.230769,0.049402,0.001000,0.001000,0.001000,0.001000,0.001000
1012.250000,0.049216,0.001000,0.001000,0.001000,0.001000,0.001000
1012.269231,0.049005,0.001000,0.001000,0.001000,0.001000,0.001000
1012.288462,0.048770,0.001000,0.001000,0.001000,0.001000,0.001000
1012.307692,0.048510,0.001000,0.001000,0.001000,0.001000,0.001000
1012.326923,0.048225,0.001000,0.001000,0.001000,0.001000,0.001000
1012.346154,0.047917,0.001000,0.001000,0.001000,0.001000,0.001000
1012.365385,0.047584,0.001000,0.001000,0.001000,0.001000,0.001000
1012.384615,0.047227,0.001000,0.001000,0.001000,0.001000,0.001000
1012.403846,0.046846,0.001000,0.001000,0.001000,0.001000,0.001000
1012.423077,0.046441,0.001000,0.001000,0.001000,0.001000,0.001000
1012.442308,0.046013,0.001000,0.001000,0.001000,0.001000,0.001000
1012.461538,0.045562,0.001000,0.001000,0.001000,0.001000,0.001000
1012.480769,0.045088,0.001000,0.001000,0.001000,0.001000,0.001000
1012.500000,0.044591,0.001000,0.001000,0.001000,0.001000,0.001000
1012.519231,0.044071,0.001000,0.001000,0.001000,0.001000,0.001000
1012.538462,0.043529,0.001000,0.001000,0.001000,0.001000,0.001000
1012.557692,0.042966,0.001000,0.001000,0.001000,0.001000,0.001000
1012.576923,0.042380,0.001000,0.001000,0.001000,0.001000,0.001000
1012.596154,0.041773,0.001000,0.001000,0.001000,0.001000,0.001000
1012.615385,0.041145,0.001000,0.001000,0.001000,0.001000,0.001000
1012.634615,0.040497,0.001000,0.001000,0.001000,0.001000,0.001000
1012.653846,0.039827,0.001000,0.001000,0.001000,0.001000,0.001000
1012.673077,0.039138,0.001000,0.001000,0.001000,0.001000,0.001000
1012.692308,0.038429,0.001000,0.001000,0.001000,0.001000,0.001000
1012.711538,0.037701,0.001000,0.001000,0.001000,0.001000,0.001000
1012.730769,0.036953,0.001000,0.001000,0.001000,0.001000,0.001000
1012.750000,0.036187,0.001000,0.001000,0.001000,0.001000,0.001000
1012.769231,0.035402,0.001000,0.001000,0.001000,0.001000,0.001000
1012.788462,0.034600,0.001000,0.001000,0.001000,0.001000,0.001000
1012.807692,0.033780,0.001000,0.001000,0.001000,0.001000,0.001000
1012.826923,0.032943,0.001000,0.001000,0.001000,0.001000,0.001000
1012.846154,0.032090,0.001000,0.001000,0.001000,0.001000,0.001000
1012.865385,0.031220,0.001000,0.001000,0.001000,0.001000,0.001000
1012.884615,0.030335,0.001000,0.001000,0.001000,0.001000,0.001000
1012.903846,0.029434,0.001000,0.001000,0.001000,0.001000,0.001000
1012.923077,0.028519,0.001000,0.001000,0.001000,0.001000,0.001000
1012.942308,0.027588,0.001000,0.001000,0.001000,0.001000,0.001000
1012.961538,0.026645,0.001000,0.001000,0.001000,0.001000,0.001000
1012.980769,0.025687,0.001000,0.001000,0.001000,0.001000,0.001000
1013.000000,0.024717,0.001000,0.001000,0.001000,0.001000,0.001000
1013.019231,0.023734,0.001000,0.001000,0.001000,0.001000,0.001000
1013.038462,0.022739,0.001000,0.001000,0.001000,0.001000,0.001000
1013.057692,0.021733,0.001000,0.001000,0.001000,0.001000,0.001000
1013.076923,0.020715,0.001000,0.001000,0.001000,0.001000,0.001000
1013.096154,0.019688,0.001000,0.001000,0.001000,0.001000,0.001000
1013.115385,0.018650,0.001000,0.001000,0.001000,0.001000,0.001000
1013.134615,0.017603,0.001000,0.001000,0.001000,0.001000,0.001000
1013.153846,0.016547,0.001000,0.001000,0.001000,0.001000,0.001000
1013.173077,0.015482,0.001000,0.001000,0.001000,0.001000,0.001000
1013.192308,0.014410,0.001000,0.001000,0.001000,0.001000,0.001000
1013.211538,0.013331,0.001000,0.001000,0.001000,0.001000,0.001000
1013.230769,0.012245,0.001000,0.001000,0.001000,0.001000,0.001000
1013.250000,0.011152,0.001000,0.001000,0.001000,0.001000,0.001000
1013.269231,0.010054,0.001000,0.001000,0.001000,0.001000,0.001000
1013.288462,0.008951,0.001000,0.001000,0.001000,0.001000,0.001000
1013.307692,0.007844,0.001000,0.001000,0.001000,0.001000,0.001000
1013.326923,0.006732,0.001000,0.001000,0.001000,0.001000,0.001000
1013.346154,0.005617,0.001000,0.001000,0.001000,0.001000,0.001000
1013.365385,0.004499,0.001000,0.001000,0.001000,0.001000,0.001000
1013.384615,0.003379,0.001000,0.001000,0.001000,0.001000,0.001000
1013.403846,0.002257,0.001000,0.001000,0.001000,0.001000,0.001000
1013.423077,0.001134,0.001000,0.001000,0.001000,0.001000,0.001000
1013.442308,0.000011,0.001000,0.001000,0.001000,0.001000,0.001000
1013.461538,-0.001112,0.001000,0.001000,0.001000,0.001000,0.001000
1013.480769,-0.002235,0.001000,0.001000,0.001000,0.001000,0.001000
1013.500000,-0.003357,0.001000,0.001000,0.001000,0.001000,0.001000
1013.519231,-0.004477,0.001000,0.001000,0.001000,0.001000,0.001000
1013.538462,-0.005595,0.001000,0.001000,0.001000,0.001000,0.001000
1013.557692,-0.006710,0.001000,0.001000,0.001000,0.001000,0.001000
1013.576923,-0.007822,0.001000,0.001000,0.001000,0.001000,0.001000
1013.596154,-0.008930,0.001000,0.001000,0.001000,0.001000,0.001000
1013.615385,-0.010033,0.001000,0.001000,0.001000,0.001000,0.001000
1013.634615,-0.011131,0.001000,0.001000,0.001000,0.001000,0.001000
1013.653846,-0.012223,0.001000,0.001000,0.001000,0.001000,0.001000
1013.673077,-0.013310,0.001000,0.001000,0.001000,0.001000,0.001000
1013.692308,-0.014389,0.001000,0.001000,0.001000,0.001000,0.001000
1013.711538,-0.015462,0.001000,0.001000,0.001000,0.001000,0.001000
1013.730769,-0.016526,0.001000,0.001000,0.001000,0.001000,0.001000
1013.750000,-0.017582,0.001000,0.001000,0.001000,0.001000,0.001000
1013.769231,-0.018630,0.001000,0.001000,0.001000,0.001000,0.001000
1013.788462,-0.019667,0.001000,0.001000,0.001000,0.001000,0.001000
1013.807692,-0.020695,0.001000,0.001000,0.001000,0.001000,0.001000
1013.826923,-0.021713,0.001000,0.001000,0.001000,0.001000,0.001000
1013.846154,-0.022719,0.001000,0.001000,0.001000,0.001000,0.001000
1013.865385,-0.023715,0.001000,0.001000,0.001000,0.001000,0.001000
1013.884615,-0.024698,0.001000,0.001000,0.001000,0.001000,0.001000
1013.903846,-0.025668,0.001000,0.001000,0.001000,0.001000,0.001000
1013.923077,-0.026626,0.001000,0.001000,0.001000,0.001000,0.001000
1013.942308,-0.027570,0.001000,0.001000,0.001000,0.001000,0.001000
1013.961538,-0.028500,0.001000,0.001000,0.001000,0.001000,0.001000
1013.980769,-0.029416,0.001000,0.001000,0.001000,0.001000,0.001000
1014.000000,-0.030317,0.001000,0.001000,0.001000,0.001000,0.001000
1014.019231,-0.031203,0.001000,0.001000,0.001000,0.001000,0.001000
1014.038462,-0.032073,0.001000,0.001000,0.001000,0.001000,0.001000
1014.057692,-0.032927,0.001000,0.001000,0.001000,0.001000,0.001000
1014.076923,-0.033764,0.001000,0.001000,0.001000,0.001000,0.001000
1014.096154,-0.034584,0.001000,0.001000,0.001000,0.001000,0.001000
1014.115385,-0.035387,0.001000,0.001000,0.001000,0.001000,0.001000
1014.134615,-0.036172,0.001000,0.001000,0.001000,0.001000,0.001000
1014.153846,-0.036938,0.001000,0.001000,0.001000,0.001000,0.001000
1014.173077,-0.037686,0.001000,0.001000,0.001000,0.001000,0.001000
1014.192308,-0.038415,0.001000,0.001000,0.001000,0.001000,0.001000
1014.211538,-0.039124,0.001000,0.001000,0.001000,0.001000,0.001000
1014.230769,-0.039814,0.001000,0.001000,0.001000,0.001000,0.001000
1014.250000,-0.040484,0.001000,0.001000,0.001000,0.001000,0.001000
1014.269231,-0.041133,0.001000,0.001000,0.001000,0.001000,0.001000
1014.288462,-0.041761,0.001000,0.001000,0.001000,0.001000,0.001000
1014.307692,-0.042368,0.001000,0.001000,0.001000,0.001000,0.001000
1014.326923,-0.042954,0.001000,0.001000,0.001000,0.001000,0.001000
1014.346154,-0.043518,0.001000,0.001000,0.001000,0.001000,0.001000
1014.365385,-0.044061,0.001000,0.001000,0.001000,0.001000,0.001000
1014.384615,-0.044581,0.001000,0.001000,0.001000,0.001000,0.001000
1014.403846,-0.045078,0.001000,0.001000,0.001000,0.001000,0.001000
1014.423077,-0.045553,0.001000,0.001000,0.001000,0.001000,0.001000
1014.442308,-0.046005,0.001000,0.001000,0.001000,0.001000,0.001000
1014.461538,-0.046433,0.001000,0.001000,0.001000,0.001000,0.001000
1014.480769,-0.046838,0.001000,0.001000,0.001000,0.001000,0.001000
1014.500000,-0.047219,0.001000,0.001000,0.001000,0.001000,0.001000
1014.519231,-0.047577,0.001000,0.001000,0.001000,0.001000,0.001000
1014.538462,-0.047910,0.001000,0.001000,0.001000,0.001000,0.001000
1014.557692,-0.048220,0.001000,0.001000,0.001000,0.001000,0.001000
1014.576923,-0.048505,0.001000,0.001000,0.001000,0.001000,0.001000
1014.596154,-0.048765,0.001000,0.001000,0.001000,0.001000,0.001000
1014.615385,-0.049001,0.001000,0.001000,0.001000,0.001000,0.001000
1014.634615,-0.049212,0.001000,0.001000,0.001000,0.001000,0.001000
1014.653846,-0.049398,0.001000,0.001000,0.001000,0.001000,0.001000
1014.673077,-0.049560,0.001000,0.001000,0.001000,0.001000,0.001000
1014.692308,-0.049696,0.001000,0.001000,0.001000,0.001000,0.001000
1014.711538,-0.049807,0.001000,0.001000,0.001000,0.001000,0.001000
1014.730769,-0.049893,0.001000,0.001000,0.001000,0.001000,0.001000
1014.750000,-0.049954,0.001000,0.001000,0.001000,0.001000,0.001000
1014.769231,-0.049990,0.001000,0.001000,0.001000,0.001000,0.001000
1014.788462,-0.050000,0.001000,0.001000,0.001000,0.001000,0.001000
1014.807692,-0.049985,0.001000,0.001000,0.001000,0.001000,0.001000
1014.826923,-0.049945,0.001000,0.001000,0.001000,0.001000,0.001000
1014.846154,-0.049880,0.001000,0.001000,0.001000,0.001000,0.001000
1014.865385,-0.049789,0.001000,0.001000,0.001000,0.001000,0.001000
1014.884615,-0.049673,0.001000,0.001000,0.001000,0.001000,0.001000
1014.903846,-0.049533,0.001000,0.001000,0.001000,0.001000,0.001000
1014.923077,-0.049367,0.001000,0.001000,0.001000,0.001000,0.001000
1014.942308,-0.049176,0.001000,0.001000,0.001000,0.001000,0.001000
1014.961538,-0.048961,0.001000,0.001000,0.001000,0.001000,0.001000
1014.980769,-0.048720,0.001000,0.001000,0.001000,0.001000,0.001000
1015.000000,-0.048456,0.001000,0.001000,0.001000,0.001000,0.001000
1015.019231,-0.048166,0.001000,0.001000,0.001000,0.001000,0.001000
1015.038462,-0.047853,0.001000,0.001000,0.001000,0.001000,0.001000
1015.057692,-0.047515,0.001000,0.001000,0.001000,0.001000,0.001000
1015.076923,-0.047153,0.001000,0.001000,0.001000,0.001000,0.001000
1015.096154,-0.046767,0.001000,0.001000,0.001000,0.001000,0.001000
1015.115385,-0.046358,0.001000,0.001000,0.001000,0.001000,0.001000
1015.134615,-0.045926,0.001000,0.001000,0.001000,0.001000,0.001000
1015.153846,-0.045470,0.001000,0.001000,0.001000,0.001000,0.001000
1015.173077,-0.044991,0.001000,0.001000,0.001000,0.001000,0.001000
1015.192308,-0.044489,0.001000,0.001000,0.001000,0.001000,0.001000
1015.211538,-0.043966,0.001000,0.001000,0.001000,0.001000,0.001000
1015.230769,-0.043419,0.001000,0.001000,0.001000,0.001000,0.001000
1015.250000,-0.042851,0.001000,0.001000,0.001000,0.001000,0.001000
1015.269231,-0.042262,0.001000,0.001000,0.001000,0.001000,0.001000
1015.288462,-0.041650,0.001000,0.001000,0.001000,0.001000,0.001000
1015.307692,-0.041018,0.001000,0.001000,0.001000,0.001000,0.001000
1015.326923,-0.040366,0.001000,0.001000,0.001000,0.001000,0.001000
1015.346154,-0.039692,0.001000,0.001000,0.001000,0.001000,0.001000
1015.365385,-0.038999,0.001000,0.001000,0.001000,0.001000,0.001000
1015.384615,-0.038286,0.001000,0.001000,0.001000,0.001000,0.001000
1015.403846,-0.037554,0.001000,0.001000,0.001000,0.001000,0.001000
1015.423077,-0.036803,0.001000,0.001000,0.001000,0.001000,0.001000
1015.442308,-0.036033,0.001000,0.001000,0.001000,0.001000,0.001000
1015.461538,-0.035245,0.001000,0.001000,0.001000,0.001000,0.001000
1015.480769,-0.034439,0.001000,0.001000,0.001000,0.001000,0.001000
1015.500000,-0.033616,0.001000,0.001000,0.001000,0.001000,0.001000
1015.519231,-0.032776,0.001000,0.001000,0.001000,0.001000,0.001000
1015.538462,-0.031919,0.001000,0.001000,0.001000,0.001000,0.001000
1015.557692,-0.031046,0.001000,0.001000,0.001000,0.001000,0.001000
1015.576923,-0.030158,0.001000,0.001000,0.001000,0.001000,0.001000
1015.596154,-0.029254,0.001000,0.001000,0.001000,0.001000,0.001000
1015.615385,-0.028335,0.001000,0.001000,0.001000,0.001000,0.001000
1015.634615,-0.027403,0.001000,0.001000,0.001000,0.001000,0.001000
1015.653846,-0.026456,0.001000,0.001000,0.001000,0.001000,0.001000
1015.673077,-0.025496,0.001000,0.001000,0.001000,0.001000,0.001000
1015.692308,-0.024523,0.001000,0.001000,0.001000,0.001000,0.001000
1015.711538,-0.023538,0.001000,0.001000,0.001000,0.001000,0.001000
1015.730769,-0.022541,0.001000,0.001000,0.001000,0.001000,0.001000
1015.750000,-0.021532,0.001000,0.001000,0.001000,0.001000,0.001000
1015.769231,-0.020513,0.001000,0.001000,0.001000,0.001000,0.001000
1015.788462,-0.019483,0.001000,0.001000,0.001000,0.001000,0.001000
1015.807692,-0.018443,0.001000,0.001000,0.001000,0.001000,0.001000
1015.826923,-0.017394,0.001000,0.001000,0.001000,0.001000,0.001000
1015.846154,-0.016337,0.001000,0.001000,0.001000,0.001000,0.001000
1015.865385,-0.015271,0.001000,0.001000,0.001000,0.001000,0.001000
1015.884615,-0.014197,0.001000,0.001000,0.001000,0.001000,0.001000
1015.903846,-0.013116,0.001000,0.001000,0.001000,0.001000,0.001000
1015.923077,-0.012029,0.001000,0.001000,0.001000,0.001000,0.001000
1015.942308,-0.010935,0.001000,0.001000,0.001000,0.001000,0.001000
1015.961538,-0.009836,0.001000,0.001000,0.001000,0.001000,0.001000
1015.980769,-0.008732,0.001000,0.001000,0.001000,0.001000,0.001000
1016.000000,-0.007624,0.001000,0.001000,0.001000,0.001000,0.001000
1016.019231,-0.006511,0.001000,0.001000,0.001000,0.001000,0.001000
1016.038462,-0.005396,0.001000,0.001000,0.001000,0.001000,0.001000
1016.057692,-0.004278,0.001000,0.001000,0.001000,0.001000,0.001000
1016.076923,-0.003157,0.001000,0.001000,0.001000,0.001000,0.001000
1016.096154,-0.002035,0.001000,0.001000,0.001000,0.001000,0.001000
1016.115385,-0.000912,0.001000,0.001000,0.001000,0.001000,0.001000
1016.134615,0.000212,0.001000,0.001000,0.001000,0.001000,0.001000
1016.153846,0.001335,0.001000,0.001000,0.001000,0.001000,0.001000
1016.173077,0.002458,0.001000,0.001000,0.001000,0.001000,0.001000
1016.192308,0.003579,0.001000,0.001000,0.001000,0.001000,0.001000
1016.211538,0.004699,0.001000,0.001000,0.001000,0.001000,0.001000
1016.230769,0.005816,0.001000,0.001000,0.001000,0.001000,0.001000
1016.250000,0.006931,0.001000,0.001000,0.001000,0.001000,0.001000
1016.269231,0.008042,0.001000,0.001000,0.001000,0.001000,0.001000
1016.288462,0.009148,0.001000,0.001000,0.001000,0.001000,0.001000
1016.307692,0.010251,0.001000,0.001000,0.001000,0.001000,0.001000
1016.326923,0.011348,0.001000,0.001000,0.001000,0.001000,0.001000
1016.346154,0.012439,0.001000,0.001000,0.001000,0.001000,0.001000
1016.365385,0.013524,0.001000,0.001000,0.001000,0.001000,0.001000
1016.384615,0.014602,0.001000,0.001000,0.001000,0.001000,0.001000
1016.403846,0.015673,0.001000,0.001000,0.001000,0.001000,0.001000
1016.423077,0.016736,0.001000,0.001000,0.001000,0.001000,0.001000
1016.442308,0.017790,0.001000,0.001000,0.001000,0.001000,0.001000
1016.461538,0.018836,0.001000,0.001000,0.001000,0.001000,0.001000
1016.480769,0.019872,0.001000,0.001000,0.001000,0.001000,0.001000
1016.500000,0.020898,0.001000,0.001000,0.001000,0.001000,0.001000
1016.519231,0.021913,0.001000,0.001000,0.001000,0.001000,0.001000
1016.538462,0.022917,0.001000,0.001000,0.001000,0.001000,0.001000
1016.557692,0.023910,0.001000,0.001000,0.001000,0.001000,0.001000
1016.576923,0.024891,0.001000,0.001000,0.001000,0.001000,0.001000
1016.596154,0.025859,0.001000,0.001000,0.001000,0.001000,0.001000
1016.615385,0.026814,0.001000,0.001000,0.001000,0.001000,0.001000
1016.634615,0.027756,0.001000,0.001000,0.001000,0.001000,0.001000
1016.653846,0.028683,0.001000,0.001000,0.001000,0.001000,0.001000
1016.673077,0.029596,0.001000,0.001000,0.001000,0.001000,0.001000
1016.692308,0.030494,0.001000,0.001000,0.001000,0.001000,0.001000
1016.711538,0.031377,0.001000,0.001000,0.001000,0.001000,0.001000
1016.730769,0.032244,0.001000,0.001000,0.001000,0.001000,0.001000
1016.750000,0.033094,0.001000,0.001000,0.001000,0.001000,0.001000
1016.769231,0.033928,0.001000,0.001000,0.001000,0.001000,0.001000
1016.788462,0.034745,0.001000,0.001000,0.001000,0.001000,0.001000
1016.807692,0.035544,0.001000,0.001000,0.001000,0.001000,0.001000
1016.826923,0.036325,0.001000,0.001000,0.001000,0.001000,0.001000
1016.846154,0.037088,0.001000,0.001000,0.001000,0.001000,0.001000
1016.865385,0.037832,0.001000,0.001000,0.001000,0.001000,0.001000
1016.884615,0.038557,0.001000,0.001000,0.001000,0.001000,0.001000
1016.903846,0.039263,0.001000,0.001000,0.001000,0.001000,0.001000
1016.923077,0.039948,0.001000,0.001000,0.001000,0.001000,0.001000
1016.942308,0.040614,0.001000,0.001000,0.001000,0.001000,0.001000
1016.961538,0.041259,0.001000,0.001000,0.001000,0.001000,0.001000
1016.980769,0.041883,0.001000,0.001000,0.001000,0.001000,0.001000
1017.000000,0.042486,0.001000,0.001000,0.001000,0.001000,0.001000
1017.019231,0.043068,0.001000,0.001000,0.001000,0.001000,0.001000
1017.038462,0.043628,0.001000,0.001000,0.001000,0.001000,0.001000
1017.057692,0.044165,0.001000,0.001000,0.001000,0.001000,0.001000
1017.076923,0.044681,0.001000,0.001000,0.001000,0.001000,0.001000
1017.096154,0.045174,0.001000,0.001000,0.001000,0.001000,0.001000
1017.115385,0.045644,0.001000,0.001000,0.001000,0.001000,0.001000
1017.134615,0.046091,0.001000,0.001000,0.001000,0.001000,0.001000
1017.153846,0.046515,0.001000,0.001000,0.001000,0.001000,0.001000
1017.173077,0.046915,0.001000,0.001000,0.001000,0.001000,0.001000
1017.192308,0.047292,0.001000,0.001000,0.001000,0.001000,0.001000
1017.211538,0.047645,0.001000,0.001000,0.001000,0.001000,0.001000
1017.230769,0.047974,0.001000,0.001000,0.001000,0.001000,0.001000
1017.250000,0.048278,0.001000,0.001000,0.001000,0.001000,0.001000
1017.269231,0.048558,0.001000,0.001000,0.001000,0.001000,0.001000
1017.288462,0.048814,0.001000,0.001000,0.001000,0.001000,0.001000
1017.307692,0.049045,0.001000,0.001000,0.001000,0.001000,0.001000
1017.326923,0.049251,0.001000,0.001000,0.001000,0.001000,0.001000
1017.346154,0.049432,0.001000,0.001000,0.001000,0.001000,0.001000
1017.365385,0.049589,0.001000,0.001000,0.001000,0.001000,0.001000
1017.384615,0.049720,0.001000,0.001000,0.001000,0.001000,0.001000
1017.403846,0.049826,0.001000,0.001000,0.001000,0.001000,0.001000
1017.423077,0.049907,0.001000,0.001000,0.001000,0.001000,0.001000
1017.442308,0.049963,0.001000,0.001000,0.001000,0.001000,0.001000
1017.461538,0.049994,0.001000,0.001000,0.001000,0.001000,0.001000
1017.480769,0.049999,0.001000,0.001000,0.001000,0.001000,0.001000
1017.500000,0.049979,0.001000,0.001000,0.001000,0.001000,0.001000
1017.519231,0.049934,0.001000,0.001000,0.001000,0.001000,0.001000
1017.538462,0.049864,0.001000,0.001000,0.001000,0.001000,0.001000
1017.557692,0.049768,0.001000,0.001000,0.001000,0.001000,0.001000
1017.576923,0.049647,0.001000,0.001000,0.001000,0.001000,0.001000
1017.596154,0.049502,0.001000,0.001000,0.001000,0.001000,0.001000
1017.615385,0.049331,0.001000,0.001000,0.001000,0.001000,0.001000
1017.634615,0.049135,0.001000,0.001000,0.001000,0.001000,0.001000
1017.653846,0.048915,0.001000,0.001000,0.001000,0.001000,0.001000
1017.673077,0.048670,0.001000,0.001000,0.001000,0.001000,0.001000
1017.692308,0.048400,0.001000,0.001000,0.001000,0.001000,0.001000
1017.711538,0.048106,0.001000,0.001000,0.001000,0.001000,0.001000
1017.730769,0.047788,0.001000,0.001000,0.001000,0.001000,0.001000
1017.750000,0.047445,0.001000,0.001000,0.001000,0.001000,0.001000
1017.769231,0.047079,0.001000,0.001000,0.001000,0.001000,0.001000
1017.788462,0.046688,0.001000,0.001000,0.001000,0.001000,0.001000
1017.807692,0.046274,0.001000,0.001000,0.001000,0.001000,0.001000
1017.826923,0.045837,0.001000,0.001000,0.001000,0.001000,0.001000
1017.846154,0.045377,0.001000,0.001000,0.001000,0.001000,0.001000
1017.865385,0.044893,0.001000,0.001000,0.001000,0.001000,0.001000
1017.884615,0.044388,0.001000,0.001000,0.001000,0.001000,0.001000
1017.903846,0.043859,0.001000,0.001000,0.001000,0.001000,0.001000
1017.923077,0.043309,0.001000,0.001000,0.001000,0.001000,0.001000
1017.942308,0.042736,0.001000,0.001000,0.001000,0.001000,0.001000
1017.961538,0.042142,0.001000,0.001000,0.001000,0.001000,0.001000
1017.980769,0.041527,0.001000,0.001000,0.001000,0.001000,0.001000
1018.000000,0.040891,0.001000,0.001000,0.001000,0.001000,0.001000
1018.019231,0.040234,0.001000,0.001000,0.001000,0.001000,0.001000
1018.038462,0.039557,0.001000,0.001000,0.001000,0.001000,0.001000
1018.057692,0.038860,0.001000,0.001000,0.001000,0.001000,0.001000
1018.076923,0.038143,0.001000,0.001000,0.001000,0.001000,0.001000
1018.096154,0.037407,0.001000,0.001000,0.001000,0.001000,0.001000
1018.115385,0.036652,0.001000,0.001000,0.001000,0.001000,0.001000
1018.134615,0.035878,0.001000,0.001000,0.001000,0.001000,0.001000
1018.153846,0.035087,0.001000,0.001000,0.001000,0.001000,0.001000
1018.173077,0.034277,0.001000,0.001000,0.001000,0.001000,0.001000
1018.192308,0.033451,0.001000,0.001000,0.001000,0.001000,0.001000
1018.211538,0.032607,0.001000,0.001000,0.001000,0.001000,0.001000
1018.230769,0.031747,0.001000,0.001000,0.001000,0.001000,0.001000
1018.250000,0.030871,0.001000,0.001000,0.001000,0.001000,0.001000
1018.269231,0.029980,0.001000,0.001000,0.001000,0.001000,0.001000
1018.288462,0.029073,0.001000,0.001000,0.001000,0.001000,0.001000
1018.307692,0.028152,0.001000,0.001000,0.001000,0.001000,0.001000
1018.326923,0.027216,0.001000,0.001000,0.001000,0.001000,0.001000
1018.346154,0.026267,0.001000,0.001000,0.001000,0.001000,0.001000
1018.365385,0.025304,0.001000,0.001000,0.001000,0.001000,0.001000
1018.384615,0.024329,0.001000,0.001000,0.001000,0.001000,0.001000
1018.403846,0.023341,0.001000,0.001000,0.001000,0.001000,0.001000
1018.423077,0.022342,0.001000,0.001000,0.001000,0.001000,0.001000
1018.442308,0.021331,0.001000,0.001000,0.001000,0.001000,0.001000
1018.461538,0.020310,0.001000,0.001000,0.001000,0.001000,0.001000
1018.480769,0.019278,0.001000,0.001000,0.001000,0.001000,0.001000
1018.500000,0.018236,0.001000,0.001000,0.001000,0.001000,0.001000
1018.519231,0.017186,0.001000,0.001000,0.001000,0.001000,0.001000
1018.538462,0.016126,0.001000,0.001000,0.001000,0.001000,0.001000
1018.557692,0.015059,0.001000,0.001000,0.001000,0.001000,0.001000
1018.576923,0.013984,0.001000,0.001000,0.001000,0.001000,0.001000
1018.596154,0.012901,0.001000,0.001000,0.001000,0.001000,0.001000
1018.615385,0.011813,0.001000,0.001000,0.001000,0.001000,0.001000
1018.634615,0.010718,0.001000,0.001000,0.001000,0.001000,0.001000
1018.653846,0.009618,0.001000,0.001000,0.001000,0.001000,0.001000
1018.673077,0.008513,0.001000,0.001000,0.001000,0.001000,0.001000
1018.692308,0.007404,0.001000,0.001000,0.001000,0.001000,0.001000
1018.711538,0.006291,0.001000,0.001000,0.001000,0.001000,0.001000
1018.730769,0.005175,0.001000,0.001000,0.001000,0.001000,0.001000
1018.750000,0.004056,0.001000,0.001000,0.001000,0.001000,0.001000
1018.769231,0.002935,0.001000,0.001000,0.001000,0.001000,0.001000
1018.788462,0.001813,0.001000,0.001000,0.001000,0.001000,0.001000
1018.807692,0.000690,0.001000,0.001000,0.001000,0.001000,0.001000
1018.826923,-0.000434,0.001000,0.001000,0.001000,0.001000,0.001000
1018.846154,-0.001557,0.001000,0.001000,0.001000,0.001000,0.001000
1018.865385,-0.002680,0.001000,0.001000,0.001000,0.001000,0.001000
1018.884615,-0.003801,0.001000,0.001000,0.001000,0.001000,0.001000
1018.903846,-0.004920,0.001000,0.001000,0.001000,0.001000,0.001000
1018.923077,-0.006037,0.001000,0.001000,0.001000,0.001000,0.001000
1018.942308,-0.007151,0.001000,0.001000,0.001000,0.001000,0.001000
1018.961538,-0.008261,0.001000,0.001000,0.001000,0.001000,0.001000
1018.980769,-0.009367,0.001000,0.001000,0.001000,0.001000,0.001000
1019.000000,-0.010468,0.001000,0.001000,0.001000,0.001000,0.001000
1019.019231,-0.011564,0.001000,0.001000,0.001000,0.001000,0.001000
1019.038462,-0.012654,0.001000,0.001000,0.001000,0.001000,0.001000
1019.057692,-0.013738,0.001000,0.001000,0.001000,0.001000,0.001000
1019.076923,-0.014815,0.001000,0.001000,0.001000,0.001000,0.001000
1019.096154,-0.015884,0.001000,0.001000,0.001000,0.001000,0.001000
1019.115385,-0.016945,0.001000,0.001000,0.001000,0.001000,0.001000
1019.134615,-0.017998,0.001000,0.001000,0.001000,0.001000,0.001000
1019.153846,-0.019042,0.001000,0.001000,0.001000,0.001000,0.001000
1019.173077,-0.020076,0.001000,0.001000,0.001000,0.001000,0.001000
1019.192308,-0.021100,0.001000,0.001000,0.001000,0.001000,0.001000
1019.211538,-0.022113,0.001000,0.001000,0.001000,0.001000,0.001000
1019.230769,-0.023115,0.001000,0.001000,0.001000,0.001000,0.001000
1019.250000,-0.024105,0.001000,0.001000,0.001000,0.001000,0.001000
1019.269231,-0.025084,0.001000,0.001000,0.001000,0.001000,0.001000
1019.288462,-0.026049,0.001000,0.001000,0.001000,0.001000,0.001000
1019.307692,-0.027002,0.001000,0.001000,0.001000,0.001000,0.001000
1019.326923,-0.027940,0.001000,0.001000,0.001000,0.001000,0.001000
1019.346154,-0.028865,0.001000,0.001000,0.001000,0.001000,0.001000
1019.365385,-0.029775,0.001000,0.001000,0.001000,0.001000,0.001000
1019.384615,-0.030670,0.001000,0.001000,0.001000,0.001000,0.001000
1019.403846,-0.031550,0.001000,0.001000,0.001000,0.001000,0.001000
1019.423077,-0.032413,0.001000,0.001000,0.001000,0.001000,0.001000
1019.442308,-0.033261,0.001000,0.001000,0.001000,0.001000,0.001000
1019.461538,-0.034091,0.001000,0.001000,0.001000,0.001000,0.001000
1019.480769,-0.034904,0.001000,0.001000,0.001000,0.001000,0.001000
1019.500000,-0.035700,0.001000,0.001000,0.001000,0.001000,0.001000
1019.519231,-0.036477,0.001000,0.001000,0.001000,0.001000,0.001000
1019.538462,-0.037237,0.001000,0.001000,0.001000,0.001000,0.001000
1019.557692,-0.037977,0.001000,0.001000,0.001000,0.001000,0.001000
1019.576923,-0.038698,0.001000,0.001000,0.001000,0.001000,0.001000
1019.596154,-0.039400,0.001000,0.001000,0.001000,0.001000,0.001000
1019.615385,-0.040082,0.001000,0.001000,0.001000,0.001000,0.001000
1019.634615,-0.040743,0.001000,0.001000,0.001000,0.001000,0.001000
1019.653846,-0.041384,0.001000,0.001000,0.001000,0.001000,0.001000
1019.673077,-0.042004,0.001000,0.001000,0.001000,0.001000,0.001000
1019.692308,-0.042603,0.001000,0.001000,0.001000,0.001000,0.001000
1019.711538,-0.043180,0.001000,0.001000,0.001000,0.001000,0.001000
1019.730769,-0.043736,0.001000,0.001000,0.001000,0.001000,0.001000
1019.750000,-0.044269,0.001000,0.001000,0.001000,0.001000,0.001000
1019.769231,-0.044780,0.001000,0.001000,0.001000,0.001000,0.001000
1019.788462,-0.045269,0.001000,0.001000,0.001000,0.001000,0.001000
1019.807692,-0.045734,0.001000,0.001000,0.001000,0.001000,0.001000
1019.826923,-0.046177,0.001000,0.001000,0.001000,0.001000,0.001000
1019.846154,-0.046596,0.001000,0.001000,0.001000,0.001000,0.001000
1019.865385,-0.046992,0.001000,0.001000,0.001000,0.001000,0.001000
1019.884615,-0.047364,0.001000,0.001000,0.001000,0.001000,0.001000
1019.903846,-0.047712,0.001000,0.001000,0.001000,0.001000,0.001000
1019.923077,-0.048036,0.001000,0.001000,0.001000,0.001000,0.001000
1019.942308,-0.048335,0.001000,0.001000,0.001000,0.001000,0.001000
1019.961538,-0.048611,0.001000,0.001000,0.001000,0.001000,0.001000
1019.980769,-0.048861,0.001000,0.001000,0.001000,0.001000,0.001000
1020.000000,-0.049088,0.001000,0.001000,0.001000,0.001000,0.001000
1020.019231,-0.049289,0.001000,0.001000,0.001000,0.001000,0.001000
1020.038462,-0.049465,0.001000,0.001000,0.001000,0.001000,0.001000
1020.057692,-0.049617,0.001000,0.001000,0.001000,0.001000,0.001000
1020.076923,-0.049743,0.001000,0.001000,0.001000,0.001000,0.001000
1020.096154,-0.049844,0.001000,0.001000,0.001000,0.001000,0.001000
1020.115385,-0.049920,0.001000,0.001000,0.001000,0.001000,0.001000
1020.134615,-0.049971,0.001000,0.001000,0.001000,0.001000,0.001000
1020.153846,-0.049997,0.001000,0.001000,0.001000,0.001000,0.001000
1020.173077,-0.049997,0.001000,0.001000,0.001000,0.001000,0.001000
1020.192308,-0.049972,0.001000,0.001000,0.001000,0.001000,0.001000
1020.211538,-0.049922,0.001000,0.001000,0.001000,0.001000,0.001000
1020.230769,-0.049847,0.001000,0.001000,0.001000,0.001000,0.001000
1020.250000,-0.049746,0.001000,0.001000,0.001000,0.001000,0.001000
1020.269231,-0.049621,0.001000,0.001000,0.001000,0.001000,0.001000
1020.288462,-0.049470,0.001000,0.001000,0.001000,0.001000,0.001000
1020.307692,-0.049294,0.001000,0.001000,0.001000,0.001000,0.001000
1020.326923,-0.049094,0.001000,0.001000,0.001000,0.001000,0.001000
1020.346154,-0.048868,0.001000,0.001000,0.001000,0.001000,0.001000
1020.365385,-0.048618,0.001000,0.001000,0.001000,0.001000,0.001000
1020.384615,-0.048344,0.001000,0.001000,0.001000,0.001000,0.001000
1020.403846,-0.048045,0.001000,0.001000,0.001000,0.001000,0.001000
1020.423077,-0.047722,0.001000,0.001000,0.001000,0.001000,0.001000
1020.442308,-0.047374,0.001000,0.001000,0.001000,0.001000,0.001000
1020.461538,-0.047003,0.001000,0.001000,0.001000,0.001000,0.001000
1020.480769,-0.046608,0.001000,0.001000,0.001000,0.001000,0.001000
1020.500000,-0.046190,0.001000,0.001000,0.001000,0.001000,0.001000
1020.519231,-0.045748,0.001000,0.001000,0.001000,0.001000,0.001000
1020.538462,-0.045283,0.001000,0.001000,0.001000,0.001000,0.001000
1020.557692,-0.044795,0.001000,0.001000,0.001000,0.001000,0.001000
1020.576923,-0.044285,0.001000,0.001000,0.001000,0.001000,0.001000
1020.596154,-0.043752,0.001000,0.001000,0.001000,0.001000,0.001000
1020.615385,-0.043197,0.001000,0.001000,0.001000,0.001000,0.001000
1020.634615,-0.042620,0.001000,0.001000,0.001000,0.001000,0.001000
1020.653846,-0.042022,0.001000,0.001000,0.001000,0.001000,0.001000
1020.673077,-0.041403,0.001000,0.001000,0.001000,0.001000,0.001000
1020.692308,-0.040762,0.001000,0.001000,0.001000,0.001000,0.001000
1020.711538,-0.040101,0.001000,0.001000,0.001000,0.001000,0.001000
1020.730769,-0.039420,0.001000,0.001000,0.001000,0.001000,0.001000
1020.750000,-0.038719,0.001000,0.001000,0.001000,0.001000,0.001000
1020.769231,-0.037998,0.001000,0.001000,0.001000,0.001000,0.001000
1020.788462,-0.037259,0.001000,0.001000,0.001000,0.001000,0.001000
1020.807692,-0.036500,0.001000,0.001000,0.001000,0.001000,0.001000
1020.826923,-0.035723,0.001000,0.001000,0.001000,0.001000,0.001000
1020.846154,-0.034928,0.001000,0.001000,0.001000,0.001000,0.001000
1020.865385,-0.034115,0.001000,0.001000,0.001000,0.001000,0.001000
1020.884615,-0.033285,0.001000,0.001000,0.001000,0.001000,0.001000
1020.903846,-0.032438,0.001000,0.001000,0.001000,0.001000,0.001000
1020.923077,-0.031575,0.001000,0.001000,0.001000,0.001000,0.001000
1020.942308,-0.030696,0.001000,0.001000,0.001000,0.001000,0.001000
1020.961538,-0.029802,0.001000,0.001000,0.001000,0.001000,0.001000
1020.980769,-0.028892,0.001000,0.001000,0.001000,0.001000,0.001000
1021.000000,-0.027968,0.001000,0.001000,0.001000,0.001000,0.001000
1021.019231,-0.027029,0.001000,0.001000,0.001000,0.001000,0.001000
1021.038462,-0.026077,0.001000,0.001000,0.001000,0.001000,0.001000
1021.057692,-0.025112,0.001000,0.001000,0.001000,0.001000,0.001000
1021.076923,-0.024134,0.001000,0.001000,0.001000,0.001000,0.001000
1021.096154,-0.023144,0.001000,0.001000,0.001000,0.001000,0.001000
1021.115385,-0.022143,0.001000,0.001000,0.001000,0.001000,0.001000
1021.134615,-0.021130,0.001000,0.001000,0.001000,0.001000,0.001000
1021.153846,-0.020106,0.001000,0.001000,0.001000,0.001000,0.001000
1021.173077,-0.019072,0.001000,0.001000,0.001000,0.001000,0.001000
1021.192308,-0.018029,0.001000,0.001000,0.001000,0.001000,0.001000
1021.211538,-0.016976,0.001000,0.001000,0.001000,0.001000,0.001000
1021.230769,-0.015915,0.001000,0.001000,0.001000,0.001000,0.001000
1021.250000,-0.014846,0.001000,0.001000,0.001000,0.001000,0.001000
1021.269231,-0.013770,0.001000,0.001000,0.001000,0.001000,0.001000
1021.288462,-0.012686,0.001000,0.001000,0.001000,0.001000,0.001000
1021.307692,-0.011596,0.001000,0.001000,0.001000,0.001000,0.001000
1021.326923,-0.010501,0.001000,0.001000,0.001000,0.001000,0.001000
1021.346154,-0.009399,0.001000,0.001000,0.001000,0.001000,0.001000
1021.365385,-0.008294,0.001000,0.001000,0.001000,0.001000,0.001000
1021.384615,-0.007184,0.001000,0.001000,0.001000,0.001000,0.001000
1021.403846,-0.006070,0.001000,0.001000,0.001000,0.001000,0.001000
1021.423077,-0.004953,0.001000,0.001000,0.001000,0.001000,0.001000
1021.442308,-0.003834,0.001000,0.001000,0.001000,0.001000,0.001000
1021.461538,-0.002713,0.001000,0.001000,0.001000,0.001000,0.001000
1021.480769,-0.001590,0.001000,0.001000,0.001000,0.001000,0.001000
1021.500000,-0.000467,0.001000,0.001000,0.001000,0.001000,0.001000
1021.519231,0.000657,0.001000,0.001000,0.001000,0.001000,0.001000
1021.538462,0.001780,0.001000,0.001000,0.001000,0.001000,0.001000
1021.557692,0.002902,0.001000,0.001000,0.001000,0.001000,0.001000
1021.576923,0.004023,0.001000,0.001000,0.001000,0.001000,0.001000
1021.596154,0.005142,0.001000,0.001000,0.001000,0.001000,0.001000
1021.615385,0.006258,0.001000,0.001000,0.001000,0.001000,0.001000
1021.634615,0.007371,0.001000,0.001000,0.001000,0.001000,0.001000
1021.653846,0.008480,0.001000,0.001000,0.001000,0.001000,0.001000
1021.673077,0.009586,0.001000,0.001000,0.001000,0.001000,0.001000
1021.692308,0.010686,0.001000,0.001000,0.001000,0.001000,0.001000
1021.711538,0.011781,0.001000,0.001000,0.001000,0.001000,0.001000
1021.730769,0.012870,0.001000,0.001000,0.001000,0.001000,0.001000
1021.750000,0.013952,0.001000,0.001000,0.001000,0.001000,0.001000
1021.769231,0.015027,0.001000,0.001000,0.001000,0.001000,0.001000
1021.788462,0.016095,0.001000,0.001000,0.001000,0.001000,0.001000
1021.807692,0.017155,0.001000,0.001000,0.001000,0.001000,0.001000
1021.826923,0.018206,0.001000,0.001000,0.001000,0.001000,0.001000
1021.846154,0.019247,0.001000,0.001000,0.001000,0.001000,0.001000
1021.865385,0.020279,0.001000,0.001000,0.001000,0.001000,0.001000
1021.884615,0.021301,0.001000,0.001000,0.001000,0.001000,0.001000
1021.903846,0.022312,0.001000,0.001000,0.001000,0.001000,0.001000
1021.923077,0.023312,0.001000,0.001000,0.001000,0.001000,0.001000
1021.942308,0.024300,0.001000,0.001000,0.001000,0.001000,0.001000
1021.961538,0.025276,0.001000,0.001000,0.001000,0.001000,0.001000
1021.980769,0.026239,0.001000,0.001000,0.001000,0.001000,0.001000
1022.000000,0.027189,0.001000,0.001000,0.001000,0.001000,0.001000
1022.019231,0.028125,0.001000,0.001000,0.001000,0.001000,0.001000
1022.038462,0.029046,0.001000,0.001000,0.001000,0.001000,0.001000
1022.057692,0.029954,0.001000,0.001000,0.001000,0.001000,0.001000
1022.076923,0.030846,0.001000,0.001000,0.001000,0.001000,0.001000
1022.096154,0.031722,0.001000,0.001000,0.001000,0.001000,0.001000
1022.115385,0.032582,0.001000,0.001000,0.001000,0.001000,0.001000
1022.134615,0.033426,0.001000,0.001000,0.001000,0.001000,0.001000
1022.153846,0.034253,0.001000,0.001000,0.001000,0.001000,0.001000
1022.173077,0.035063,0.001000,0.001000,0.001000,0.001000,0.001000
1022.192308,0.035855,0.001000,0.001000,0.001000,0.001000,0.001000
1022.211538,0.036629,0.001000,0.001000,0.001000,0.001000,0.001000
1022.230769,0.037385,0.001000,0.001000,0.001000,0.001000,0.001000
1022.250000,0.038121,0.001000,0.001000,0.001000,0.001000,0.001000
1022.269231,0.038839,0.001000,0.001000,0.001000,0.001000,0.001000
1022.288462,0.039537,0.001000,0.001000,0.001000,0.001000,0.001000
1022.307692,0.040214,0.001000,0.001000,0.001000,0.001000,0.001000
1022.326923,0.040872,0.001000,0.001000,0.001000,0.001000,0.001000
1022.346154,0.041509,0.001000,0.001000,0.001000,0.001000,0.001000
1022.365385,0.042124,0.001000,0.001000,0.001000,0.001000,0.001000
1022.384615,0.042719,0.001000,0.001000,0.001000,0.001000,0.001000
1022.403846,0.043292,0.001000,0.001000,0.001000,0.001000,0.001000
1022.423077,0.043843,0.001000,0.001000,0.001000,0.001000,0.001000
1022.442308,0.044372,0.001000,0.001000,0.001000,0.001000,0.001000
1022.461538,0.044879,0.001000,0.001000,0.001000,0.001000,0.001000
1022.480769,0.045363,0.001000,0.001000,0.001000,0.001000,0.001000
1022.500000,0.045824,0.001000,0.001000,0.001000,0.001000,0.001000
1022.519231,0.046262,0.001000,0.001000,0.001000,0.001000,0.001000
1022.538462,0.046676,0.001000,0.001000,0.001000,0.001000,0.001000
1022.557692,0.047067,0.001000,0.001000,0.001000,0.001000,0.001000
1022.576923,0.047435,0.001000,0.001000,0.001000,0.001000,0.001000
1022.596154,0.047778,0.001000,0.001000,0.001000,0.001000,0.001000
1022.615385,0.048097,0.001000,0.001000,0.001000,0.001000,0.001000
1022.634615,0.048392,0.001000,0.001000,0.001000,0.001000,0.001000
1022.653846,0.048662,0.001000,0.001000,0.001000,0.001000,0.001000
1022.673077,0.048908,0.001000,0.001000,0.001000,0.001000,0.001000
1022.692308,0.049129,0.001000,0.001000,0.001000,0.001000,0.001000
1022.711538,0.049326,0.001000,0.001000,0.001000,0.001000,0.001000
1022.730769,0.049497,0.001000,0.001000,0.001000,0.001000,0.001000
1022.750000,0.049644,0.001000,0.001000,0.001000,0.001000,0.001000
1022.769231,0.049765,0.001000,0.001000,0.001000,0.001000,0.001000
1022.788462,0.049861,0.001000,0.001000,0.001000,0.001000,0.001000
1022.807692,0.049932,0.001000,0.001000,0.001000,0.001000,0.001000
1022.826923,0.049978,0.001000,0.001000,0.001000,0.001000,0.001000
1022.846154,0.049999,0.001000,0.001000,0.001000,0.001000,0.001000
1022.865385,0.049994,0.001000,0.001000,0.001000,0.001000,0.001000
1022.884615,0.049964,0.001000,0.001000,0.001000,0.001000,0.001000
1022.903846,0.049909,0.001000,0.001000,0.001000,0.001000,0.001000
1022.923077,0.049829,0.001000,0.001000,0.001000,0.001000,0.001000
1022.942308,0.049723,0.001000,0.001000,0.001000,0.001000,0.001000
1022.961538,0.049593,0.001000,0.001000,0.001000,0.001000,0.001000
1022.980769,0.049437,0.001000,0.001000,0.001000,0.001000,0.001000
1023.000000,0.049257,0.001000,0.001000,0.001000,0.001000,0.001000
1023.019231,0.049051,0.001000,0.001000,0.001000,0.001000,0.001000
1023.038462,0.048821,0.001000,0.001000,0.001000,0.001000,0.001000
1023.057692,0.048566,0.001000,0.001000,0.001000,0.001000,0.001000
1023.076923,0.048287,0.001000,0.001000,0.001000,0.001000,0.001000
1023.096154,0.047983,0.001000,0.001000,0.001000,0.001000,0.001000
1023.115385,0.047655,0.001000,0.001000,0.001000,0.001000,0.001000
1023.134615,0.047303,0.001000,0.001000,0.001000,0.001000,0.001000
1023.153846,0.046927,0.001000,0.001000,0.001000,0.001000,0.001000
1023.173077,0.046527,0.001000,0.001000,0.001000,0.001000,0.001000
1023.192308,0.046104,0.001000,0.001000,0.001000,0.001000,0.001000
1023.211538,0.045658,0.001000,0.001000,0.001000,0.001000,0.001000
1023.230769,0.045188,0.001000,0.001000,0.001000,0.001000,0.001000
1023.250000,0.044696,0.001000,0.001000,0.001000,0.001000,0.001000
1023.269231,0.044181,0.001000,0.001000,0.001000,0.001000,0.001000
1023.288462,0.043644,0.001000,0.001000,0.001000,0.001000,0.001000
1023.307692,0.043084,0.001000,0.001000,0.001000,0.001000,0.001000
1023.326923,0.042504,0.001000,0.001000,0.001000,0.001000,0.001000
1023.346154,0.041901,0.001000,0.001000,0.001000,0.001000,0.001000
1023.365385,0.041277,0.001000,0.001000,0.001000,0.001000,0.001000
1023.384615,0.040633,0.001000,0.001000,0.001000,0.001000,0.001000
1023.403846,0.039968,0.001000,0.001000,0.001000,0.001000,0.001000
1023.423077,0.039283,0.001000,0.001000,0.001000,0.001000,0.001000
1023.442308,0.038578,0.001000,0.001000,0.001000,0.001000,0.001000
1023.461538,0.037853,0.001000,0.001000,0.001000,0.001000,0.001000
1023.480769,0.037110,0.001000,0.001000,0.001000,0.001000,0.001000
1023.500000,0.036348,0.001000,0.001000,0.001000,0.001000,0.001000
1023.519231,0.035567,0.001000,0.001000,0.001000,0.001000,0.001000
1023.538462,0.034768,0.001000,0.001000,0.001000,0.001000,0.001000
1023.557692,0.033952,0.001000,0.001000,0.001000,0.001000,0.001000
1023.576923,0.033119,0.001000,0.001000,0.001000,0.001000,0.001000
1023.596154,0.032269,0.001000,0.001000,0.001000,0.001000,0.001000
1023.615385,0.031402,0.001000,0.001000,0.001000,0.001000,0.001000
1023.634615,0.030520,0.001000,0.001000,0.001000,0.001000,0.001000
1023.653846,0.029623,0.001000,0.001000,0.001000,0.001000,0.001000
1023.673077,0.028710,0.001000,0.001000,0.001000,0.001000,0.001000
1023.692308,0.027783,0.001000,0.001000,0.001000,0.001000,0.001000
1023.711538,0.026842,0.001000,0.001000,0.001000,0.001000,0.001000
1023.730769,0.025887,0.001000,0.001000,0.001000,0.001000,0.001000
1023.750000,0.024919,0.001000,0.001000,0.001000,0.001000,0.001000
1023.769231,0.023939,0.001000,0.001000,0.001000,0.001000,0.001000
1023.788462,0.022947,0.001000,0.001000,0.001000,0.001000,0.001000
1023.807692,0.021943,0.001000,0.001000,0.001000,0.001000,0.001000
1023.826923,0.020928,0.001000,0.001000,0.001000,0.001000,0.001000
1023.846154,0.019902,0.001000,0.001000,0.001000,0.001000,0.001000
1023.865385,0.018866,0.001000,0.001000,0.001000,0.001000,0.001000
1023.884615,0.017821,0.001000,0.001000,0.001000,0.001000,0.001000
1023.903846,0.016767,0.001000,0.001000,0.001000,0.001000,0.001000
1023.923077,0.015704,0.001000,0.001000,0.001000,0.001000,0.001000
1023.942308,0.014634,0.001000,0.001000,0.001000,0.001000,0.001000
1023.961538,0.013556,0.001000,0.001000,0.001000,0.001000,0.001000
1023.980769,0.012471,0.001000,0.001000,0.001000,0.001000,0.001000
1024.000000,0.011380,0.001000,0.001000,0.001000,0.001000,0.001000
1024.019231,0.010283,0.001000,0.001000,0.001000,0.001000,0.001000
1024.038462,0.009181,0.001000,0.001000,0.001000,0.001000,0.001000
1024.057692,0.008074,0.001000,0.001000,0.001000,0.001000,0.001000
1024.076923,0.006963,0.001000,0.001000,0.001000,0.001000,0.001000
1024.096154,0.005849,0.001000,0.001000,0.001000,0.001000,0.001000
1024.115385,0.004732,0.001000,0.001000,0.001000,0.001000,0.001000
1024.134615,0.003612,0.001000,0.001000,0.001000,0.001000,0.001000
1024.153846,0.002491,0.001000,0.001000,0.001000,0.001000,0.001000
1024.173077,0.001368,0.001000,0.001000,0.001000,0.001000,0.001000
1024.192308,0.000245,0.001000,0.001000,0.001000,0.001000,0.001000
1024.211538,-0.000879,0.001000,0.001000,0.001000,0.001000,0.001000
1024.230769,-0.002002,0.001000,0.001000,0.001000,0.001000,0.001000
1024.250000,-0.003124,0.001000,0.001000,0.001000,0.001000,0.001000
1024.269231,-0.004245,0.001000,0.001000,0.001000,0.001000,0.001000
1024.288462,-0.005363,0.001000,0.001000,0.001000,0.001000,0.001000
1024.307692,-0.006479,0.001000,0.001000,0.001000,0.001000,0.001000
1024.326923,-0.007591,0.001000,0.001000,0.001000,0.001000,0.001000
1024.346154,-0.008700,0.001000,0.001000,0.001000,0.001000,0.001000
1024.365385,-0.009804,0.001000,0.001000,0.001000,0.001000,0.001000
1024.384615,-0.010903,0.001000,0.001000,0.001000,0.001000,0.001000
1024.403846,-0.011997,0.001000,0.001000,0.001000,0.001000,0.001000
1024.423077,-0.013084,0.001000,0.001000,0.001000,0.001000,0.001000
1024.442308,-0.014165,0.001000,0.001000,0.001000,0.001000,0.001000
1024.461538,-0.015239,0.001000,0.001000,0.001000,0.001000,0.001000
1024.480769,-0.016306,0.001000,0.001000,0.001000,0.001000,0.001000
1024.500000,-0.017363,0.001000,0.001000,0.001000,0.001000,0.001000
1024.519231,-0.018413,0.001000,0.001000,0.001000,0.001000,0.001000
1024.538462,-0.019453,0.001000,0.001000,0.001000,0.001000,0.001000
1024.557692,-0.020483,0.001000,0.001000,0.001000,0.001000,0.001000
1024.576923,-0.021502,0.001000,0.001000,0.001000,0.001000,0.001000
1024.596154,-0.022511,0.001000,0.001000,0.001000,0.001000,0.001000
1024.615385,-0.023509,0.001000,0.001000,0.001000,0.001000,0.001000
1024.634615,-0.024494,0.001000,0.001000,0.001000,0.001000,0.001000
1024.653846,-0.025468,0.001000,0.001000,0.001000,0.001000,0.001000
1024.673077,-0.026428,0.001000,0.001000,0.001000,0.001000,0.001000
1024.692308,-0.027375,0.001000,0.001000,0.001000,0.001000,0.001000
1024.711538,-0.028308,0.001000,0.001000,0.001000,0.001000,0.001000
1024.730769,-0.029227,0.001000,0.001000,0.001000,0.001000,0.001000
1024.750000,-0.030131,0.001000,0.001000,0.001000,0.001000,0.001000
1024.769231,-0.031020,0.001000,0.001000,0.001000,0.001000,0.001000
1024.788462,-0.031894,0.001000,0.001000,0.001000,0.001000,0.001000
1024.807692,-0.032751,0.001000,0.001000,0.001000,0.001000,0.001000
1024.826923,-0.033592,0.001000,0.001000,0.001000,0.001000,0.001000
1024.846154,-0.034415,0.001000,0.001000,0.001000,0.001000,0.001000
1024.865385,-0.035222,0.001000,0.001000,0.001000,0.001000,0.001000
1024.884615,-0.036010,0.001000,0.001000,0.001000,0.001000,0.001000
1024.903846,-0.036780,0.001000,0.001000,0.001000,0.001000,0.001000
1024.923077,-0.037532,0.001000,0.001000,0.001000,0.001000,0.001000
1024.942308,-0.038265,0.001000,0.001000,0.001000,0.001000,0.001000
1024.961538,-0.038979,0.001000,0.001000,0.001000,0.001000,0.001000
1024.980769,-0.039672,0.001000,0.001000,0.001000,0.001000,0.001000
1025.000000,-0.040346,0.001000,0.001000,0.001000,0.001000,0.001000
1025.019231,-0.041000,0.001000,0.001000,0.001000,0.001000,0.001000
1025.038462,-0.041632,0.001000,0.001000,0.001000,0.001000,0.001000
1025.057692,-0.042244,0.001000,0.001000,0.001000,0.001000,0.001000
1025.076923,-0.042834,0.001000,0.001000,0.001000,0.001000,0.001000
1025.096154,-0.043403,0.001000,0.001000,0.001000,0.001000,0.001000
1025.115385,-0.043950,0.001000,0.001000,0.001000,0.001000,0.001000
1025.134615,-0.044474,0.001000,0.001000,0.001000,0.001000,0.001000
1025.153846,-0.044977,0.001000,0.001000,0.001000,0.001000,0.001000
1025.173077,-0.045456,0.001000,0.001000,0.001000,0.001000,0.001000
1025.192308,-0.045913,0.001000,0.001000,0.001000,0.001000,0.001000
1025.211538,-0.046346,0.001000,0.001000,0.001000,0.001000,0.001000
1025.230769,-0.046756,0.001000,0.001000,0.001000,0.001000,0.001000
1025.250000,-0.047142,0.001000,0.001000,0.001000,0.001000,0.001000
1025.269231,-0.047505,0.001000,0.001000,0.001000,0.001000,0.001000
1025.288462,-0.047843,0.001000,0.001000,0.001000,0.001000,0.001000
1025.307692,-0.048157,0.001000,0.001000,0.001000,0.001000,0.001000
1025.326923,-0.048447,0.001000,0.001000,0.001000,0.001000,0.001000
1025.346154,-0.048713,0.001000,0.001000,0.001000,0.001000,0.001000
1025.365385,-0.048954,0.001000,0.001000,0.001000,0.001000,0.001000
1025.384615,-0.049170,0.001000,0.001000,0.001000,0.001000,0.001000
1025.403846,-0.049362,0.001000,0.001000,0.001000,0.001000,0.001000
1025.423077,-0.049528,0.001000,0.001000,0.001000,0.001000,0.001000
1025.442308,-0.049670,0.001000,0.001000,0.001000,0.001000,0.001000
1025.461538,-0.049786,0.001000,0.001000,0.001000,0.001000,0.001000
1025.480769,-0.049877,0.001000,0.001000,0.001000,0.001000,0.001000
1025.500000,-0.049943,0.001000,0.001000,0.001000,0.001000,0.001000
1025.519231,-0.049984,0.001000,0.001000,0.001000,0.001000,0.001000
1025.538462,-0.050000,0.001000,0.001000,0.001000,0.001000,0.001000
1025.557692,-0.049990,0.001000,0.001000,0.001000,0.001000,0.001000
1025.576923,-0.049955,0.001000,0.001000,0.001000,0.001000,0.001000
1025.596154,-0.049895,0.001000,0.001000,0.001000,0.001000,0.001000
1025.615385,-0.049810,0.001000,0.001000,0.001000,0.001000,0.001000
1025.634615,-0.049699,0.001000,0.001000,0.001000,0.001000,0.001000
1025.653846,-0.049564,0.001000,0.001000,0.001000,0.001000,0.001000
1025.673077,-0.049403,0.001000,0.001000,0.001000,0.001000,0.001000
1025.692308,-0.049218,0.001000,0.001000,0.001000,0.001000,0.001000
1025.711538,-0.049007,0.001000,0.001000,0.001000,0.001000,0.001000
1025.730769,-0.048772,0.001000,0.001000,0.001000,0.001000,0.001000
1025.750000,-0.048513,0.001000,0.001000,0.001000,0.001000,0.001000
1025.769231,-0.048228,0.001000,0.001000,0.001000,0.001000,0.001000
1025.788462,-0.047920,0.001000,0.001000,0.001000,0.001000,0.001000
1025.807692,-0.047587,0.001000,0.001000,0.001000,0.001000,0.001000
1025.826923,-0.047230,0.001000,0.001000,0.001000,0.001000,0.001000
1025.846154,-0.046850,0.001000,0.001000,0.001000,0.001000,0.001000
1025.865385,-0.046445,0.001000,0.001000,0.001000,0.001000,0.001000
1025.884615,-0.046017,0.001000,0.001000,0.001000,0.001000,0.001000
1025.903846,-0.045566,0.001000,0.001000,0.001000,0.001000,0.001000
1025.923077,-0.045092,0.001000,0.001000,0.001000,0.001000,0.001000
1025.942308,-0.044596,0.001000,0.001000,0.001000,0.001000,0.001000
1025.961538,-0.044076,0.001000,0.001000,0.001000,0.001000,0.001000
1025.980769,-0.043535,0.001000,0.001000,0.001000,0.001000,0.001000
1026.000000,-0.042971,0.001000,0.001000,0.001000,0.001000,0.001000
1026.019231,-0.042386,0.001000,0.001000,0.001000,0.001000,0.001000
1026.038462,-0.041779,0.001000,0.001000,0.001000,0.001000,0.001000
1026.057692,-0.041151,0.001000,0.001000,0.001000,0.001000,0.001000
1026.076923,-0.040503,0.001000,0.001000,0.001000,0.001000,0.001000
1026.096154,-0.039834,0.001000,0.001000,0.001000,0.001000,0.001000
1026.115385,-0.039145,0.001000,0.001000,0.001000,0.001000,0.001000
1026.134615,-0.038436,0.001000,0.001000,0.001000,0.001000,0.001000
1026.153846,-0.037708,0.001000,0.001000,0.001000,0.001000,0.001000
1026.173077,-0.036960,0.001000,0.001000,0.001000,0.001000,0.001000
1026.192308,-0.036194,0.001000,0.001000,0.001000,0.001000,0.001000
1026.211538,-0.035410,0.001000,0.001000,0.001000,0.001000,0.001000
1026.230769,-0.034608,0.001000,0.001000,0.001000,0.001000,0.001000
1026.250000,-0.033788,0.001000,0.001000,0.001000,0.001000,0.001000
1026.269231,-0.032952,0.001000,0.001000,0.001000,0.001000,0.001000
1026.288462,-0.032098,0.001000,0.001000,0.001000,0.001000,0.001000
1026.307692,-0.031229,0.001000,0.001000,0.001000,0.001000,0.001000
1026.326923,-0.030344,0.001000,0.001000,0.001000,0.001000,0.001000
1026.346154,-0.029443,0.001000,0.001000,0.001000,0.001000,0.001000
1026.365385,-0.028528,0.001000,0.001000,0.001000,0.001000,0.001000
1026.384615,-0.027598,0.001000,0.001000,0.001000,0.001000,0.001000
1026.403846,-0.026654,0.001000,0.001000,0.001000,0.001000,0.001000
1026.423077,-0.025697,0.001000,0.001000,0.001000,0.001000,0.001000
1026.442308,-0.024726,0.001000,0.001000,0.001000,0.001000,0.001000
1026.461538,-0.023744,0.001000,0.001000,0.001000,0.001000,0.001000
1026.480769,-0.022749,0.001000,0.001000,0.001000,0.001000,0.001000
1026.500000,-0.021743,0.001000,0.001000,0.001000,0.001000,0.001000
1026.519231,-0.020725,0.001000,0.001000,0.001000,0.001000,0.001000
1026.538462,-0.019698,0.001000,0.001000,0.001000,0.001000,0.001000
1026.557692,-0.018660,0.001000,0.001000,0.001000,0.001000,0.001000
1026.576923,-0.017613,0.001000,0.001000,0.001000,0.001000,0.001000
1026.596154,-0.016557,0.001000,0.001000,0.001000,0.001000,0.001000
1026.615385,-0.015493,0.001000,0.001000,0.001000,0.001000,0.001000
1026.634615,-0.014421,0.001000,0.001000,0.001000,0.001000,0.001000
1026.653846,-0.013341,0.001000,0.001000,0.001000,0.001000,0.001000
1026.673077,-0.012255,0.001000,0.001000,0.001000,0.001000,0.001000
1026.692308,-0.011163,0.001000,0.001000,0.001000,0.001000,0.001000
1026.711538,-0.010065,0.001000,0.001000,0.001000,0.001000,0.001000
1026.730769,-0.008962,0.001000,0.001000,0.001000,0.001000,0.001000
1026.750000,-0.007854,0.001000,0.001000,0.001000,0.001000,0.001000
1026.769231,-0.006743,0.001000,0.001000,0.001000,0.001000,0.001000
1026.788462,-0.005628,0.001000,0.001000,0.001000,0.001000,0.001000
1026.807692,-0.004510,0.001000,0.001000,0.001000,0.001000,0.001000
1026.826923,-0.003390,0.001000,0.001000,0.001000,0.001000,0.001000
1026.846154,-0.002268,0.001000,0.001000,0.001000,0.001000,0.001000
1026.865385,-0.001145,0.001000,0.001000,0.001000,0.001000,0.001000
1026.884615,-0.000022,0.001000,0.001000,0.001000,0.001000,0.001000
1026.903846,0.001102,0.001000,0.001000,0.001000,0.001000,0.001000
1026.923077,0.002224,0.001000,0.001000,0.001000,0.001000,0.001000
1026.942308,0.003346,0.001000,0.001000,0.001000,0.001000,0.001000
1026.961538,0.004466,0.001000,0.001000,0.001000,0.001000,0.001000
1026.980769,0.005584,0.001000,0.001000,0.001000,0.001000,0.001000
1027.000000,0.006699,0.001000,0.001000,0.001000,0.001000,0.001000
1027.019231,0.007811,0.001000,0.001000,0.001000,0.001000,0.001000
1027.038462,0.008919,0.001000,0.001000,0.001000,0.001000,0.001000
1027.057692,0.010022,0.001000,0.001000,0.001000,0.001000,0.001000
1027.076923,0.011120,0.001000,0.001000,0.001000,0.001000,0.001000
1027.096154,0.012213,0.001000,0.001000,0.001000,0.001000,0.001000
1027.115385,0.013299,0.001000,0.001000,0.001000,0.001000,0.001000
1027.134615,0.014379,0.001000,0.001000,0.001000,0.001000,0.001000
1027.153846,0.015451,0.001000,0.001000,0.001000,0.001000,0.001000
1027.173077,0.016516,0.001000,0.001000,0.001000,0.001000,0.001000
1027.192308,0.017572,0.001000,0.001000,0.001000,0.001000,0.001000
1027.211538,0.018619,0.001000,0.001000,0.001000,0.001000,0.001000
1027.230769,0.019657,0.001000,0.001000,0.001000,0.001000,0.001000
1027.250000,0.020685,0.001000,0.001000,0.001000,0.001000,0.001000
1027.269231,0.021703,0.001000,0.001000,0.001000,0.001000,0.001000
1027.288462,0.022710,0.001000,0.001000,0.001000,0.001000,0.001000
1027.307692,0.023705,0.001000,0.001000,0.001000,0.001000,0.001000
1027.326923,0.024688,0.001000,0.001000,0.001000,0.001000,0.001000
1027.346154,0.025659,0.001000,0.001000,0.001000,0.001000,0.001000
1027.365385,0.026617,0.001000,0.001000,0.001000,0.001000,0.001000
1027.384615,0.027561,0.001000,0.001000,0.001000,0.001000,0.001000
1027.403846,0.028491,0.001000,0.001000,0.001000,0.001000,0.001000
1027.423077,0.029407,0.001000,0.001000,0.001000,0.001000,0.001000
1027.442308,0.030309,0.001000,0.001000,0.001000,0.001000,0.001000
1027.461538,0.031195,0.001000,0.001000,0.001000,0.001000,0.001000
1027.480769,0.032065,0.001000,0.001000,0.001000,0.001000,0.001000
1027.500000,0.032919,0.001000,0.001000,0.001000,0.001000,0.001000
1027.519231,0.033756,0.001000,0.001000,0.001000,0.001000,0.001000
1027.538462,0.034576,0.001000,0.001000,0.001000,0.001000,0.001000
1027.557692,0.035379,0.001000,0.001000,0.001000,0.001000,0.001000
1027.576923,0.036164,0.001000,0.001000,0.001000,0.001000,0.001000
1027.596154,0.036931,0.001000,0.001000,0.001000,0.001000,0.001000
1027.615385,0.037679,0.001000,0.001000,0.001000,0.001000,0.001000
1027.634615,0.038408,0.001000,0.001000,0.001000,0.001000,0.001000
1027.653846,0.039117,0.001000,0.001000,0.001000,0.001000,0.001000
1027.673077,0.039807,0.001000,0.001000,0.001000,0.001000,0.001000
1027.692308,0.040477,0.001000,0.001000,0.001000,0.001000,0.001000
1027.711538,0.041126,0.001000,0.001000,0.001000,0.001000,0.001000
1027.730769,0.041755,0.001000,0.001000,0.001000,0.001000,0.001000
1027.750000,0.042363,0.001000,0.001000,0.001000,0.001000,0.001000
1027.769231,0.042949,0.001000,0.001000,0.001000,0.001000,0.001000
1027.788462,0.043513,0.001000,0.001000,0.001000,0.001000,0.001000
1027.807692,0.044055,0.001000,0.001000,0.001000,0.001000,0.001000
1027.826923,0.044576,0.001000,0.001000,0.001000,0.001000,0.001000
1027.846154,0.045073,0.001000,0.001000,0.001000,0.001000,0.001000
1027.865385,0.045548,0.001000,0.001000,0.001000,0.001000,0.001000
1027.884615,0.046000,0.001000,0.001000,0.001000,0.001000,0.001000
1027.903846,0.046429,0.001000,0.001000,0.001000,0.001000,0.001000
1027.923077,0.046834,0.001000,0.001000,0.001000,0.001000,0.001000
1027.942308,0.047216,0.001000,0.001000,0.001000,0.001000,0.001000
1027.961538,0.047573,0.001000,0.001000,0.001000,0.001000,0.001000
1027.980769,0.047907,0.001000,0.001000,0.001000,0.001000,0.001000
1028.000000,0.048217,0.001000,0.001000,0.001000,0.001000,0.001000
1028.019231,0.048502,0.001000,0.001000,0.001000,0.001000,0.001000
1028.038462,0.048763,0.001000,0.001000,0.001000,0.001000,0.001000
1028.057692,0.048999,0.001000,0.001000,0.001000,0.001000,0.001000
1028.076923,0.049210,0.001000,0.001000,0.001000,0.001000,0.001000
1028.096154,0.049397,0.001000,0.001000,0.001000,0.001000,0.001000
1028.115385,0.049558,0.001000,0.001000,0.001000,0.001000,0.001000
1028.134615,0.049695,0.001000,0.001000,0.001000,0.001000,0.001000
1028.153846,0.049806,0.001000,0.001000,0.001000,0.001000,0.001000
1028.173077,0.049892,0.001000,0.001000,0.001000,0.001000,0.001000
1028.192308,0.049953,0.001000,0.001000,0.001000,0.001000,0.001000
1028.211538,0.049989,0.001000,0.001000,0.001000,0.001000,0.001000
1028.230769,0.050000,0.001000,0.001000,0.001000,0.001000,0.001000
1028.250000,0.049985,0.001000,0.001000,0.001000,0.001000,0.001000
1028.269231,0.049945,0.001000,0.001000,0.001000,0.001000,0.001000
1028.288462,0.049880,0.001000,0.001000,0.001000,0.001000,0.001000
1028.307692,0.049790,0.001000,0.001000,0.001000,0.001000,0.001000
1028.326923,0.049675,0.001000,0.001000,0.001000,0.001000,0.001000
1028.346154,0.049534,0.001000,0.001000,0.001000,0.001000,0.001000
1028.365385,0.049369,0.001000,0.001000,0.001000,0.001000,0.001000
1028.384615,0.049178,0.001000,0.001000,0.001000,0.001000,0.001000
1028.403846,0.048963,0.001000,0.001000,0.001000,0.001000,0.001000
1028.423077,0.048723,0.001000,0.001000,0.001000,0.001000,0.001000
1028.442308,0.048458,0.001000,0.001000,0.001000,0.001000,0.001000
1028.461538,0.048169,0.001000,0.001000,0.001000,0.001000,0.001000
1028.480769,0.047856,0.001000,0.001000,0.001000,0.001000,0.001000
1028.500000,0.047518,0.001000,0.001000,0.001000,0.001000,0.001000
1028.519231,0.047157,0.001000,0.001000,0.001000,0.001000,0.001000
1028.538462,0.046771,0.001000,0.001000,0.001000,0.001000,0.001000
1028.557692,0.046362,0.001000,0.001000,0.001000,0.001000,0.001000
1028.576923,0.045930,0.001000,0.001000,0.001000,0.001000,0.001000
1028.596154,0.045474,0.001000,0.001000,0.001000,0.001000,0.001000
1028.615385,0.044996,0.001000,0.001000,0.001000,0.001000,0.001000
1028.634615,0.044495,0.001000,0.001000,0.001000,0.001000,0.001000
1028.653846,0.043971,0.001000,0.001000,0.001000,0.001000,0.001000
1028.673077,0.043425,0.001000,0.001000,0.001000,0.001000,0.001000
1028.692308,0.042857,0.001000,0.001000,0.001000,0.001000,0.001000
1028.711538,0.042267,0.001000,0.001000,0.001000,0.001000,0.001000
1028.730769,0.041657,0.001000,0.001000,0.001000,0.001000,0.001000
1028.750000,0.041025,0.001000,0.001000,0.001000,0.001000,0.001000
1028.769231,0.040372,0.001000,0.001000,0.001000,0.001000,0.001000
1028.788462,0.039699,0.001000,0.001000,0.001000,0.001000,0.001000
1028.807692,0.039006,0.001000,0.001000,0.001000,0.001000,0.001000
1028.826923,0.038293,0.001000,0.001000,0.001000,0.001000,0.001000
1028.846154,0.037561,0.001000,0.001000,0.001000,0.001000,0.001000
1028.865385,0.036810,0.001000,0.001000,0.001000,0.001000,0.001000
1028.884615,0.036041,0.001000,0.001000,0.001000,0.001000,0.001000
1028.903846,0.035253,0.001000,0.001000,0.001000,0.001000,0.001000
1028.923077,0.034447,0.001000,0.001000,0.001000,0.001000,0.001000
1028.942308,0.033624,0.001000,0.001000,0.001000,0.001000,0.001000
1028.961538,0.032784,0.001000,0.001000,0.001000,0.001000,0.001000
1028.980769,0.031928,0.001000,0.001000,0.001000,0.001000,0.001000
1029.000000,0.031055,0.001000,0.001000,0.001000,0.001000,0.001000
1029.019231,0.030166,0.001000,0.001000,0.001000,0.001000,0.001000
1029.038462,0.029263,0.001000,0.001000,0.001000,0.001000,0.001000
1029.057692,0.028345,0.001000,0.001000,0.001000,0.001000,0.001000
1029.076923,0.027412,0.001000,0.001000,0.001000,0.001000,0.001000
1029.096154,0.026465,0.001000,0.001000,0.001000,0.001000,0.001000
1029.115385,0.025505,0.001000,0.001000,0.001000,0.001000,0.001000
1029.134615,0.024533,0.001000,0.001000,0.001000,0.001000,0.001000
1029.153846,0.023548,0.001000,0.001000,0.001000,0.001000,0.001000
1029.173077,0.022550,0.001000,0.001000,0.001000,0.001000,0.001000
1029.192308,0.021542,0.001000,0.001000,0.001000,0.001000,0.001000
1029.211538,0.020523,0.001000,0.001000,0.001000,0.001000,0.001000
1029.230769,0.019493,0.001000,0.001000,0.001000,0.001000,0.001000
1029.250000,0.018454,0.001000,0.001000,0.001000,0.001000,0.001000
1029.269231,0.017405,0.001000,0.001000,0.001000,0.001000,0.001000
1029.288462,0.016347,0.001000,0.001000,0.001000,0.001000,0.001000
1029.307692,0.015281,0.001000,0.001000,0.001000,0.001000,0.001000
1029.326923,0.014208,0.001000,0.001000,0.001000,0.001000,0.001000
1029.346154,0.013127,0.001000,0.001000,0.001000,0.001000,0.001000
1029.365385,0.012039,0.001000,0.001000,0.001000,0.001000,0.001000
1029.384615,0.010946,0.001000,0.001000,0.001000,0.001000,0.001000
1029.403846,0.009847,0.001000,0.001000,0.001000,0.001000,0.001000
1029.423077,0.008743,0.001000,0.001000,0.001000,0.001000,0.001000
1029.442308,0.007635,0.001000,0.001000,0.001000,0.001000,0.001000
1029.461538,0.006522,0.001000,0.001000,0.001000,0.001000,0.001000
1029.480769,0.005407,0.001000,0.001000,0.001000,0.001000,0.001000
1029.500000,0.004289,0.001000,0.001000,0.001000,0.001000,0.001000
1029.519231,0.003168,0.001000,0.001000,0.001000,0.001000,0.001000
1029.538462,0.002046,0.001000,0.001000,0.001000,0.001000,0.001000
1029.557692,0.000923,0.001000,0.001000,0.001000,0.001000,0.001000
1029.576923,-0.000201,0.001000,0.001000,0.001000,0.001000,0.001000
1029.596154,-0.001324,0.001000,0.001000,0.001000,0.001000,0.001000
1029.615385,-0.002447,0.001000,0.001000,0.001000,0.001000,0.001000
1029.634615,-0.003568,0.001000,0.001000,0.001000,0.001000,0.001000
1029.653846,-0.004688,0.001000,0.001000,0.001000,0.001000,0.001000
1029.673077,-0.005805,0.001000,0.001000,0.001000,0.001000,0.001000
1029.692308,-0.006920,0.001000,0.001000,0.001000,0.001000,0.001000
1029.711538,-0.008031,0.001000,0.001000,0.001000,0.001000,0.001000
1029.730769,-0.009138,0.001000,0.001000,0.001000,0.001000,0.001000
1029.750000,-0.010240,0.001000,0.001000,0.001000,0.001000,0.001000
1029.769231,-0.011337,0.001000,0.001000,0.001000,0.001000,0.001000
1029.788462,-0.012428,0.001000,0.001000,0.001000,0.001000,0.001000
1029.807692,-0.013513,0.001000,0.001000,0.001000,0.001000,0.001000
1029.826923,-0.014592,0.001000,0.001000,0.001000,0.001000,0.001000
1029.846154,-0.015663,0.001000,0.001000,0.001000,0.001000,0.001000
1029.865385,-0.016726,0.001000,0.001000,0.001000,0.001000,0.001000
1029.884615,-0.017780,0.001000,0.001000,0.001000,0.001000,0.001000
1029.903846,-0.018826,0.001000,0.001000,0.001000,0.001000,0.001000
1029.923077,-0.019862,0.001000,0.001000,0.001000,0.001000,0.001000
1029.942308,-0.020888,0.001000,0.001000,0.001000,0.001000,0.001000
1029.961538,-0.021903,0.001000,0.001000,0.001000,0.001000,0.001000
1029.980769,-0.022908,0.001000,0.001000,0.001000,0.001000,0.001000
1030.000000,0.000000,0.001000,0.001000,0.001000,0.001000,0.001000
1030.019231,0.001104,0.001000,0.001000,0.001000,0.001000,0.001000
1030.038462,0.002207,0.001000,0.001000,0.001000,0.001000,0.001000
1030.057692,0.003309,0.001000,0.001000,0.001000,0.001000,0.001000
1030.076923,0.004409,0.001000,0.001000,0.001000,0.001000,0.001000
1030.096154,0.005507,0.001000,0.001000,0.001000,0.001000,0.001000
1030.115385,0.006603,0.001000,0.001000,0.001000,0.001000,0.001000
1030.134615,0.007695,0.001000,0.001000,0.001000,0.001000,0.001000
1030.153846,0.008784,0.001000,0.001000,0.001000,0.001000,0.001000
1030.173077,0.009868,0.001000,0.001000,0.001000,0.001000,0.001000
1030.192308,0.010947,0.001000,0.001000,0.001000,0.001000,0.001000
1030.211538,0.012022,0.001000,0.001000,0.001000,0.001000,0.001000
1030.230769,0.013090,0.001000,0.001000,0.001000,0.001000,0.001000
1030.250000,0.014152,0.001000,0.001000,0.001000,0.001000,0.001000
1030.269231,0.015207,0.001000,0.001000,0.001000,0.001000,0.001000
1030.288462,0.016254,0.001000,0.001000,0.001000,0.001000,0.001000
1030.307692,0.017294,0.001000,0.001000,0.001000,0.001000,0.001000
1030.326923,0.018325,0.001000,0.001000,0.001000,0.001000,0.001000
1030.346154,0.019348,0.001000,0.001000,0.001000,0.001000,0.001000
1030.365385,0.020361,0.001000,0.001000,0.001000,0.001000,0.001000
1030.384615,0.021364,0.001000,0.001000,0.001000,0.001000,0.001000
1030.403846,0.022356,0.001000,0.001000,0.001000,0.001000,0.001000
1030.423077,0.023338,0.001000,0.001000,0.001000,0.001000,0.001000
1030.442308,0.024308,0.001000,0.001000,0.001000,0.001000,0.001000
1030.461538,0.025267,0.001000,0.001000,0.001000,0.001000,0.001000
1030.480769,0.026213,0.001000,0.001000,0.001000,0.001000,0.001000
1030.500000,0.027146,0.001000,0.001000,0.001000,0.001000,0.001000
1030.519231,0.028066,0.001000,0.001000,0.001000,0.001000,0.001000
1030.538462,0.028973,0.001000,0.001000,0.001000,0.001000,0.001000
1030.557692,0.029865,0.001000,0.001000,0.001000,0.001000,0.001000
1030.576923,0.030743,0.001000,0.001000,0.001000,0.001000,0.001000
1030.596154,0.031606,0.001000,0.001000,0.001000,0.001000,0.001000
1030.615385,0.032453,0.001000,0.001000,0.001000,0.001000,0.001000
1030.634615,0.033285,0.001000,0.001000,0.001000,0.001000,0.001000
1030.653846,0.034100,0.001000,0.001000,0.001000,0.001000,0.001000
1030.673077,0.034899,0.001000,0.001000,0.001000,0.001000,0.001000
1030.692308,0.035681,0.001000,0.001000,0.001000,0.001000,0.001000
1030.711538,0.036445,0.001000,0.001000,0.001000,0.001000,0.001000
1030.730769,0.037192,0.001000,0.001000,0.001000,0.001000,0.001000
1030.750000,0.037921,0.001000,0.001000,0.001000,0.001000,0.001000
1030.769231,0.038631,0.001000,0.001000,0.001000,0.001000,0.001000
1030.788462,0.039322,0.001000,0.001000,0.001000,0.001000,0.001000
1030.807692,0.039994,0.001000,0.001000,0.001000,0.001000,0.001000
1030.826923,0.040647,0.001000,0.001000,0.001000,0.001000,0.001000
1030.846154,0.041279,0.001000,0.001000,0.001000,0.001000,0.001000
1030.865385,0.041892,0.001000,0.001000,0.001000,0.001000,0.001000
1030.884615,0.042484,0.001000,0.001000,0.001000,0.001000,0.001000
1030.903846,0.043056,0.001000,0.001000,0.001000,0.001000,0.001000
1030.923077,0.043606,0.001000,0.001000,0.001000,0.001000,0.001000
1030.942308,0.044136,0.001000,0.001000,0.001000,0.001000,0.001000
1030.961538,0.044644,0.001000,0.001000,0.001000,0.001000,0.001000
1030.980769,0.045130,0.001000,0.001000,0.001000,0.001000,0.001000
1031.000000,0.045594,0.001000,0.001000,0.001000,0.001000,0.001000
1031.019231,0.046036,0.001000,0.001000,0.001000,0.001000,0.001000
1031.038462,0.046455,0.001000,0.001000,0.001000,0.001000,0.001000
1031.057692,0.046852,0.001000,0.001000,0.001000,0.001000,0.001000
1031.076923,0.047226,0.001000,0.001000,0.001000,0.001000,0.001000
1031.096154,0.047577,0.001000,0.001000,0.001000,0.001000,0.001000
1031.115385,0.047905,0.001000,0.001000,0.001000,0.001000,0.001000
1031.134615,0.048209,0.001000,0.001000,0.001000,0.001000,0.001000
1031.153846,0.048490,0.001000,0.001000,0.001000,0.001000,0.001000
1031.173077,0.048747,0.001000,0.001000,0.001000,0.001000,0.001000
1031.192308,0.048981,0.001000,0.001000,0.001000,0.001000,0.001000
1031.211538,0.049191,0.001000,0.001000,0.001000,0.001000,0.001000
1031.230769,0.049377,0.001000,0.001000,0.001000,0.001000,0.001000
1031.250000,0.049538,0.001000,0.001000,0.001000,0.001000,0.001000
1031.269231,0.049676,0.001000,0.001000,0.001000,0.001000,0.001000
1031.288462,0.049789,0.001000,0.001000,0.001000,0.001000,0.001000
1031.307692,0.049878,0.001000,0.001000,0.001000,0.001000,0.001000
1031.326923,0.049943,0.001000,0.001000,0.001000,0.001000,0.001000
1031.346154,0.049984,0.001000,0.001000,0.001000,0.001000,0.001000
1031.365385,0.050000,0.001000,0.001000,0.001000,0.001000,0.001000
1031.384615,0.049991,0.001000,0.001000,0.001000,0.001000,0.001000
1031.403846,0.049959,0.001000,0.001000,0.001000,0.001000,0.001000
1031.423077,0.049902,0.001000,0.001000,0.001000,0.001000,0.001000
1031.442308,0.049821,0.001000,0.001000,0.001000,0.001000,0.001000
1031.461538,0.049715,0.001000,0.001000,0.001000,0.001000,0.001000
1031.480769,0.049585,0.001000,0.001000,0.001000,0.001000,0.001000
1031.500000,0.049431,0.001000,0.001000,0.001000,0.001000,0.001000
1031.519231,0.049253,0.001000,0.001000,0.001000,0.001000,0.001000
1031.538462,0.049051,0.001000,0.001000,0.001000,0.001000,0.001000
1031.557692,0.048826,0.001000,0.001000,0.001000,0.001000,0.001000
1031.576923,0.048576,0.001000,0.001000,0.001000,0.001000,0.001000
1031.596154,0.048303,0.001000,0.001000,0.001000,0.001000,0.001000
1031.615385,0.048006,0.001000,0.001000,0.001000,0.001000,0.001000
1031.634615,0.047685,0.001000,0.001000,0.001000,0.001000,0.001000
1031.653846,0.047342,0.001000,0.001000,0.001000,0.001000,0.001000
1031.673077,0.046975,0.001000,0.001000,0.001000,0.001000,0.001000
1031.692308,0.046586,0.001000,0.001000,0.001000,0.001000,0.001000
1031.711538,0.046174,0.001000,0.001000,0.001000,0.001000,0.001000
1031.730769,0.045739,0.001000,0.001000,0.001000,0.001000,0.001000
1031.750000,0.045282,0.001000,0.001000,0.001000,0.001000,0.001000
1031.769231,0.044803,0.001000,0.001000,0.001000,0.001000,0.001000
1031.788462,0.044302,0.001000,0.001000,0.001000,0.001000,0.001000
1031.807692,0.043780,0.001000,0.001000,0.001000,0.001000,0.001000
1031.826923,0.043236,0.001000,0.001000,0.001000,0.001000,0.001000
1031.846154,0.042671,0.001000,0.001000,0.001000,0.001000,0.001000
1031.865385,0.042086,0.001000,0.001000,0.001000,0.001000,0.001000
1031.884615,0.041479,0.001000,0.001000,0.001000,0.001000,0.001000
1031.903846,0.040853,0.001000,0.001000,0.001000,0.001000,0.001000
1031.923077,0.040207,0.001000,0.001000,0.001000,0.001000,0.001000
1031.942308,0.039541,0.001000,0.001000,0.001000,0.001000,0.001000
1031.961538,0.038856,0.001000,0.001000,0.001000,0.001000,0.001000
1031.980769,0.038152,0.001000,0.001000,0.001000,0.001000,0.001000
1032.000000,0.037429,0.001000,0.001000,0.001000,0.001000,0.001000
1032.019231,0.036689,0.001000,0.001000,0.001000,0.001000,0.001000
1032.038462,0.035930,0.001000,0.001000,0.001000,0.001000,0.001000
1032.057692,0.035154,0.001000,0.001000,0.001000,0.001000,0.001000
1032.076923,0.034360,0.001000,0.001000,0.001000,0.001000,0.001000
1032.096154,0.033550,0.001000,0.001000,0.001000,0.001000,0.001000
1032.115385,0.032724,0.001000,0.001000,0.001000,0.001000,0.001000
1032.134615,0.031881,0.001000,0.001000,0.001000,0.001000,0.001000
1032.153846,0.031023,0.001000,0.001000,0.001000,0.001000,0.001000
1032.173077,0.030150,0.001000,0.001000,0.001000,0.001000,0.001000
1032.192308,0.029263,0.001000,0.001000,0.001000,0.001000,0.001000
1032.211538,0.028361,0.001000,0.001000,0.001000,0.001000,0.001000
1032.230769,0.027445,0.001000,0.001000,0.001000,0.001000,0.001000
1032.250000,0.026516,0.001000,0.001000,0.001000,0.001000,0.001000
1032.269231,0.025574,0.001000,0.001000,0.001000,0.001000,0.001000
1032.288462,0.024619,0.001000,0.001000,0.001000,0.001000,0.001000
1032.307692,0.023653,0.001000,0.001000,0.001000,0.001000,0.001000
1032.326923,0.022675,0.001000,0.001000,0.001000,0.001000,0.001000
1032.346154,0.021685,0.001000,0.001000,0.001000,0.001000,0.001000
1032.365385,0.020686,0.001000,0.001000,0.001000,0.001000,0.001000
1032.384615,0.019676,0.001000,0.001000,0.001000,0.001000,0.001000
1032.403846,0.018657,0.001000,0.001000,0.001000,0.001000,0.001000
1032.423077,0.017628,0.001000,0.001000,0.001000,0.001000,0.001000
1032.442308,0.016591,0.001000,0.001000,0.001000,0.001000,0.001000
1032.461538,0.015546,0.001000,0.001000,0.001000,0.001000,0.001000
1032.480769,0.014493,0.001000,0.001000,0.001000,0.001000,0.001000
1032.500000,0.013434,0.001000,0.001000,0.001000,0.001000,0.001000
1032.519231,0.012367,0.001000,0.001000,0.001000,0.001000,0.001000
1032.538462,0.011295,0.001000,0.001000,0.001000,0.001000,0.001000
1032.557692,0.010217,0.001000,0.001000,0.001000,0.001000,0.001000
1032.576923,0.009134,0.001000,0.001000,0.001000,0.001000,0.001000
1032.596154,0.008047,0.001000,0.001000,0.001000,0.001000,0.001000
1032.615385,0.006956,0.001000,0.001000,0.001000,0.001000,0.001000
1032.634615,0.005861,0.001000,0.001000,0.001000,0.001000,0.001000
1032.653846,0.004764,0.001000,0.001000,0.001000,0.001000,0.001000
1032.673077,0.003664,0.001000,0.001000,0.001000,0.001000,0.001000
1032.692308,0.002563,0.001000,0.001000,0.001000,0.001000,0.001000
1032.711538,0.001460,0.001000,0.001000,0.001000,0.001000,0.001000
1032.730769,0.000357,0.001000,0.001000,0.001000,0.001000,0.001000
1032.750000,-0.000747,0.001000,0.001000,0.001000,0.001000,0.001000
1032.769231,-0.001850,0.001000,0.001000,0.001000,0.001000,0.001000
1032.788462,-0.002953,0.001000,0.001000,0.001000,0.001000,0.001000
1032.807692,-0.004054,0.001000,0.001000,0.001000,0.001000,0.001000
1032.826923,-0.005153,0.001000,0.001000,0.001000,0.001000,0.001000
1032.846154,-0.006249,0.001000,0.001000,0.001000,0.001000,0.001000
1032.865385,-0.007343,0.001000,0.001000,0.001000,0.001000,0.001000
1032.884615,-0.008432,0.001000,0.001000,0.001000,0.001000,0.001000
1032.903846,-0.009518,0.001000,0.001000,0.001000,0.001000,0.001000
1032.923077,-0.010599,0.001000,0.001000,0.001000,0.001000,0.001000
1032.942308,-0.011675,0.001000,0.001000,0.001000,0.001000,0.001000
1032.961538,-0.012745,0.001000,0.001000,0.001000,0.001000,0.001000
1032.980769,-0.013809,0.001000,0.001000,0.001000,0.001000,0.001000
1033.000000,-0.014867,0.001000,0.001000,0.001000,0.001000,0.001000
1033.019231,-0.015917,0.001000,0.001000,0.001000,0.001000,0.001000
1033.038462,-0.016959,0.001000,0.001000,0.001000,0.001000,0.001000
1033.057692,-0.017993,0.001000,0.001000,0.001000,0.001000,0.001000
1033.076923,-0.019018,0.001000,0.001000,0.001000,0.001000,0.001000
1033.096154,-0.020034,0.001000,0.001000,0.001000,0.001000,0.001000
1033.115385,-0.021041,0.001000,0.001000,0.001000,0.001000,0.001000
1033.134615,-0.022037,0.001000,0.001000,0.001000,0.001000,0.001000
1033.153846,-0.023022,0.001000,0.001000,0.001000,0.001000,0.001000
1033.173077,-0.023996,0.001000,0.001000,0.001000,0.001000,0.001000
1033.192308,-0.024958,0.001000,0.001000,0.001000,0.001000,0.001000
1033.211538,-0.025909,0.001000,0.001000,0.001000,0.001000,0.001000
1033.230769,-0.026846,0.001000,0.001000,0.001000,0.001000,0.001000
1033.250000,-0.027771,0.001000,0.001000,0.001000,0.001000,0.001000
1033.269231,-0.028682,0.001000,0.001000,0.001000,0.001000,0.001000
1033.288462,-0.029579,0.001000,0.001000,0.001000,0.001000,0.001000
1033.307692,-0.030461,0.001000,0.001000,0.001000,0.001000,0.001000
1033.326923,-0.031329,0.001000,0.001000,0.001000,0.001000,0.001000
1033.346154,-0.032181,0.001000,0.001000,0.001000,0.001000,0.001000
1033.365385,-0.033018,0.001000,0.001000,0.001000,0.001000,0.001000
1033.384615,-0.033839,0.001000,0.001000,0.001000,0.001000,0.001000
1033.403846,-0.034643,0.001000,0.001000,0.001000,0.001000,0.001000
1033.423077,-0.035430,0.001000,0.001000,0.001000,0.001000,0.001000
1033.442308,-0.036200,0.001000,0.001000,0.001000,0.001000,0.001000
1033.461538,-0.036953,0.001000,0.001000,0.001000,0.001000,0.001000
1033.480769,-0.037687,0.001000,0.001000,0.001000,0.001000,0.001000
1033.500000,-0.038403,0.001000,0.001000,0.001000,0.001000,0.001000
1033.519231,-0.039101,0.001000,0.001000,0.001000,0.001000,0.001000
1033.538462,-0.039779,0.001000,0.001000,0.001000,0.001000,0.001000
1033.557692,-0.040438,0.001000,0.001000,0.001000,0.001000,0.001000
1033.576923,-0.041077,0.001000,0.001000,0.001000,0.001000,0.001000
1033.596154,-0.041696,0.001000,0.001000,0.001000,0.001000,0.001000
1033.615385,-0.042295,0.001000,0.001000,0.001000,0.001000,0.001000
1033.634615,-0.042874,0.001000,0.001000,0.001000,0.001000,0.001000
1033.653846,-0.043431,0.001000,0.001000,0.001000,0.001000,0.001000
1033.673077,-0.043967,0.001000,0.001000,0.001000,0.001000,0.001000
1033.692308,-0.044482,0.001000,0.001000,0.001000,0.001000,0.001000
1033.711538,-0.044975,0.001000,0.001000,0.001000,0.001000,0.001000
1033.730769,-0.045446,0.001000,0.001000,0.001000,0.001000,0.001000
1033.750000,-0.045895,0.001000,0.001000,0.001000,0.001000,0.001000
1033.769231,-0.046322,0.001000,0.001000,0.001000,0.001000,0.001000
1033.788462,-0.046726,0.001000,0.001000,0.001000,0.001000,0.001000
1033.807692,-0.047108,0.001000,0.001000,0.001000,0.001000,0.001000
1033.826923,-0.047466,0.001000,0.001000,0.001000,0.001000,0.001000
1033.846154,-0.047801,0.001000,0.001000,0.001000,0.001000,0.001000
1033.865385,-0.048113,0.001000,0.001000,0.001000,0.001000,0.001000
1033.884615,-0.048402,0.001000,0.001000,0.001000,0.001000,0.001000
1033.903846,-0.048667,0.001000,0.001000,0.001000,0.001000,0.001000
1033.923077,-0.048908,0.001000,0.001000,0.001000,0.001000,0.001000
1033.942308,-0.049126,0.001000,0.001000,0.001000,0.001000,0.001000
1033.961538,-0.049319,0.001000,0.001000,0.001000,0.001000,0.001000
1033.980769,-0.049489,0.001000,0.001000,0.001000,0.001000,0.001000
1034.000000,-0.049634,0.001000,0.001000,0.001000,0.001000,0.001000
1034.019231,-0.049755,0.001000,0.001000,0.001000,0.001000,0.001000
1034.038462,-0.049852,0.001000,0.001000,0.001000,0.001000,0.001000
1034.057692,-0.049925,0.001000,0.001000,0.001000,0.001000,0.001000
1034.076923,-0.049973,0.001000,0.001000,0.001000,0.001000,0.001000
1034.096154,-0.049997,0.001000,0.001000,0.001000,0.001000,0.001000
1034.115385,-0.049997,0.001000,0.001000,0.001000,0.001000,0.001000
1034.134615,-0.049972,0.001000,0.001000,0.001000,0.001000,0.001000
1034.153846,-0.049923,0.001000,0.001000,0.001000,0.001000,0.001000
1034.173077,-0.049850,0.001000,0.001000,0.001000,0.001000,0.001000
1034.192308,-0.049752,0.001000,0.001000,0.001000,0.001000,0.001000
1034.211538,-0.049630,0.001000,0.001000,0.001000,0.001000,0.001000
1034.230769,-0.049484,0.001000,0.001000,0.001000,0.001000,0.001000
1034.250000,-0.049314,0.001000,0.001000,0.001000,0.001000,0.001000
1034.269231,-0.049119,0.001000,0.001000,0.001000,0.001000,0.001000
1034.288462,-0.048901,0.001000,0.001000,0.001000,0.001000,0.001000
1034.307692,-0.048659,0.001000,0.001000,0.001000,0.001000,0.001000
1034.326923,-0.048393,0.001000,0.001000,0.001000,0.001000,0.001000
1034.346154,-0.048104,0.001000,0.001000,0.001000,0.001000,0.001000
1034.365385,-0.047791,0.001000,0.001000,0.001000,0.001000,0.001000
1034.384615,-0.047455,0.001000,0.001000,0.001000,0.001000,0.001000
1034.403846,-0.047096,0.001000,0.001000,0.001000,0.001000,0.001000
1034.423077,-0.046714,0.001000,0.001000,0.001000,0.001000,0.001000
1034.442308,-0.046309,0.001000,0.001000,0.001000,0.001000,0.001000
1034.461538,-0.045882,0.001000,0.001000,0.001000,0.001000,0.001000
1034.480769,-0.045432,0.001000,0.001000,0.001000,0.001000,0.001000
1034.500000,-0.044960,0.001000,0.001000,0.001000,0.001000,0.001000
1034.519231,-0.044466,0.001000,0.001000,0.001000,0.001000,0.001000
1034.538462,-0.043951,0.001000,0.001000,0.001000,0.001000,0.001000
1034.557692,-0.043414,0.001000,0.001000,0.001000,0.001000,0.001000
1034.576923,-0.042856,0.001000,0.001000,0.001000,0.001000,0.001000
1034.596154,-0.042277,0.001000,0.001000,0.001000,0.001000,0.001000
1034.615385,-0.041677,0.001000,0.001000,0.001000,0.001000,0.001000
1034.634615,-0.041058,0.001000,0.001000,0.001000,0.001000,0.001000
1034.653846,-0.040418,0.001000,0.001000,0.001000,0.001000,0.001000
1034.673077,-0.039758,0.001000,0.001000,0.001000,0.001000,0.001000
1034.692308,-0.039079,0.001000,0.001000,0.001000,0.001000,0.001000
