timestamp,ax,ay,az,gx,gy,gz
1000.000000,0.000000,0.001000,0.001000,0.001000,0.001000,0.001000
1000.019231,0.001350,0.001000,0.001000,0.001000,0.001000,0.001000
1000.038462,0.002699,0.001000,0.001000,0.001000,0.001000,0.001000
1000.057692,0.004046,0.001000,0.001000,0.001000,0.001000,0.001000
1000.076923,0.005390,0.001000,0.001000,0.001000,0.001000,0.001000
1000.096154,0.006731,0.001000,0.001000,0.001000,0.001000,0.001000
1000.115385,0.008066,0.001000,0.001000,0.001000,0.001000,0.001000
1000.134615,0.009395,0.001000,0.001000,0.001000,0.001000,0.001000
1000.153846,0.010718,0.001000,0.001000,0.001000,0.001000,0.001000
1000.173077,0.012033,0.001000,0.001000,0.001000,0.001000,0.001000
1000.192308,0.013339,0.001000,0.001000,0.001000,0.001000,0.001000
1000.211538,0.014635,0.001000,0.001000,0.001000,0.001000,0.001000
1000.230769,0.015920,0.001000,0.001000,0.001000,0.001000,0.001000
1000.250000,0.017194,0.001000,0.001000,0.001000,0.001000,0.001000
1000.269231,0.018456,0.001000,0.001000,0.001000,0.001000,0.001000
1000.288462,0.019704,0.001000,0.001000,0.001000,0.001000,0.001000
1000.307692,0.020937,0.001000,0.001000,0.001000,0.001000,0.001000
1000.326923,0.022156,0.001000,0.001000,0.001000,0.001000,0.001000
1000.346154,0.023358,0.001000,0.001000,0.001000,0.001000,0.001000
1000.365385,0.024543,0.001000,0.001000,0.001000,0.001000,0.001000
1000.384615,0.025710,0.001000,0.001000,0.001000,0.001000,0.001000
1000.403846,0.026859,0.001000,0.001000,0.001000,0.001000,0.001000
1000.423077,0.027988,0.001000,0.001000,0.001000,0.001000,0.001000
1000.442308,0.029096,0.001000,0.001000,0.001000,0.001000,0.001000
1000.461538,0.030184,0.001000,0.001000,0.001000,0.001000,0.001000
1000.480769,0.031249,0.001000,0.001000,0.001000,0.001000,0.001000
1000.500000,0.032291,0.001000,0.001000,0.001000,0.001000,0.001000
1000.519231,0.033310,0.001000,0.001000,0.001000,0.001000,0.001000
1000.538462,0.034305,0.001000,0.001000,0.001000,0.001000,0.001000
1000.557692,0.035275,0.001000,0.001000,0.001000,0.001000,0.001000
1000.576923,0.036219,0.001000,0.001000,0.001000,0.001000,0.001000
1000.596154,0.037136,0.001000,0.001000,0.001000,0.001000,0.001000
1000.615385,0.038027,0.001000,0.001000,0.001000,0.001000,0.001000
1000.634615,0.038889,0.001000,0.001000,0.001000,0.001000,0.001000
1000.653846,0.039724,0.001000,0.001000,0.001000,0.001000,0.001000
1000.673077,0.040529,0.001000,0.001000,0.001000,0.001000,0.001000
1000.692308,0.041305,0.001000,0.001000,0.001000,0.001000,0.001000
1000.711538,0.042051,0.001000,0.001000,0.001000,0.001000,0.001000
1000.730769,0.042766,0.001000,0.001000,0.001000,0.001000,0.001000
1000.750000,0.043450,0.001000,0.001000,0.001000,0.001000,0.001000
1000.769231,0.044102,0.001000,0.001000,0.001000,0.001000,0.001000
1000.788462,0.044722,0.001000,0.001000,0.001000,0.001000,0.001000
1000.807692,0.045309,0.001000,0.001000,0.001000,0.001000,0.001000
1000.826923,0.045864,0.001000,0.001000,0.001000,0.001000,0.001000
1000.846154,0.046385,0.001000,0.001000,0.001000,0.001000,0.001000
1000.865385,0.046872,0.001000,0.001000,0.001000,0.001000,0.001000
1000.884615,0.047325,0.001000,0.001000,0.001000,0.001000,0.001000
1000.903846,0.047743,0.001000,0.001000,0.001000,0.001000,0.001000
1000.923077,0.048127,0.001000,0.001000,0.001000,0.001000,0.001000
1000.942308,0.048475,0.001000,0.001000,0.001000,0.001000,0.001000
1000.961538,0.048788,0.001000,0.001000,0.001000,0.001000,0.001000
1000.980769,0.049066,0.001000,0.001000,0.001000,0.001000,0.001000
1001.000000,0.049308,0.001000,0.001000,0.001000,0.001000,0.001000
1001.019231,0.049514,0.001000,0.001000,0.001000,0.001000,0.001000
1001.038462,0.049684,0.001000,0.001000,0.001000,0.001000,0.001000
1001.057692,0.049817,0.001000,0.001000,0.001000,0.001000,0.001000
1001.076923,0.049914,0.001000,0.001000,0.001000,0.001000,0.001000
1001.096154,0.049975,0.001000,0.001000,0.001000,0.001000,0.001000
1001.115385,0.049999,0.001000,0.001000,0.001000,0.001000,0.001000
1001.134615,0.049987,0.001000,0.001000,0.001000,0.001000,0.001000
1001.153846,0.049939,0.001000,0.001000,0.001000,0.001000,0.001000
1001.173077,0.049854,0.001000,0.001000,0.001000,0.001000,0.001000
1001.192308,0.049733,0.001000,0.001000,0.001000,0.001000,0.001000
1001.211538,0.049575,0.001000,0.001000,0.001000,0.001000,0.001000
1001.230769,0.049381,0.001000,0.001000,0.001000,0.001000,0.001000
1001.250000,0.049152,0.001000,0.001000,0.001000,0.001000,0.001000
1001.269231,0.048886,0.001000,0.001000,0.001000,0.001000,0.001000
1001.288462,0.048585,0.001000,0.001000,0.001000,0.001000,0.001000
1001.307692,0.048248,0.001000,0.001000,0.001000,0.001000,0.001000
1001.326923,0.047876,0.001000,0.001000,0.001000,0.001000,0.001000
1001.346154,0.047470,0.001000,0.001000,0.001000,0.001000,0.001000
1001.365385,0.047028,0.001000,0.001000,0.001000,0.001000,0.001000
1001.384615,0.046553,0.001000,0.001000,0.001000,0.001000,0.001000
1001.403846,0.046043,0.001000,0.001000,0.001000,0.001000,0.001000
1001.423077,0.045500,0.001000,0.001000,0.001000,0.001000,0.001000
1001.442308,0.044924,0.001000,0.001000,0.001000,0.001000,0.001000
1001.461538,0.044315,0.001000,0.001000,0.001000,0.001000,0.001000
1001.480769,0.043673,0.001000,0.001000,0.001000,0.001000,0.001000
1001.500000,0.043000,0.001000,0.001000,0.001000,0.001000,0.001000
1001.519231,0.042295,0.001000,0.001000,0.001000,0.001000,0.001000
1001.538462,0.041560,0.001000,0.001000,0.001000,0.001000,0.001000
1001.557692,0.040794,0.001000,0.001000,0.001000,0.001000,0.001000
1001.576923,0.039999,0.001000,0.001000,0.001000,0.001000,0.001000
1001.596154,0.039174,0.001000,0.001000,0.001000,0.001000,0.001000
1001.615385,0.038321,0.001000,0.001000,0.001000,0.001000,0.001000
1001.634615,0.037440,0.001000,0.001000,0.001000,0.001000,0.001000
1001.653846,0.036531,0.001000,0.001000,0.001000,0.001000,0.001000
1001.673077,0.035596,0.001000,0.001000,0.001000,0.001000,0.001000
1001.692308,0.034635,0.001000,0.001000,0.001000,0.001000,0.001000
1001.711538,0.033649,0.001000,0.001000,0.001000,0.001000,0.001000
1001.730769,0.032638,0.001000,0.001000,0.001000,0.001000,0.001000
1001.750000,0.031603,0.001000,0.001000,0.001000,0.001000,0.001000
1001.769231,0.030546,0.001000,0.001000,0.001000,0.001000,0.001000
1001.788462,0.029466,0.001000,0.001000,0.001000,0.001000,0.001000
1001.807692,0.028364,0.001000,0.001000,0.001000,0.001000,0.001000
1001.826923,0.027242,0.001000,0.001000,0.001000,0.001000,0.001000
1001.846154,0.026100,0.001000,0.001000,0.001000,0.001000,0.001000
1001.865385,0.024939,0.001000,0.001000,0.001000,0.001000,0.001000
1001.884615,0.023760,0.001000,0.001000,0.001000,0.001000,0.001000
1001.903846,0.022563,0.001000,0.001000,0.001000,0.001000,0.001000
1001.923077,0.021350,0.001000,0.001000,0.001000,0.001000,0.001000
1001.942308,0.020122,0.001000,0.001000,0.001000,0.001000,0.001000
1001.961538,0.018879,0.001000,0.001000,0.001000,0.001000,0.001000
1001.980769,0.017622,0.001000,0.001000,0.001000,0.001000,0.001000
1002.000000,0.016352,0.001000,0.001000,0.001000,0.001000,0.001000
1002.019231,0.015070,0.001000,0.001000,0.001000,0.001000,0.001000
1002.038462,0.013777,0.001000,0.001000,0.001000,0.001000,0.001000
1002.057692,0.012474,0.001000,0.001000,0.001000,0.001000,0.001000
1002.076923,0.011162,0.001000,0.001000,0.001000,0.001000,0.001000
1002.096154,0.009842,0.001000,0.001000,0.001000,0.001000,0.001000
1002.115385,0.008515,0.001000,0.001000,0.001000,0.001000,0.001000
1002.134615,0.007182,0.001000,0.001000,0.001000,0.001000,0.001000
1002.153846,0.005843,0.001000,0.001000,0.001000,0.001000,0.001000
1002.173077,0.004500,0.001000,0.001000,0.001000,0.001000,0.001000
1002.192308,0.003154,0.001000,0.001000,0.001000,0.001000,0.001000
1002.211538,0.001805,0.001000,0.001000,0.001000,0.001000,0.001000
1002.230769,0.000456,0.001000,0.001000,0.001000,0.001000,0.001000
1002.250000,-0.000895,0.001000,0.001000,0.001000,0.001000,0.001000
1002.269231,-0.002244,0.001000,0.001000,0.001000,0.001000,0.001000
1002.288462,-0.003592,0.001000,0.001000,0.001000,0.001000,0.001000
1002.307692,-0.004937,0.001000,0.001000,0.001000,0.001000,0.001000
1002.326923,-0.006279,0.001000,0.001000,0.001000,0.001000,0.001000
1002.346154,-0.007616,0.001000,0.001000,0.001000,0.001000,0.001000
1002.365385,-0.008947,0.001000,0.001000,0.001000,0.001000,0.001000
1002.384615,-0.010272,0.001000,0.001000,0.001000,0.001000,0.001000
1002.403846,-0.011590,0.001000,0.001000,0.001000,0.001000,0.001000
1002.423077,-0.012899,0.001000,0.001000,0.001000,0.001000,0.001000
1002.442308,-0.014199,0.001000,0.001000,0.001000,0.001000,0.001000
1002.461538,-0.015488,0.001000,0.001000,0.001000,0.001000,0.001000
1002.480769,-0.016766,0.001000,0.001000,0.001000,0.001000,0.001000
1002.500000,-0.018032,0.001000,0.001000,0.001000,0.001000,0.001000
1002.519231,-0.019284,0.001000,0.001000,0.001000,0.001000,0.001000
1002.538462,-0.020523,0.001000,0.001000,0.001000,0.001000,0.001000
1002.557692,-0.021746,0.001000,0.001000,0.001000,0.001000,0.001000
1002.576923,-0.022954,0.001000,0.001000,0.001000,0.001000,0.001000
1002.596154,-0.024145,0.001000,0.001000,0.001000,0.001000,0.001000
1002.615385,-0.025318,0.001000,0.001000,0.001000,0.001000,0.001000
1002.634615,-0.026473,0.001000,0.001000,0.001000,0.001000,0.001000
1002.653846,-0.027609,0.001000,0.001000,0.001000,0.001000,0.001000
1002.673077,-0.028725,0.001000,0.001000,0.001000,0.001000,0.001000
1002.692308,-0.029819,0.001000,0.001000,0.001000,0.001000,0.001000
1002.711538,-0.030892,0.001000,0.001000,0.001000,0.001000,0.001000
1002.730769,-0.031942,0.001000,0.001000,0.001000,0.001000,0.001000
1002.750000,-0.032969,0.001000,0.001000,0.001000,0.001000,0.001000
1002.769231,-0.033972,0.001000,0.001000,0.001000,0.001000,0.001000
1002.788462,-0.034950,0.001000,0.001000,0.001000,0.001000,0.001000
1002.807692,-0.035903,0.001000,0.001000,0.001000,0.001000,0.001000
1002.826923,-0.036830,0.001000,0.001000,0.001000,0.001000,0.001000
1002.846154,-0.037729,0.001000,0.001000,0.001000,0.001000,0.001000
1002.865385,-0.038601,0.001000,0.001000,0.001000,0.001000,0.001000
1002.884615,-0.039445,0.001000,0.001000,0.001000,0.001000,0.001000
1002.903846,-0.040261,0.001000,0.001000,0.001000,0.001000,0.001000
1002.923077,-0.041046,0.001000,0.001000,0.001000,0.001000,0.001000
1002.942308,-0.041802,0.001000,0.001000,0.001000,0.001000,0.001000
1002.961538,-0.042528,0.001000,0.001000,0.001000,0.001000,0.001000
1002.980769,-0.043222,0.001000,0.001000,0.001000,0.001000,0.001000
1003.000000,-0.043885,0.001000,0.001000,0.001000,0.001000,0.001000
1003.019231,-0.044516,0.001000,0.001000,0.001000,0.001000,0.001000
1003.038462,-0.045115,0.001000,0.001000,0.001000,0.001000,0.001000
1003.057692,-0.045680,0.001000,0.001000,0.001000,0.001000,0.001000
1003.076923,-0.046213,0.001000,0.001000,0.001000,0.001000,0.001000
1003.096154,-0.046711,0.001000,0.001000,0.001000,0.001000,0.001000
1003.115385,-0.047176,0.001000,0.001000,0.001000,0.001000,0.001000
1003.134615,-0.047606,0.001000,0.001000,0.001000,0.001000,0.001000
1003.153846,-0.048001,0.001000,0.001000,0.001000,0.001000,0.001000
1003.173077,-0.048362,0.001000,0.001000,0.001000,0.001000,0.001000
1003.192308,-0.048687,0.001000,0.001000,0.001000,0.001000,0.001000
1003.211538,-0.048976,0.001000,0.001000,0.001000,0.001000,0.001000
1003.230769,-0.049230,0.001000,0.001000,0.001000,0.001000,0.001000
1003.250000,-0.049448,0.001000,0.001000,0.001000,0.001000,0.001000
1003.269231,-0.049630,0.001000,0.001000,0.001000,0.001000,0.001000
1003.288462,-0.049776,0.001000,0.001000,0.001000,0.001000,0.001000
1003.307692,-0.049886,0.001000,0.001000,0.001000,0.001000,0.001000
1003.326923,-0.049959,0.001000,0.001000,0.001000,0.001000,0.001000
1003.346154,-0.049995,0.001000,0.001000,0.001000,0.001000,0.001000
1003.365385,-0.049996,0.001000,0.001000,0.001000,0.001000,0.001000
1003.384615,-0.049959,0.001000,0.001000,0.001000,0.001000,0.001000
1003.403846,-0.049887,0.001000,0.001000,0.001000,0.001000,0.001000
1003.423077,-0.049778,0.001000,0.001000,0.001000,0.001000,0.001000
1003.442308,-0.049632,0.001000,0.001000,0.001000,0.001000,0.001000
1003.461538,-0.049451,0.001000,0.001000,0.001000,0.001000,0.001000
1003.480769,-0.049233,0.001000,0.001000,0.001000,0.001000,0.001000
1003.500000,-0.048980,0.001000,0.001000,0.001000,0.001000,0.001000
1003.519231,-0.048691,0.001000,0.001000,0.001000,0.001000,0.001000
1003.538462,-0.048366,0.001000,0.001000,0.001000,0.001000,0.001000
1003.557692,-0.048006,0.001000,0.001000,0.001000,0.001000,0.001000
1003.576923,-0.047611,0.001000,0.001000,0.001000,0.001000,0.001000
1003.596154,-0.047181,0.001000,0.001000,0.001000,0.001000,0.001000
1003.615385,-0.046717,0.001000,0.001000,0.001000,0.001000,0.001000
1003.634615,-0.046219,0.001000,0.001000,0.001000,0.001000,0.001000
1003.653846,-0.045687,0.001000,0.001000,0.001000,0.001000,0.001000
1003.673077,-0.045122,0.001000,0.001000,0.001000,0.001000,0.001000
1003.692308,-0.044524,0.001000,0.001000,0.001000,0.001000,0.001000
1003.711538,-0.043893,0.001000,0.001000,0.001000,0.001000,0.001000
1003.730769,-0.043231,0.001000,0.001000,0.001000,0.001000,0.001000
1003.750000,-0.042537,0.001000,0.001000,0.001000,0.001000,0.001000
1003.769231,-0.041812,0.001000,0.001000,0.001000,0.001000,0.001000
1003.788462,-0.041056,0.001000,0.001000,0.001000,0.001000,0.001000
1003.807692,-0.040270,0.001000,0.001000,0.001000,0.001000,0.001000
1003.826923,-0.039456,0.001000,0.001000,0.001000,0.001000,0.001000
1003.846154,-0.038612,0.001000,0.001000,0.001000,0.001000,0.001000
1003.865385,-0.037740,0.001000,0.001000,0.001000,0.001000,0.001000
1003.884615,-0.036841,0.001000,0.001000,0.001000,0.001000,0.001000
1003.903846,-0.035915,0.001000,0.001000,0.001000,0.001000,0.001000
1003.923077,-0.034962,0.001000,0.001000,0.001000,0.001000,0.001000
1003.942308,-0.033984,0.001000,0.001000,0.001000,0.001000,0.001000
1003.961538,-0.032982,0.001000,0.001000,0.001000,0.001000,0.001000
1003.980769,-0.031955,0.001000,0.001000,0.001000,0.001000,0.001000
1004.000000,-0.030905,0.001000,0.001000,0.001000,0.001000,0.001000
1004.019231,-0.029833,0.001000,0.001000,0.001000,0.001000,0.001000
1004.038462,-0.028738,0.001000,0.001000,0.001000,0.001000,0.001000
1004.057692,-0.027623,0.001000,0.001000,0.001000,0.001000,0.001000
1004.076923,-0.026488,0.001000,0.001000,0.001000,0.001000,0.001000
1004.096154,-0.025333,0.001000,0.001000,0.001000,0.001000,0.001000
1004.115385,-0.024160,0.001000,0.001000,0.001000,0.001000,0.001000
1004.134615,-0.022969,0.001000,0.001000,0.001000,0.001000,0.001000
1004.153846,-0.021761,0.001000,0.001000,0.001000,0.001000,0.001000
1004.173077,-0.020538,0.001000,0.001000,0.001000,0.001000,0.001000
1004.192308,-0.019300,0.001000,0.001000,0.001000,0.001000,0.001000
1004.211538,-0.018047,0.001000,0.001000,0.001000,0.001000,0.001000
1004.230769,-0.016782,0.001000,0.001000,0.001000,0.001000,0.001000
1004.250000,-0.015504,0.001000,0.001000,0.001000,0.001000,0.001000
1004.269231,-0.014215,0.001000,0.001000,0.001000,0.001000,0.001000
1004.288462,-0.012915,0.001000,0.001000,0.001000,0.001000,0.001000
1004.307692,-0.011606,0.001000,0.001000,0.001000,0.001000,0.001000
1004.326923,-0.010289,0.001000,0.001000,0.001000,0.001000,0.001000
1004.346154,-0.008964,0.001000,0.001000,0.001000,0.001000,0.001000
1004.365385,-0.007632,0.001000,0.001000,0.001000,0.001000,0.001000
1004.384615,-0.006295,0.001000,0.001000,0.001000,0.001000,0.001000
1004.403846,-0.004954,0.001000,0.001000,0.001000,0.001000,0.001000
1004.423077,-0.003609,0.001000,0.001000,0.001000,0.001000,0.001000
1004.442308,-0.002261,0.001000,0.001000,0.001000,0.001000,0.001000
1004.461538,-0.000911,0.001000,0.001000,0.001000,0.001000,0.001000
1004.480769,0.000439,0.001000,0.001000,0.001000,0.001000,0.001000
1004.500000,0.001789,0.001000,0.001000,0.001000,0.001000,0.001000
1004.519231,0.003137,0.001000,0.001000,0.001000,0.001000,0.001000
1004.538462,0.004483,0.001000,0.001000,0.001000,0.001000,0.001000
1004.557692,0.005826,0.001000,0.001000,0.001000,0.001000,0.001000
1004.576923,0.007165,0.001000,0.001000,0.001000,0.001000,0.001000
1004.596154,0.008499,0.001000,0.001000,0.001000,0.001000,0.001000
1004.615385,0.009826,0.001000,0.001000,0.001000,0.001000,0.001000
1004.634615,0.011146,0.001000,0.001000,0.001000,0.001000,0.001000
1004.653846,0.012458,0.001000,0.001000,0.001000,0.001000,0.001000
1004.673077,0.013761,0.001000,0.001000,0.001000,0.001000,0.001000
1004.692308,0.015054,0.001000,0.001000,0.001000,0.001000,0.001000
1004.711538,0.016336,0.001000,0.001000,0.001000,0.001000,0.001000
1004.730769,0.017606,0.001000,0.001000,0.001000,0.001000,0.001000
1004.750000,0.018863,0.001000,0.001000,0.001000,0.001000,0.001000
1004.769231,0.020106,0.001000,0.001000,0.001000,0.001000,0.001000
1004.788462,0.021335,0.001000,0.001000,0.001000,0.001000,0.001000
1004.807692,0.022548,0.001000,0.001000,0.001000,0.001000,0.001000
1004.826923,0.023745,0.001000,0.001000,0.001000,0.001000,0.001000
1004.846154,0.024925,0.001000,0.001000,0.001000,0.001000,0.001000
1004.865385,0.026086,0.001000,0.001000,0.001000,0.001000,0.001000
1004.884615,0.027228,0.001000,0.001000,0.001000,0.001000,0.001000
1004.903846,0.028350,0.001000,0.001000,0.001000,0.001000,0.001000
1004.923077,0.029452,0.001000,0.001000,0.001000,0.001000,0.001000
1004.942308,0.030532,0.001000,0.001000,0.001000,0.001000,0.001000
1004.961538,0.031590,0.001000,0.001000,0.001000,0.001000,0.001000
1004.980769,0.032625,0.001000,0.001000,0.001000,0.001000,0.001000
1005.000000,0.033636,0.001000,0.001000,0.001000,0.001000,0.001000
1005.019231,0.034623,0.001000,0.001000,0.001000,0.001000,0.001000
1005.038462,0.035584,0.001000,0.001000,0.001000,0.001000,0.001000
1005.057692,0.036520,0.001000,0.001000,0.001000,0.001000,0.001000
1005.076923,0.037429,0.001000,0.001000,0.001000,0.001000,0.001000
1005.096154,0.038310,0.001000,0.001000,0.001000,0.001000,0.001000
1005.115385,0.039164,0.001000,0.001000,0.001000,0.001000,0.001000
1005.134615,0.039989,0.001000,0.001000,0.001000,0.001000,0.001000
1005.153846,0.040785,0.001000,0.001000,0.001000,0.001000,0.001000
1005.173077,0.041551,0.001000,0.001000,0.001000,0.001000,0.001000
1005.192308,0.042286,0.001000,0.001000,0.001000,0.001000,0.001000
1005.211538,0.042991,0.001000,0.001000,0.001000,0.001000,0.001000
1005.230769,0.043665,0.001000,0.001000,0.001000,0.001000,0.001000
1005.250000,0.044307,0.001000,0.001000,0.001000,0.001000,0.001000
1005.269231,0.044916,0.001000,0.001000,0.001000,0.001000,0.001000
1005.288462,0.045493,0.001000,0.001000,0.001000,0.001000,0.001000
1005.307692,0.046037,0.001000,0.001000,0.001000,0.001000,0.001000
1005.326923,0.046547,0.001000,0.001000,0.001000,0.001000,0.001000
1005.346154,0.047023,0.001000,0.001000,0.001000,0.001000,0.001000
1005.365385,0.047464,0.001000,0.001000,0.001000,0.001000,0.001000
1005.384615,0.047872,0.001000,0.001000,0.001000,0.001000,0.001000
1005.403846,0.048244,0.001000,0.001000,0.001000,0.001000,0.001000
1005.423077,0.048581,0.001000,0.001000,0.001000,0.001000,0.001000
1005.442308,0.048883,0.001000,0.001000,0.001000,0.001000,0.001000
1005.461538,0.049149,0.001000,0.001000,0.001000,0.001000,0.001000
1005.480769,0.049379,0.001000,0.001000,0.001000,0.001000,0.001000
1005.500000,0.049573,0.001000,0.001000,0.001000,0.001000,0.001000
1005.519231,0.049731,0.001000,0.001000,0.001000,0.001000,0.001000
1005.538462,0.049853,0.001000,0.001000,0.001000,0.001000,0.001000
1005.557692,0.049938,0.001000,0.001000,0.001000,0.001000,0.001000
1005.576923,0.049987,0.001000,0.001000,0.001000,0.001000,0.001000
1005.596154,0.050000,0.001000,0.001000,0.001000,0.001000,0.001000
1005.615385,0.049976,0.001000,0.001000,0.001000,0.001000,0.001000
1005.634615,0.049915,0.001000,0.001000,0.001000,0.001000,0.001000
1005.653846,0.049818,0.001000,0.001000,0.001000,0.001000,0.001000
1005.673077,0.049685,0.001000,0.001000,0.001000,0.001000,0.001000
1005.692308,0.049516,0.001000,0.001000,0.001000,0.001000,0.001000
1005.711538,0.049311,0.001000,0.001000,0.001000,0.001000,0.001000
1005.730769,0.049069,0.001000,0.001000,0.001000,0.001000,0.001000
1005.750000,0.048792,0.001000,0.001000,0.001000,0.001000,0.001000
1005.769231,0.048479,0.001000,0.001000,0.001000,0.001000,0.001000
1005.788462,0.048131,0.001000,0.001000,0.001000,0.001000,0.001000
1005.807692,0.047748,0.001000,0.001000,0.001000,0.001000,0.001000
1005.826923,0.047330,0.001000,0.001000,0.001000,0.001000,0.001000
1005.846154,0.046878,0.001000,0.001000,0.001000,0.001000,0.001000
1005.865385,0.046391,0.001000,0.001000,0.001000,0.001000,0.001000
1005.884615,0.045870,0.001000,0.001000,0.001000,0.001000,0.001000
1005.903846,0.045316,0.001000,0.001000,0.001000,0.001000,0.001000
1005.923077,0.044729,0.001000,0.001000,0.001000,0.001000,0.001000
1005.942308,0.044110,0.001000,0.001000,0.001000,0.001000,0.001000
1005.961538,0.043458,0.001000,0.001000,0.001000,0.001000,0.001000
1005.980769,0.042774,0.001000,0.001000,0.001000,0.001000,0.001000
1006.000000,0.042060,0.001000,0.001000,0.001000,0.001000,0.001000
1006.019231,0.041314,0.001000,0.001000,0.001000,0.001000,0.001000
1006.038462,0.040539,0.001000,0.001000,0.001000,0.001000,0.001000
1006.057692,0.039734,0.001000,0.001000,0.001000,0.001000,0.001000
1006.076923,0.038900,0.001000,0.001000,0.001000,0.001000,0.001000
1006.096154,0.038037,0.001000,0.001000,0.001000,0.001000,0.001000
1006.115385,0.037147,0.001000,0.001000,0.001000,0.001000,0.001000
1006.134615,0.036230,0.001000,0.001000,0.001000,0.001000,0.001000
1006.153846,0.035287,0.001000,0.001000,0.001000,0.001000,0.001000
1006.173077,0.034317,0.001000,0.001000,0.001000,0.001000,0.001000
1006.192308,0.033323,0.001000,0.001000,0.001000,0.001000,0.001000
1006.211538,0.032304,0.001000,0.001000,0.001000,0.001000,0.001000
1006.230769,0.031262,0.001000,0.001000,0.001000,0.001000,0.001000
1006.250000,0.030197,0.001000,0.001000,0.001000,0.001000,0.001000
1006.269231,0.029110,0.001000,0.001000,0.001000,0.001000,0.001000
1006.288462,0.028002,0.001000,0.001000,0.001000,0.001000,0.001000
1006.307692,0.026873,0.001000,0.001000,0.001000,0.001000,0.001000
1006.326923,0.025725,0.001000,0.001000,0.001000,0.001000,0.001000
1006.346154,0.024558,0.001000,0.001000,0.001000,0.001000,0.001000
1006.365385,0.023373,0.001000,0.001000,0.001000,0.001000,0.001000
1006.384615,0.022171,0.001000,0.001000,0.001000,0.001000,0.001000
1006.403846,0.020953,0.001000,0.001000,0.001000,0.001000,0.001000
1006.423077,0.019719,0.001000,0.001000,0.001000,0.001000,0.001000
1006.442308,0.018471,0.001000,0.001000,0.001000,0.001000,0.001000
1006.461538,0.017210,0.001000,0.001000,0.001000,0.001000,0.001000
1006.480769,0.015936,0.001000,0.001000,0.001000,0.001000,0.001000
1006.500000,0.014651,0.001000,0.001000,0.001000,0.001000,0.001000
1006.519231,0.013355,0.001000,0.001000,0.001000,0.001000,0.001000
1006.538462,0.012049,0.001000,0.001000,0.001000,0.001000,0.001000
1006.557692,0.010734,0.001000,0.001000,0.001000,0.001000,0.001000
1006.576923,0.009412,0.001000,0.001000,0.001000,0.001000,0.001000
1006.596154,0.008082,0.001000,0.001000,0.001000,0.001000,0.001000
1006.615385,0.006747,0.001000,0.001000,0.001000,0.001000,0.001000
1006.634615,0.005407,0.001000,0.001000,0.001000,0.001000,0.001000
1006.653846,0.004063,0.001000,0.001000,0.001000,0.001000,0.001000
1006.673077,0.002716,0.001000,0.001000,0.001000,0.001000,0.001000
1006.692308,0.001367,0.001000,0.001000,0.001000,0.001000,0.001000
1006.711538,0.000017,0.001000,0.001000,0.001000,0.001000,0.001000
1006.730769,-0.001333,0.001000,0.001000,0.001000,0.001000,0.001000
1006.750000,-0.002682,0.001000,0.001000,0.001000,0.001000,0.001000
1006.769231,-0.004030,0.001000,0.001000,0.001000,0.001000,0.001000
1006.788462,-0.005374,0.001000,0.001000,0.001000,0.001000,0.001000
1006.807692,-0.006714,0.001000,0.001000,0.001000,0.001000,0.001000
1006.826923,-0.008049,0.001000,0.001000,0.001000,0.001000,0.001000
1006.846154,-0.009379,0.001000,0.001000,0.001000,0.001000,0.001000
1006.865385,-0.010701,0.001000,0.001000,0.001000,0.001000,0.001000
1006.884615,-0.012016,0.001000,0.001000,0.001000,0.001000,0.001000
1006.903846,-0.013322,0.001000,0.001000,0.001000,0.001000,0.001000
1006.923077,-0.014619,0.001000,0.001000,0.001000,0.001000,0.001000
1006.942308,-0.015905,0.001000,0.001000,0.001000,0.001000,0.001000
1006.961538,-0.017179,0.001000,0.001000,0.001000,0.001000,0.001000
1006.980769,-0.018440,0.001000,0.001000,0.001000,0.001000,0.001000
1007.000000,-0.019688,0.001000,0.001000,0.001000,0.001000,0.001000
1007.019231,-0.020922,0.001000,0.001000,0.001000,0.001000,0.001000
1007.038462,-0.022141,0.001000,0.001000,0.001000,0.001000,0.001000
1007.057692,-0.023343,0.001000,0.001000,0.001000,0.001000,0.001000
1007.076923,-0.024528,0.001000,0.001000,0.001000,0.001000,0.001000
1007.096154,-0.025696,0.001000,0.001000,0.001000,0.001000,0.001000
1007.115385,-0.026845,0.001000,0.001000,0.001000,0.001000,0.001000
1007.134615,-0.027974,0.001000,0.001000,0.001000,0.001000,0.001000
1007.153846,-0.029083,0.001000,0.001000,0.001000,0.001000,0.001000
1007.173077,-0.030170,0.001000,0.001000,0.001000,0.001000,0.001000
1007.192308,-0.031236,0.001000,0.001000,0.001000,0.001000,0.001000
1007.211538,-0.032279,0.001000,0.001000,0.001000,0.001000,0.001000
1007.230769,-0.033298,0.001000,0.001000,0.001000,0.001000,0.001000
1007.250000,-0.034293,0.001000,0.001000,0.001000,0.001000,0.001000
1007.269231,-0.035263,0.001000,0.001000,0.001000,0.001000,0.001000
1007.288462,-0.036207,0.001000,0.001000,0.001000,0.001000,0.001000
1007.307692,-0.037125,0.001000,0.001000,0.001000,0.001000,0.001000
1007.326923,-0.038016,0.001000,0.001000,0.001000,0.001000,0.001000
1007.346154,-0.038879,0.001000,0.001000,0.001000,0.001000,0.001000
1007.365385,-0.039714,0.001000,0.001000,0.001000,0.001000,0.001000
1007.384615,-0.040519,0.001000,0.001000,0.001000,0.001000,0.001000
1007.403846,-0.041295,0.001000,0.001000,0.001000,0.001000,0.001000
1007.423077,-0.042042,0.001000,0.001000,0.001000,0.001000,0.001000
1007.442308,-0.042757,0.001000,0.001000,0.001000,0.001000,0.001000
1007.461538,-0.043441,0.001000,0.001000,0.001000,0.001000,0.001000
1007.480769,-0.044094,0.001000,0.001000,0.001000,0.001000,0.001000
1007.500000,-0.044714,0.001000,0.001000,0.001000,0.001000,0.001000
1007.519231,-0.045302,0.001000,0.001000,0.001000,0.001000,0.001000
1007.538462,-0.045857,0.001000,0.001000,0.001000,0.001000,0.001000
1007.557692,-0.046378,0.001000,0.001000,0.001000,0.001000,0.001000
1007.576923,-0.046866,0.001000,0.001000,0.001000,0.001000,0.001000
1007.596154,-0.047319,0.001000,0.001000,0.001000,0.001000,0.001000
1007.615385,-0.047738,0.001000,0.001000,0.001000,0.001000,0.001000
1007.634615,-0.048122,0.001000,0.001000,0.001000,0.001000,0.001000
1007.653846,-0.048471,0.001000,0.001000,0.001000,0.001000,0.001000
1007.673077,-0.048785,0.001000,0.001000,0.001000,0.001000,0.001000
1007.692308,-0.049063,0.001000,0.001000,0.001000,0.001000,0.001000
1007.711538,-0.049305,0.001000,0.001000,0.001000,0.001000,0.001000
1007.730769,-0.049511,0.001000,0.001000,0.001000,0.001000,0.001000
1007.750000,-0.049682,0.001000,0.001000,0.001000,0.001000,0.001000
1007.769231,-0.049816,0.001000,0.001000,0.001000,0.001000,0.001000
1007.788462,-0.049913,0.001000,0.001000,0.001000,0.001000,0.001000
1007.807692,-0.049975,0.001000,0.001000,0.001000,0.001000,0.001000
1007.826923,-0.049999,0.001000,0.001000,0.001000,0.001000,0.001000
1007.846154,-0.049988,0.001000,0.001000,0.001000,0.001000,0.001000
1007.865385,-0.049940,0.001000,0.001000,0.001000,0.001000,0.001000
1007.884615,-0.049855,0.001000,0.001000,0.001000,0.001000,0.001000
1007.903846,-0.049734,0.001000,0.001000,0.001000,0.001000,0.001000
1007.923077,-0.049577,0.001000,0.001000,0.001000,0.001000,0.001000
1007.942308,-0.049384,0.001000,0.001000,0.001000,0.001000,0.001000
1007.961538,-0.049155,0.001000,0.001000,0.001000,0.001000,0.001000
1007.980769,-0.048890,0.001000,0.001000,0.001000,0.001000,0.001000
1008.000000,-0.048589,0.001000,0.001000,0.001000,0.001000,0.001000
1008.019231,-0.048253,0.001000,0.001000,0.001000,0.001000,0.001000
1008.038462,-0.047881,0.001000,0.001000,0.001000,0.001000,0.001000
1008.057692,-0.047475,0.001000,0.001000,0.001000,0.001000,0.001000
1008.076923,-0.047034,0.001000,0.001000,0.001000,0.001000,0.001000
1008.096154,-0.046559,0.001000,0.001000,0.001000,0.001000,0.001000
1008.115385,-0.046050,0.001000,0.001000,0.001000,0.001000,0.001000
1008.134615,-0.045507,0.001000,0.001000,0.001000,0.001000,0.001000
1008.153846,-0.044931,0.001000,0.001000,0.001000,0.001000,0.001000
1008.173077,-0.044322,0.001000,0.001000,0.001000,0.001000,0.001000
1008.192308,-0.043681,0.001000,0.001000,0.001000,0.001000,0.001000
1008.211538,-0.043009,0.001000,0.001000,0.001000,0.001000,0.001000
1008.230769,-0.042304,0.001000,0.001000,0.001000,0.001000,0.001000
1008.250000,-0.041569,0.001000,0.001000,0.001000,0.001000,0.001000
1008.269231,-0.040804,0.001000,0.001000,0.001000,0.001000,0.001000
1008.288462,-0.040009,0.001000,0.001000,0.001000,0.001000,0.001000
1008.307692,-0.039184,0.001000,0.001000,0.001000,0.001000,0.001000
1008.326923,-0.038332,0.001000,0.001000,0.001000,0.001000,0.001000
1008.346154,-0.037451,0.001000,0.001000,0.001000,0.001000,0.001000
1008.365385,-0.036543,0.001000,0.001000,0.001000,0.001000,0.001000
1008.384615,-0.035608,0.001000,0.001000,0.001000,0.001000,0.001000
1008.403846,-0.034647,0.001000,0.001000,0.001000,0.001000,0.001000
1008.423077,-0.033661,0.001000,0.001000,0.001000,0.001000,0.001000
1008.442308,-0.032651,0.001000,0.001000,0.001000,0.001000,0.001000
1008.461538,-0.031616,0.001000,0.001000,0.001000,0.001000,0.001000
1008.480769,-0.030559,0.001000,0.001000,0.001000,0.001000,0.001000
1008.500000,-0.029479,0.001000,0.001000,0.001000,0.001000,0.001000
1008.519231,-0.028378,0.001000,0.001000,0.001000,0.001000,0.001000
1008.538462,-0.027256,0.001000,0.001000,0.001000,0.001000,0.001000
1008.557692,-0.026114,0.001000,0.001000,0.001000,0.001000,0.001000
1008.576923,-0.024954,0.001000,0.001000,0.001000,0.001000,0.001000
1008.596154,-0.023775,0.001000,0.001000,0.001000,0.001000,0.001000
1008.615385,-0.022578,0.001000,0.001000,0.001000,0.001000,0.001000
1008.634615,-0.021365,0.001000,0.001000,0.001000,0.001000,0.001000
1008.653846,-0.020137,0.001000,0.001000,0.001000,0.001000,0.001000
1008.673077,-0.018894,0.001000,0.001000,0.001000,0.001000,0.001000
1008.692308,-0.017637,0.001000,0.001000,0.001000,0.001000,0.001000
1008.711538,-0.016367,0.001000,0.001000,0.001000,0.001000,0.001000
1008.730769,-0.015086,0.001000,0.001000,0.001000,0.001000,0.001000
1008.750000,-0.013793,0.001000,0.001000,0.001000,0.001000,0.001000
1008.769231,-0.012491,0.001000,0.001000,0.001000,0.001000,0.001000
1008.788462,-0.011179,0.001000,0.001000,0.001000,0.001000,0.001000
1008.807692,-0.009859,0.001000,0.001000,0.001000,0.001000,0.001000
1008.826923,-0.008532,0.001000,0.001000,0.001000,0.001000,0.001000
1008.846154,-0.007198,0.001000,0.001000,0.001000,0.001000,0.001000
1008.865385,-0.005860,0.001000,0.001000,0.001000,0.001000,0.001000
1008.884615,-0.004517,0.001000,0.001000,0.001000,0.001000,0.001000
1008.903846,-0.003171,0.001000,0.001000,0.001000,0.001000,0.001000
1008.923077,-0.001822,0.001000,0.001000,0.001000,0.001000,0.001000
1008.942308,-0.000472,0.001000,0.001000,0.001000,0.001000,0.001000
1008.961538,0.000878,0.001000,0.001000,0.001000,0.001000,0.001000
1008.980769,0.002227,0.001000,0.001000,0.001000,0.001000,0.001000
1009.000000,0.003575,0.001000,0.001000,0.001000,0.001000,0.001000
1009.019231,0.004920,0.001000,0.001000,0.001000,0.001000,0.001000
1009.038462,0.006262,0.001000,0.001000,0.001000,0.001000,0.001000
1009.057692,0.007599,0.001000,0.001000,0.001000,0.001000,0.001000
1009.076923,0.008931,0.001000,0.001000,0.001000,0.001000,0.001000
1009.096154,0.010256,0.001000,0.001000,0.001000,0.001000,0.001000
1009.115385,0.011574,0.001000,0.001000,0.001000,0.001000,0.001000
1009.134615,0.012883,0.001000,0.001000,0.001000,0.001000,0.001000
1009.153846,0.014182,0.001000,0.001000,0.001000,0.001000,0.001000
1009.173077,0.015472,0.001000,0.001000,0.001000,0.001000,0.001000
1009.192308,0.016750,0.001000,0.001000,0.001000,0.001000,0.001000
1009.211538,0.018016,0.001000,0.001000,0.001000,0.001000,0.001000
1009.230769,0.019269,0.001000,0.001000,0.001000,0.001000,0.001000
1009.250000,0.020507,0.001000,0.001000,0.001000,0.001000,0.001000
1009.269231,0.021731,0.001000,0.001000,0.001000,0.001000,0.001000
1009.288462,0.022939,0.001000,0.001000,0.001000,0.001000,0.001000
1009.307692,0.024130,0.001000,0.001000,0.001000,0.001000,0.001000
1009.326923,0.025304,0.001000,0.001000,0.001000,0.001000,0.001000
1009.346154,0.026459,0.001000,0.001000,0.001000,0.001000,0.001000
1009.365385,0.027595,0.001000,0.001000,0.001000,0.001000,0.001000
1009.384615,0.028711,0.001000,0.001000,0.001000,0.001000,0.001000
1009.403846,0.029806,0.001000,0.001000,0.001000,0.001000,0.001000
1009.423077,0.030879,0.001000,0.001000,0.001000,0.001000,0.001000
1009.442308,0.031929,0.001000,0.001000,0.001000,0.001000,0.001000
1009.461538,0.032957,0.001000,0.001000,0.001000,0.001000,0.001000
1009.480769,0.033960,0.001000,0.001000,0.001000,0.001000,0.001000
1009.500000,0.034938,0.001000,0.001000,0.001000,0.001000,0.001000
1009.519231,0.035891,0.001000,0.001000,0.001000,0.001000,0.001000
1009.538462,0.036818,0.001000,0.001000,0.001000,0.001000,0.001000
1009.557692,0.037718,0.001000,0.001000,0.001000,0.001000,0.001000
1009.576923,0.038591,0.001000,0.001000,0.001000,0.001000,0.001000
1009.596154,0.039435,0.001000,0.001000,0.001000,0.001000,0.001000
1009.615385,0.040251,0.001000,0.001000,0.001000,0.001000,0.001000
1009.634615,0.041037,0.001000,0.001000,0.001000,0.001000,0.001000
1009.653846,0.041793,0.001000,0.001000,0.001000,0.001000,0.001000
1009.673077,0.042519,0.001000,0.001000,0.001000,0.001000,0.001000
1009.692308,0.043214,0.001000,0.001000,0.001000,0.001000,0.001000
1009.711538,0.043877,0.001000,0.001000,0.001000,0.001000,0.001000
1009.730769,0.044509,0.001000,0.001000,0.001000,0.001000,0.001000
1009.750000,0.045107,0.001000,0.001000,0.001000,0.001000,0.001000
1009.769231,0.045673,0.001000,0.001000,0.001000,0.001000,0.001000
1009.788462,0.046206,0.001000,0.001000,0.001000,0.001000,0.001000
1009.807692,0.046705,0.001000,0.001000,0.001000,0.001000,0.001000
1009.826923,0.047170,0.001000,0.001000,0.001000,0.001000,0.001000
1009.846154,0.047601,0.001000,0.001000,0.001000,0.001000,0.001000
1009.865385,0.047996,0.001000,0.001000,0.001000,0.001000,0.001000
1009.884615,0.048357,0.001000,0.001000,0.001000,0.001000,0.001000
1009.903846,0.048683,0.001000,0.001000,0.001000,0.001000,0.001000
1009.923077,0.048973,0.001000,0.001000,0.001000,0.001000,0.001000
1009.942308,0.049227,0.001000,0.001000,0.001000,0.001000,0.001000
1009.961538,0.049446,0.001000,0.001000,0.001000,0.001000,0.001000
1009.980769,0.049628,0.001000,0.001000,0.001000,0.001000,0.001000
1010.000000,0.049774,0.001000,0.001000,0.001000,0.001000,0.001000
1010.019231,0.049884,0.001000,0.001000,0.001000,0.001000,0.001000
1010.038462,0.049958,0.001000,0.001000,0.001000,0.001000,0.001000
1010.057692,0.049995,0.001000,0.001000,0.001000,0.001000,0.001000
1010.076923,0.049996,0.001000,0.001000,0.001000,0.001000,0.001000
1010.096154,0.049960,0.001000,0.001000,0.001000,0.001000,0.001000
1010.115385,0.049888,0.001000,0.001000,0.001000,0.001000,0.001000
1010.134615,0.049779,0.001000,0.001000,0.001000,0.001000,0.001000
1010.153846,0.049634,0.001000,0.001000,0.001000,0.001000,0.001000
1010.173077,0.049453,0.001000,0.001000,0.001000,0.001000,0.001000
1010.192308,0.049236,0.001000,0.001000,0.001000,0.001000,0.001000
1010.211538,0.048983,0.001000,0.001000,0.001000,0.001000,0.001000
1010.230769,0.048694,0.001000,0.001000,0.001000,0.001000,0.001000
1010.250000,0.048370,0.001000,0.001000,0.001000,0.001000,0.001000
1010.269231,0.048011,0.001000,0.001000,0.001000,0.001000,0.001000
1010.288462,0.047616,0.001000,0.001000,0.001000,0.001000,0.001000
1010.307692,0.047187,0.001000,0.001000,0.001000,0.001000,0.001000
1010.326923,0.046723,0.001000,0.001000,0.001000,0.001000,0.001000
1010.346154,0.046225,0.001000,0.001000,0.001000,0.001000,0.001000
1010.365385,0.045694,0.001000,0.001000,0.001000,0.001000,0.001000
1010.384615,0.045129,0.001000,0.001000,0.001000,0.001000,0.001000
1010.403846,0.044531,0.001000,0.001000,0.001000,0.001000,0.001000
1010.423077,0.043901,0.001000,0.001000,0.001000,0.001000,0.001000
1010.442308,0.043239,0.001000,0.001000,0.001000,0.001000,0.001000
1010.461538,0.042545,0.001000,0.001000,0.001000,0.001000,0.001000
1010.480769,0.041821,0.001000,0.001000,0.001000,0.001000,0.001000
1010.500000,0.041066,0.001000,0.001000,0.001000,0.001000,0.001000
1010.519231,0.040280,0.001000,0.001000,0.001000,0.001000,0.001000
1010.538462,0.039466,0.001000,0.001000,0.001000,0.001000,0.001000
1010.557692,0.038623,0.001000,0.001000,0.001000,0.001000,0.001000
1010.576923,0.037751,0.001000,0.001000,0.001000,0.001000,0.001000
1010.596154,0.036852,0.001000,0.001000,0.001000,0.001000,0.001000
1010.615385,0.035926,0.001000,0.001000,0.001000,0.001000,0.001000
1010.634615,0.034974,0.001000,0.001000,0.001000,0.001000,0.001000
1010.653846,0.033997,0.001000,0.001000,0.001000,0.001000,0.001000
1010.673077,0.032994,0.001000,0.001000,0.001000,0.001000,0.001000
1010.692308,0.031968,0.001000,0.001000,0.001000,0.001000,0.001000
1010.711538,0.030918,0.001000,0.001000,0.001000,0.001000,0.001000
1010.730769,0.029846,0.001000,0.001000,0.001000,0.001000,0.001000
1010.750000,0.028752,0.001000,0.001000,0.001000,0.001000,0.001000
1010.769231,0.027637,0.001000,0.001000,0.001000,0.001000,0.001000
1010.788462,0.026502,0.001000,0.001000,0.001000,0.001000,0.001000
1010.807692,0.025347,0.001000,0.001000,0.001000,0.001000,0.001000
1010.826923,0.024174,0.001000,0.001000,0.001000,0.001000,0.001000
1010.846154,0.022984,0.001000,0.001000,0.001000,0.001000,0.001000
1010.865385,0.021777,0.001000,0.001000,0.001000,0.001000,0.001000
1010.884615,0.020553,0.001000,0.001000,0.001000,0.001000,0.001000
1010.903846,0.019315,0.001000,0.001000,0.001000,0.001000,0.001000
1010.923077,0.018063,0.001000,0.001000,0.001000,0.001000,0.001000
1010.942308,0.016797,0.001000,0.001000,0.001000,0.001000,0.001000
1010.961538,0.015520,0.001000,0.001000,0.001000,0.001000,0.001000
1010.980769,0.014231,0.001000,0.001000,0.001000,0.001000,0.001000
1011.000000,0.012931,0.001000,0.001000,0.001000,0.001000,0.001000
1011.019231,0.011622,0.001000,0.001000,0.001000,0.001000,0.001000
1011.038462,0.010305,0.001000,0.001000,0.001000,0.001000,0.001000
1011.057692,0.008980,0.001000,0.001000,0.001000,0.001000,0.001000
1011.076923,0.007649,0.001000,0.001000,0.001000,0.001000,0.001000
1011.096154,0.006312,0.001000,0.001000,0.001000,0.001000,0.001000
1011.115385,0.004970,0.001000,0.001000,0.001000,0.001000,0.001000
1011.134615,0.003625,0.001000,0.001000,0.001000,0.001000,0.001000
1011.153846,0.002277,0.001000,0.001000,0.001000,0.001000,0.001000
1011.173077,0.000928,0.001000,0.001000,0.001000,0.001000,0.001000
1011.192308,-0.000422,0.001000,0.001000,0.001000,0.001000,0.001000
1011.211538,-0.001772,0.001000,0.001000,0.001000,0.001000,0.001000
1011.230769,-0.003121,0.001000,0.001000,0.001000,0.001000,0.001000
1011.250000,-0.004467,0.001000,0.001000,0.001000,0.001000,0.001000
1011.269231,-0.005810,0.001000,0.001000,0.001000,0.001000,0.001000
1011.288462,-0.007149,0.001000,0.001000,0.001000,0.001000,0.001000
1011.307692,-0.008482,0.001000,0.001000,0.001000,0.001000,0.001000
1011.326923,-0.009810,0.001000,0.001000,0.001000,0.001000,0.001000
1011.346154,-0.011130,0.001000,0.001000,0.001000,0.001000,0.001000
1011.365385,-0.012442,0.001000,0.001000,0.001000,0.001000,0.001000
1011.384615,-0.013745,0.001000,0.001000,0.001000,0.001000,0.001000
1011.403846,-0.015038,0.001000,0.001000,0.001000,0.001000,0.001000
1011.423077,-0.016320,0.001000,0.001000,0.001000,0.001000,0.001000
1011.442308,-0.017590,0.001000,0.001000,0.001000,0.001000,0.001000
1011.461538,-0.018848,0.001000,0.001000,0.001000,0.001000,0.001000
1011.480769,-0.020091,0.001000,0.001000,0.001000,0.001000,0.001000
1011.500000,-0.021320,0.001000,0.001000,0.001000,0.001000,0.001000
1011.519231,-0.022533,0.001000,0.001000,0.001000,0.001000,0.001000
1011.538462,-0.023730,0.001000,0.001000,0.001000,0.001000,0.001000
1011.557692,-0.024910,0.001000,0.001000,0.001000,0.001000,0.001000
1011.576923,-0.026072,0.001000,0.001000,0.001000,0.001000,0.001000
1011.596154,-0.027214,0.001000,0.001000,0.001000,0.001000,0.001000
1011.615385,-0.028337,0.001000,0.001000,0.001000,0.001000,0.001000
1011.634615,-0.029439,0.001000,0.001000,0.001000,0.001000,0.001000
1011.653846,-0.030519,0.001000,0.001000,0.001000,0.001000,0.001000
1011.673077,-0.031577,0.001000,0.001000,0.001000,0.001000,0.001000
1011.692308,-0.032613,0.001000,0.001000,0.001000,0.001000,0.001000
1011.711538,-0.033624,0.001000,0.001000,0.001000,0.001000,0.001000
1011.730769,-0.034611,0.001000,0.001000,0.001000,0.001000,0.001000
1011.750000,-0.035573,0.001000,0.001000,0.001000,0.001000,0.001000
1011.769231,-0.036508,0.001000,0.001000,0.001000,0.001000,0.001000
1011.788462,-0.037418,0.001000,0.001000,0.001000,0.001000,0.001000
1011.807692,-0.038299,0.001000,0.001000,0.001000,0.001000,0.001000
1011.826923,-0.039153,0.001000,0.001000,0.001000,0.001000,0.001000
1011.846154,-0.039979,0.001000,0.001000,0.001000,0.001000,0.001000
1011.865385,-0.040775,0.001000,0.001000,0.001000,0.001000,0.001000
1011.884615,-0.041541,0.001000,0.001000,0.001000,0.001000,0.001000
1011.903846,-0.042278,0.001000,0.001000,0.001000,0.001000,0.001000
1011.923077,-0.042983,0.001000,0.001000,0.001000,0.001000,0.001000
1011.942308,-0.043657,0.001000,0.001000,0.001000,0.001000,0.001000
1011.961538,-0.044299,0.001000,0.001000,0.001000,0.001000,0.001000
1011.980769,-0.044909,0.001000,0.001000,0.001000,0.001000,0.001000
1012.000000,-0.045486,0.001000,0.001000,0.001000,0.001000,0.001000
1012.019231,-0.046030,0.001000,0.001000,0.001000,0.001000,0.001000
1012.038462,-0.046541,0.001000,0.001000,0.001000,0.001000,0.001000
1012.057692,-0.047017,0.001000,0.001000,0.001000,0.001000,0.001000
1012.076923,-0.047459,0.001000,0.001000,0.001000,0.001000,0.001000
1012.096154,-0.047867,0.001000,0.001000,0.001000,0.001000,0.001000
1012.115385,-0.048239,0.001000,0.001000,0.001000,0.001000,0.001000
1012.134615,-0.048577,0.001000,0.001000,0.001000,0.001000,0.001000
1012.153846,-0.048879,0.001000,0.001000,0.001000,0.001000,0.001000
1012.173077,-0.049146,0.001000,0.001000,0.001000,0.001000,0.001000
1012.192308,-0.049376,0.001000,0.001000,0.001000,0.001000,0.001000
1012.211538,-0.049571,0.001000,0.001000,0.001000,0.001000,0.001000
1012.230769,-0.049729,0.001000,0.001000,0.001000,0.001000,0.001000
1012.250000,-0.049851,0.001000,0.001000,0.001000,0.001000,0.001000
1012.269231,-0.049937,0.001000,0.001000,0.001000,0.001000,0.001000
1012.288462,-0.049987,0.001000,0.001000,0.001000,0.001000,0.001000
1012.307692,-0.050000,0.001000,0.001000,0.001000,0.001000,0.001000
1012.326923,-0.049976,0.001000,0.001000,0.001000,0.001000,0.001000
1012.346154,-0.049916,0.001000,0.001000,0.001000,0.001000,0.001000
1012.365385,-0.049820,0.001000,0.001000,0.001000,0.001000,0.001000
1012.384615,-0.049687,0.001000,0.001000,0.001000,0.001000,0.001000
1012.403846,-0.049518,0.001000,0.001000,0.001000,0.001000,0.001000
1012.423077,-0.049313,0.001000,0.001000,0.001000,0.001000,0.001000
1012.442308,-0.049072,0.001000,0.001000,0.001000,0.001000,0.001000
1012.461538,-0.048796,0.001000,0.001000,0.001000,0.001000,0.001000
1012.480769,-0.048483,0.001000,0.001000,0.001000,0.001000,0.001000
1012.500000,-0.048136,0.001000,0.001000,0.001000,0.001000,0.001000
1012.519231,-0.047753,0.001000,0.001000,0.001000,0.001000,0.001000
1012.538462,-0.047335,0.001000,0.001000,0.001000,0.001000,0.001000
1012.557692,-0.046883,0.001000,0.001000,0.001000,0.001000,0.001000
1012.576923,-0.046397,0.001000,0.001000,0.001000,0.001000,0.001000
1012.596154,-0.045877,0.001000,0.001000,0.001000,0.001000,0.001000
1012.615385,-0.045323,0.001000,0.001000,0.001000,0.001000,0.001000
1012.634615,-0.044737,0.001000,0.001000,0.001000,0.001000,0.001000
1012.653846,-0.044118,0.001000,0.001000,0.001000,0.001000,0.001000
1012.673077,-0.043466,0.001000,0.001000,0.001000,0.001000,0.001000
1012.692308,-0.042783,0.001000,0.001000,0.001000,0.001000,0.001000
1012.711538,-0.042069,0.001000,0.001000,0.001000,0.001000,0.001000
1012.730769,-0.041324,0.001000,0.001000,0.001000,0.001000,0.001000
1012.750000,-0.040549,0.001000,0.001000,0.001000,0.001000,0.001000
1012.769231,-0.039744,0.001000,0.001000,0.001000,0.001000,0.001000
1012.788462,-0.038910,0.001000,0.001000,0.001000,0.001000,0.001000
1012.807692,-0.038048,0.001000,0.001000,0.001000,0.001000,0.001000
1012.826923,-0.037159,0.001000,0.001000,0.001000,0.001000,0.001000
1012.846154,-0.036242,0.001000,0.001000,0.001000,0.001000,0.001000
1012.865385,-0.035298,0.001000,0.001000,0.001000,0.001000,0.001000
1012.884615,-0.034329,0.001000,0.001000,0.001000,0.001000,0.001000
1012.903846,-0.033335,0.001000,0.001000,0.001000,0.001000,0.001000
1012.923077,-0.032317,0.001000,0.001000,0.001000,0.001000,0.001000
1012.942308,-0.031275,0.001000,0.001000,0.001000,0.001000,0.001000
1012.961538,-0.030210,0.001000,0.001000,0.001000,0.001000,0.001000
1012.980769,-0.029124,0.001000,0.001000,0.001000,0.001000,0.001000
1013.000000,-0.028016,0.001000,0.001000,0.001000,0.001000,0.001000
1013.019231,-0.026887,0.001000,0.001000,0.001000,0.001000,0.001000
1013.038462,-0.025739,0.001000,0.001000,0.001000,0.001000,0.001000
1013.057692,-0.024572,0.001000,0.001000,0.001000,0.001000,0.001000
1013.076923,-0.023388,0.001000,0.001000,0.001000,0.001000,0.001000
1013.096154,-0.022186,0.001000,0.001000,0.001000,0.001000,0.001000
1013.115385,-0.020968,0.001000,0.001000,0.001000,0.001000,0.001000
1013.134615,-0.019735,0.001000,0.001000,0.001000,0.001000,0.001000
1013.153846,-0.018487,0.001000,0.001000,0.001000,0.001000,0.001000
1013.173077,-0.017226,0.001000,0.001000,0.001000,0.001000,0.001000
1013.192308,-0.015952,0.001000,0.001000,0.001000,0.001000,0.001000
1013.211538,-0.014667,0.001000,0.001000,0.001000,0.001000,0.001000
1013.230769,-0.013371,0.001000,0.001000,0.001000,0.001000,0.001000
1013.250000,-0.012065,0.001000,0.001000,0.001000,0.001000,0.001000
1013.269231,-0.010751,0.001000,0.001000,0.001000,0.001000,0.001000
1013.288462,-0.009428,0.001000,0.001000,0.001000,0.001000,0.001000
1013.307692,-0.008099,0.001000,0.001000,0.001000,0.001000,0.001000
1013.326923,-0.006764,0.001000,0.001000,0.001000,0.001000,0.001000
1013.346154,-0.005424,0.001000,0.001000,0.001000,0.001000,0.001000
1013.365385,-0.004080,0.001000,0.001000,0.001000,0.001000,0.001000
1013.384615,-0.002733,0.001000,0.001000,0.001000,0.001000,0.001000
1013.403846,-0.001384,0.001000,0.001000,0.001000,0.001000,0.001000
1013.423077,-0.000033,0.001000,0.001000,0.001000,0.001000,0.001000
1013.442308,0.001317,0.001000,0.001000,0.001000,0.001000,0.001000
1013.461538,0.002666,0.001000,0.001000,0.001000,0.001000,0.001000
1013.480769,0.004013,0.001000,0.001000,0.001000,0.001000,0.001000
1013.500000,0.005357,0.001000,0.001000,0.001000,0.001000,0.001000
1013.519231,0.006697,0.001000,0.001000,0.001000,0.001000,0.001000
1013.538462,0.008033,0.001000,0.001000,0.001000,0.001000,0.001000
1013.557692,0.009362,0.001000,0.001000,0.001000,0.001000,0.001000
1013.576923,0.010685,0.001000,0.001000,0.001000,0.001000,0.001000
1013.596154,0.012000,0.001000,0.001000,0.001000,0.001000,0.001000
1013.615385,0.013306,0.001000,0.001000,0.001000,0.001000,0.001000
1013.634615,0.014603,0.001000,0.001000,0.001000,0.001000,0.001000
1013.653846,0.015889,0.001000,0.001000,0.001000,0.001000,0.001000
1013.673077,0.017163,0.001000,0.001000,0.001000,0.001000,0.001000
1013.692308,0.018425,0.001000,0.001000,0.001000,0.001000,0.001000
1013.711538,0.019673,0.001000,0.001000,0.001000,0.001000,0.001000
1013.730769,0.020907,0.001000,0.001000,0.001000,0.001000,0.001000
1013.750000,0.022126,0.001000,0.001000,0.001000,0.001000,0.001000
1013.769231,0.023328,0.001000,0.001000,0.001000,0.001000,0.001000
1013.788462,0.024514,0.001000,0.001000,0.001000,0.001000,0.001000
1013.807692,0.025682,0.001000,0.001000,0.001000,0.001000,0.001000
1013.826923,0.026831,0.001000,0.001000,0.001000,0.001000,0.001000
1013.846154,0.027960,0.001000,0.001000,0.001000,0.001000,0.001000
1013.865385,0.029069,0.001000,0.001000,0.001000,0.001000,0.001000
1013.884615,0.030157,0.001000,0.001000,0.001000,0.001000,0.001000
1013.903846,0.031223,0.001000,0.001000,0.001000,0.001000,0.001000
1013.923077,0.032266,0.001000,0.001000,0.001000,0.001000,0.001000
1013.942308,0.033285,0.001000,0.001000,0.001000,0.001000,0.001000
1013.961538,0.034281,0.001000,0.001000,0.001000,0.001000,0.001000
1013.980769,0.035251,0.001000,0.001000,0.001000,0.001000,0.001000
1014.000000,0.036196,0.001000,0.001000,0.001000,0.001000,0.001000
1014.019231,0.037114,0.001000,0.001000,0.001000,0.001000,0.001000
1014.038462,0.038005,0.001000,0.001000,0.001000,0.001000,0.001000
1014.057692,0.038868,0.001000,0.001000,0.001000,0.001000,0.001000
1014.076923,0.039703,0.001000,0.001000,0.001000,0.001000,0.001000
1014.096154,0.040509,0.001000,0.001000,0.001000,0.001000,0.001000
1014.115385,0.041286,0.001000,0.001000,0.001000,0.001000,0.001000
1014.134615,0.042033,0.001000,0.001000,0.001000,0.001000,0.001000
1014.153846,0.042748,0.001000,0.001000,0.001000,0.001000,0.001000
1014.173077,0.043433,0.001000,0.001000,0.001000,0.001000,0.001000
1014.192308,0.044086,0.001000,0.001000,0.001000,0.001000,0.001000
1014.211538,0.044707,0.001000,0.001000,0.001000,0.001000,0.001000
1014.230769,0.045295,0.001000,0.001000,0.001000,0.001000,0.001000
1014.250000,0.045850,0.001000,0.001000,0.001000,0.001000,0.001000
1014.269231,0.046372,0.001000,0.001000,0.001000,0.001000,0.001000
1014.288462,0.046860,0.001000,0.001000,0.001000,0.001000,0.001000
1014.307692,0.047314,0.001000,0.001000,0.001000,0.001000,0.001000
1014.326923,0.047733,0.001000,0.001000,0.001000,0.001000,0.001000
1014.346154,0.048118,0.001000,0.001000,0.001000,0.001000,0.001000
1014.365385,0.048467,0.001000,0.001000,0.001000,0.001000,0.001000
1014.384615,0.048781,0.001000,0.001000,0.001000,0.001000,0.001000
1014.403846,0.049060,0.001000,0.001000,0.001000,0.001000,0.001000
1014.423077,0.049302,0.001000,0.001000,0.001000,0.001000,0.001000
1014.442308,0.049509,0.001000,0.001000,0.001000,0.001000,0.001000
1014.461538,0.049680,0.001000,0.001000,0.001000,0.001000,0.001000
1014.480769,0.049814,0.001000,0.001000,0.001000,0.001000,0.001000
1014.500000,0.049912,0.001000,0.001000,0.001000,0.001000,0.001000
1014.519231,0.049974,0.001000,0.001000,0.001000,0.001000,0.001000
1014.538462,0.049999,0.001000,0.001000,0.001000,0.001000,0.001000
1014.557692,0.049988,0.001000,0.001000,0.001000,0.001000,0.001000
1014.576923,0.049941,0.001000,0.001000,0.001000,0.001000,0.001000
1014.596154,0.049856,0.001000,0.001000,0.001000,0.001000,0.001000
1014.615385,0.049736,0.001000,0.001000,0.001000,0.001000,0.001000
1014.634615,0.049579,0.001000,0.001000,0.001000,0.001000,0.001000
1014.653846,0.049387,0.001000,0.001000,0.001000,0.001000,0.001000
1014.673077,0.049158,0.001000,0.001000,0.001000,0.001000,0.001000
1014.692308,0.048893,0.001000,0.001000,0.001000,0.001000,0.001000
1014.711538,0.048593,0.001000,0.001000,0.001000,0.001000,0.001000
1014.730769,0.048257,0.001000,0.001000,0.001000,0.001000,0.001000
1014.750000,0.047886,0.001000,0.001000,0.001000,0.001000,0.001000
1014.769231,0.047480,0.001000,0.001000,0.001000,0.001000,0.001000
1014.788462,0.047040,0.001000,0.001000,0.001000,0.001000,0.001000
1014.807692,0.046565,0.001000,0.001000,0.001000,0.001000,0.001000
1014.826923,0.046056,0.001000,0.001000,0.001000,0.001000,0.001000
1014.846154,0.045514,0.001000,0.001000,0.001000,0.001000,0.001000
1014.865385,0.044938,0.001000,0.001000,0.001000,0.001000,0.001000
1014.884615,0.044330,0.001000,0.001000,0.001000,0.001000,0.001000
1014.903846,0.043690,0.001000,0.001000,0.001000,0.001000,0.001000
1014.923077,0.043017,0.001000,0.001000,0.001000,0.001000,0.001000
1014.942308,0.042313,0.001000,0.001000,0.001000,0.001000,0.001000
1014.961538,0.041579,0.001000,0.001000,0.001000,0.001000,0.001000
1014.980769,0.040814,0.001000,0.001000,0.001000,0.001000,0.001000
1015.000000,0.040019,0.001000,0.001000,0.001000,0.001000,0.001000
1015.019231,0.039195,0.001000,0.001000,0.001000,0.001000,0.001000
1015.038462,0.038342,0.001000,0.001000,0.001000,0.001000,0.001000
1015.057692,0.037462,0.001000,0.001000,0.001000,0.001000,0.001000
1015.076923,0.036554,0.001000,0.001000,0.001000,0.001000,0.001000
1015.096154,0.035620,0.001000,0.001000,0.001000,0.001000,0.001000
1015.115385,0.034659,0.001000,0.001000,0.001000,0.001000,0.001000
1015.134615,0.033674,0.001000,0.001000,0.001000,0.001000,0.001000
1015.153846,0.032663,0.001000,0.001000,0.001000,0.001000,0.001000
1015.173077,0.031629,0.001000,0.001000,0.001000,0.001000,0.001000
1015.192308,0.030572,0.001000,0.001000,0.001000,0.001000,0.001000
1015.211538,0.029493,0.001000,0.001000,0.001000,0.001000,0.001000
1015.230769,0.028392,0.001000,0.001000,0.001000,0.001000,0.001000
1015.250000,0.027270,0.001000,0.001000,0.001000,0.001000,0.001000
1015.269231,0.026129,0.001000,0.001000,0.001000,0.001000,0.001000
1015.288462,0.024968,0.001000,0.001000,0.001000,0.001000,0.001000
1015.307692,0.023789,0.001000,0.001000,0.001000,0.001000,0.001000
1015.326923,0.022593,0.001000,0.001000,0.001000,0.001000,0.001000
1015.346154,0.021381,0.001000,0.001000,0.001000,0.001000,0.001000
1015.365385,0.020152,0.001000,0.001000,0.001000,0.001000,0.001000
1015.384615,0.018910,0.001000,0.001000,0.001000,0.001000,0.001000
1015.403846,0.017653,0.001000,0.001000,0.001000,0.001000,0.001000
1015.423077,0.016383,0.001000,0.001000,0.001000,0.001000,0.001000
1015.442308,0.015102,0.001000,0.001000,0.001000,0.001000,0.001000
1015.461538,0.013809,0.001000,0.001000,0.001000,0.001000,0.001000
1015.480769,0.012507,0.001000,0.001000,0.001000,0.001000,0.001000
1015.500000,0.011195,0.001000,0.001000,0.001000,0.001000,0.001000
1015.519231,0.009875,0.001000,0.001000,0.001000,0.001000,0.001000
1015.538462,0.008548,0.001000,0.001000,0.001000,0.001000,0.001000
1015.557692,0.007215,0.001000,0.001000,0.001000,0.001000,0.001000
1015.576923,0.005876,0.001000,0.001000,0.001000,0.001000,0.001000
1015.596154,0.004534,0.001000,0.001000,0.001000,0.001000,0.001000
1015.615385,0.003187,0.001000,0.001000,0.001000,0.001000,0.001000
1015.634615,0.001839,0.001000,0.001000,0.001000,0.001000,0.001000
1015.653846,0.000489,0.001000,0.001000,0.001000,0.001000,0.001000
1015.673077,-0.000861,0.001000,0.001000,0.001000,0.001000,0.001000
1015.692308,-0.002211,0.001000,0.001000,0.001000,0.001000,0.001000
1015.711538,-0.003558,0.001000,0.001000,0.001000,0.001000,0.001000
1015.730769,-0.004904,0.001000,0.001000,0.001000,0.001000,0.001000
1015.750000,-0.006246,0.001000,0.001000,0.001000,0.001000,0.001000
1015.769231,-0.007583,0.001000,0.001000,0.001000,0.001000,0.001000
1015.788462,-0.008914,0.001000,0.001000,0.001000,0.001000,0.001000
1015.807692,-0.010240,0.001000,0.001000,0.001000,0.001000,0.001000
1015.826923,-0.011557,0.001000,0.001000,0.001000,0.001000,0.001000
1015.846154,-0.012867,0.001000,0.001000,0.001000,0.001000,0.001000
1015.865385,-0.014166,0.001000,0.001000,0.001000,0.001000,0.001000
1015.884615,-0.015456,0.001000,0.001000,0.001000,0.001000,0.001000
1015.903846,-0.016734,0.001000,0.001000,0.001000,0.001000,0.001000
1015.923077,-0.018000,0.001000,0.001000,0.001000,0.001000,0.001000
1015.942308,-0.019253,0.001000,0.001000,0.001000,0.001000,0.001000
1015.961538,-0.020492,0.001000,0.001000,0.001000,0.001000,0.001000
1015.980769,-0.021716,0.001000,0.001000,0.001000,0.001000,0.001000
1016.000000,-0.022924,0.001000,0.001000,0.001000,0.001000,0.001000
1016.019231,-0.024116,0.001000,0.001000,0.001000,0.001000,0.001000
1016.038462,-0.025290,0.001000,0.001000,0.001000,0.001000,0.001000
1016.057692,-0.026445,0.001000,0.001000,0.001000,0.001000,0.001000
1016.076923,-0.027581,0.001000,0.001000,0.001000,0.001000,0.001000
1016.096154,-0.028697,0.001000,0.001000,0.001000,0.001000,0.001000
1016.115385,-0.029792,0.001000,0.001000,0.001000,0.001000,0.001000
1016.134615,-0.030866,0.001000,0.001000,0.001000,0.001000,0.001000
1016.153846,-0.031916,0.001000,0.001000,0.001000,0.001000,0.001000
1016.173077,-0.032944,0.001000,0.001000,0.001000,0.001000,0.001000
1016.192308,-0.033948,0.001000,0.001000,0.001000,0.001000,0.001000
1016.211538,-0.034926,0.001000,0.001000,0.001000,0.001000,0.001000
1016.230769,-0.035880,0.001000,0.001000,0.001000,0.001000,0.001000
1016.250000,-0.036807,0.001000,0.001000,0.001000,0.001000,0.001000
1016.269231,-0.037707,0.001000,0.001000,0.001000,0.001000,0.001000
1016.288462,-0.038580,0.001000,0.001000,0.001000,0.001000,0.001000
1016.307692,-0.039425,0.001000,0.001000,0.001000,0.001000,0.001000
1016.326923,-0.040241,0.001000,0.001000,0.001000,0.001000,0.001000
1016.346154,-0.041027,0.001000,0.001000,0.001000,0.001000,0.001000
1016.365385,-0.041784,0.001000,0.001000,0.001000,0.001000,0.001000
1016.384615,-0.042510,0.001000,0.001000,0.001000,0.001000,0.001000
1016.403846,-0.043205,0.001000,0.001000,0.001000,0.001000,0.001000
1016.423077,-0.043869,0.001000,0.001000,0.001000,0.001000,0.001000
1016.442308,-0.044501,0.001000,0.001000,0.001000,0.001000,0.001000
1016.461538,-0.045100,0.001000,0.001000,0.001000,0.001000,0.001000
1016.480769,-0.045667,0.001000,0.001000,0.001000,0.001000,0.001000
1016.500000,-0.046200,0.001000,0.001000,0.001000,0.001000,0.001000
1016.519231,-0.046699,0.001000,0.001000,0.001000,0.001000,0.001000
1016.538462,-0.047165,0.001000,0.001000,0.001000,0.001000,0.001000
1016.557692,-0.047596,0.001000,0.001000,0.001000,0.001000,0.001000
1016.576923,-0.047992,0.001000,0.001000,0.001000,0.001000,0.001000
1016.596154,-0.048353,0.001000,0.001000,0.001000,0.001000,0.001000
1016.615385,-0.048679,0.001000,0.001000,0.001000,0.001000,0.001000
1016.634615,-0.048970,0.001000,0.001000,0.001000,0.001000,0.001000
1016.653846,-0.049224,0.001000,0.001000,0.001000,0.001000,0.001000
1016.673077,-0.049443,0.001000,0.001000,0.001000,0.001000,0.001000
1016.692308,-0.049626,0.001000,0.001000,0.001000,0.001000,0.001000
1016.711538,-0.049773,0.001000,0.001000,0.001000,0.001000,0.001000
1016.730769,-0.049883,0.001000,0.001000,0.001000,0.001000,0.001000
1016.750000,-0.049957,0.001000,0.001000,0.001000,0.001000,0.001000
1016.769231,-0.049995,0.001000,0.001000,0.001000,0.001000,0.001000
1016.788462,-0.049996,0.001000,0.001000,0.001000,0.001000,0.001000
1016.807692,-0.049961,0.001000,0.001000,0.001000,0.001000,0.001000
1016.826923,-0.049889,0.001000,0.001000,0.001000,0.001000,0.001000
1016.846154,-0.049781,0.001000,0.001000,0.001000,0.001000,0.001000
1016.865385,-0.049636,0.001000,0.001000,0.001000,0.001000,0.001000
1016.884615,-0.049456,0.001000,0.001000,0.001000,0.001000,0.001000
1016.903846,-0.049239,0.001000,0.001000,0.001000,0.001000,0.001000
1016.923077,-0.048986,0.001000,0.001000,0.001000,0.001000,0.001000
1016.942308,-0.048698,0.001000,0.001000,0.001000,0.001000,0.001000
1016.961538,-0.048374,0.001000,0.001000,0.001000,0.001000,0.001000
1016.980769,-0.048015,0.001000,0.001000,0.001000,0.001000,0.001000
1017.000000,-0.047621,0.001000,0.001000,0.001000,0.001000,0.001000
1017.019231,-0.047192,0.001000,0.001000,0.001000,0.001000,0.001000
1017.038462,-0.046729,0.001000,0.001000,0.001000,0.001000,0.001000
1017.057692,-0.046232,0.001000,0.001000,0.001000,0.001000,0.001000
1017.076923,-0.045701,0.001000,0.001000,0.001000,0.001000,0.001000
1017.096154,-0.045136,0.001000,0.001000,0.001000,0.001000,0.001000
1017.115385,-0.044539,0.001000,0.001000,0.001000,0.001000,0.001000
1017.134615,-0.043909,0.001000,0.001000,0.001000,0.001000,0.001000
1017.153846,-0.043248,0.001000,0.001000,0.001000,0.001000,0.001000
1017.173077,-0.042554,0.001000,0.001000,0.001000,0.001000,0.001000
1017.192308,-0.041830,0.001000,0.001000,0.001000,0.001000,0.001000
1017.211538,-0.041075,0.001000,0.001000,0.001000,0.001000,0.001000
1017.230769,-0.040290,0.001000,0.001000,0.001000,0.001000,0.001000
1017.250000,-0.039476,0.001000,0.001000,0.001000,0.001000,0.001000
1017.269231,-0.038633,0.001000,0.001000,0.001000,0.001000,0.001000
1017.288462,-0.037762,0.001000,0.001000,0.001000,0.001000,0.001000
1017.307692,-0.036863,0.001000,0.001000,0.001000,0.001000,0.001000
1017.326923,-0.035938,0.001000,0.001000,0.001000,0.001000,0.001000
1017.346154,-0.034986,0.001000,0.001000,0.001000,0.001000,0.001000
1017.365385,-0.034009,0.001000,0.001000,0.001000,0.001000,0.001000
1017.384615,-0.033007,0.001000,0.001000,0.001000,0.001000,0.001000
1017.403846,-0.031981,0.001000,0.001000,0.001000,0.001000,0.001000
1017.423077,-0.030931,0.001000,0.001000,0.001000,0.001000,0.001000
1017.442308,-0.029859,0.001000,0.001000,0.001000,0.001000,0.001000
1017.461538,-0.028766,0.001000,0.001000,0.001000,0.001000,0.001000
1017.480769,-0.027651,0.001000,0.001000,0.001000,0.001000,0.001000
1017.500000,-0.026516,0.001000,0.001000,0.001000,0.001000,0.001000
1017.519231,-0.025362,0.001000,0.001000,0.001000,0.001000,0.001000
1017.538462,-0.024189,0.001000,0.001000,0.001000,0.001000,0.001000
1017.557692,-0.022999,0.001000,0.001000,0.001000,0.001000,0.001000
1017.576923,-0.021792,0.001000,0.001000,0.001000,0.001000,0.001000
1017.596154,-0.020569,0.001000,0.001000,0.001000,0.001000,0.001000
1017.615385,-0.019331,0.001000,0.001000,0.001000,0.001000,0.001000
1017.634615,-0.018078,0.001000,0.001000,0.001000,0.001000,0.001000
1017.653846,-0.016813,0.001000,0.001000,0.001000,0.001000,0.001000
1017.673077,-0.015536,0.001000,0.001000,0.001000,0.001000,0.001000
1017.692308,-0.014247,0.001000,0.001000,0.001000,0.001000,0.001000
1017.711538,-0.012947,0.001000,0.001000,0.001000,0.001000,0.001000
1017.730769,-0.011639,0.001000,0.001000,0.001000,0.001000,0.001000
1017.750000,-0.010321,0.001000,0.001000,0.001000,0.001000,0.001000
1017.769231,-0.008997,0.001000,0.001000,0.001000,0.001000,0.001000
1017.788462,-0.007665,0.001000,0.001000,0.001000,0.001000,0.001000
1017.807692,-0.006329,0.001000,0.001000,0.001000,0.001000,0.001000
1017.826923,-0.004987,0.001000,0.001000,0.001000,0.001000,0.001000
1017.846154,-0.003642,0.001000,0.001000,0.001000,0.001000,0.001000
1017.865385,-0.002294,0.001000,0.001000,0.001000,0.001000,0.001000
1017.884615,-0.000945,0.001000,0.001000,0.001000,0.001000,0.001000
1017.903846,0.000405,0.001000,0.001000,0.001000,0.001000,0.001000
1017.923077,0.001755,0.001000,0.001000,0.001000,0.001000,0.001000
1017.942308,0.003104,0.001000,0.001000,0.001000,0.001000,0.001000
1017.961538,0.004450,0.001000,0.001000,0.001000,0.001000,0.001000
1017.980769,0.005793,0.001000,0.001000,0.001000,0.001000,0.001000
1018.000000,0.007132,0.001000,0.001000,0.001000,0.001000,0.001000
1018.019231,0.008466,0.001000,0.001000,0.001000,0.001000,0.001000
1018.038462,0.009793,0.001000,0.001000,0.001000,0.001000,0.001000
1018.057692,0.011113,0.001000,0.001000,0.001000,0.001000,0.001000
1018.076923,0.012426,0.001000,0.001000,0.001000,0.001000,0.001000
1018.096154,0.013729,0.001000,0.001000,0.001000,0.001000,0.001000
1018.115385,0.015022,0.001000,0.001000,0.001000,0.001000,0.001000
1018.134615,0.016304,0.001000,0.001000,0.001000,0.001000,0.001000
1018.153846,0.017575,0.001000,0.001000,0.001000,0.001000,0.001000
1018.173077,0.018832,0.001000,0.001000,0.001000,0.001000,0.001000
1018.192308,0.020076,0.001000,0.001000,0.001000,0.001000,0.001000
1018.211538,0.021305,0.001000,0.001000,0.001000,0.001000,0.001000
1018.230769,0.022518,0.001000,0.001000,0.001000,0.001000,0.001000
1018.250000,0.023716,0.001000,0.001000,0.001000,0.001000,0.001000
1018.269231,0.024895,0.001000,0.001000,0.001000,0.001000,0.001000
1018.288462,0.026057,0.001000,0.001000,0.001000,0.001000,0.001000
1018.307692,0.027200,0.001000,0.001000,0.001000,0.001000,0.001000
1018.326923,0.028323,0.001000,0.001000,0.001000,0.001000,0.001000
1018.346154,0.029425,0.001000,0.001000,0.001000,0.001000,0.001000
1018.365385,0.030506,0.001000,0.001000,0.001000,0.001000,0.001000
1018.384615,0.031564,0.001000,0.001000,0.001000,0.001000,0.001000
1018.403846,0.032600,0.001000,0.001000,0.001000,0.001000,0.001000
1018.423077,0.033612,0.001000,0.001000,0.001000,0.001000,0.001000
1018.442308,0.034599,0.001000,0.001000,0.001000,0.001000,0.001000
1018.461538,0.035561,0.001000,0.001000,0.001000,0.001000,0.001000
1018.480769,0.036497,0.001000,0.001000,0.001000,0.001000,0.001000
1018.500000,0.037406,0.001000,0.001000,0.001000,0.001000,0.001000
1018.519231,0.038289,0.001000,0.001000,0.001000,0.001000,0.001000
1018.538462,0.039143,0.001000,0.001000,0.001000,0.001000,0.001000
1018.557692,0.039969,0.001000,0.001000,0.001000,0.001000,0.001000
1018.576923,0.040765,0.001000,0.001000,0.001000,0.001000,0.001000
1018.596154,0.041532,0.001000,0.001000,0.001000,0.001000,0.001000
1018.615385,0.042269,0.001000,0.001000,0.001000,0.001000,0.001000
1018.634615,0.042974,0.001000,0.001000,0.001000,0.001000,0.001000
1018.653846,0.043649,0.001000,0.001000,0.001000,0.001000,0.001000
1018.673077,0.044291,0.001000,0.001000,0.001000,0.001000,0.001000
1018.692308,0.044902,0.001000,0.001000,0.001000,0.001000,0.001000
1018.711538,0.045479,0.001000,0.001000,0.001000,0.001000,0.001000
1018.730769,0.046024,0.001000,0.001000,0.001000,0.001000,0.001000
1018.750000,0.046534,0.001000,0.001000,0.001000,0.001000,0.001000
1018.769231,0.047011,0.001000,0.001000,0.001000,0.001000,0.001000
1018.788462,0.047454,0.001000,0.001000,0.001000,0.001000,0.001000
1018.807692,0.047862,0.001000,0.001000,0.001000,0.001000,0.001000
1018.826923,0.048235,0.001000,0.001000,0.001000,0.001000,0.001000
1018.846154,0.048573,0.001000,0.001000,0.001000,0.001000,0.001000
1018.865385,0.048876,0.001000,0.001000,0.001000,0.001000,0.001000
1018.884615,0.049142,0.001000,0.001000,0.001000,0.001000,0.001000
1018.903846,0.049373,0.001000,0.001000,0.001000,0.001000,0.001000
1018.923077,0.049569,0.001000,0.001000,0.001000,0.001000,0.001000
1018.942308,0.049727,0.001000,0.001000,0.001000,0.001000,0.001000
1018.961538,0.049850,0.001000,0.001000,0.001000,0.001000,0.001000
1018.980769,0.049936,0.001000,0.001000,0.001000,0.001000,0.001000
1019.000000,0.049986,0.001000,0.001000,0.001000,0.001000,0.001000
1019.019231,0.050000,0.001000,0.001000,0.001000,0.001000,0.001000
1019.038462,0.049977,0.001000,0.001000,0.001000,0.001000,0.001000
1019.057692,0.049917,0.001000,0.001000,0.001000,0.001000,0.001000
1019.076923,0.049821,0.001000,0.001000,0.001000,0.001000,0.001000
1019.096154,0.049689,0.001000,0.001000,0.001000,0.001000,0.001000
1019.115385,0.049521,0.001000,0.001000,0.001000,0.001000,0.001000
1019.134615,0.049316,0.001000,0.001000,0.001000,0.001000,0.001000
1019.153846,0.049076,0.001000,0.001000,0.001000,0.001000,0.001000
1019.173077,0.048799,0.001000,0.001000,0.001000,0.001000,0.001000
1019.192308,0.048488,0.001000,0.001000,0.001000,0.001000,0.001000
1019.211538,0.048140,0.001000,0.001000,0.001000,0.001000,0.001000
1019.230769,0.047758,0.001000,0.001000,0.001000,0.001000,0.001000
1019.250000,0.047341,0.001000,0.001000,0.001000,0.001000,0.001000
1019.269231,0.046889,0.001000,0.001000,0.001000,0.001000,0.001000
1019.288462,0.046403,0.001000,0.001000,0.001000,0.001000,0.001000
1019.307692,0.045884,0.001000,0.001000,0.001000,0.001000,0.001000
1019.326923,0.045330,0.001000,0.001000,0.001000,0.001000,0.001000
1019.346154,0.044744,0.001000,0.001000,0.001000,0.001000,0.001000
1019.365385,0.044125,0.001000,0.001000,0.001000,0.001000,0.001000
1019.384615,0.043474,0.001000,0.001000,0.001000,0.001000,0.001000
1019.403846,0.042792,0.001000,0.001000,0.001000,0.001000,0.001000
1019.423077,0.042078,0.001000,0.001000,0.001000,0.001000,0.001000
1019.442308,0.041333,0.001000,0.001000,0.001000,0.001000,0.001000
1019.461538,0.040558,0.001000,0.001000,0.001000,0.001000,0.001000
1019.480769,0.039754,0.001000,0.001000,0.001000,0.001000,0.001000
1019.500000,0.038921,0.001000,0.001000,0.001000,0.001000,0.001000
1019.519231,0.038059,0.001000,0.001000,0.001000,0.001000,0.001000
1019.538462,0.037170,0.001000,0.001000,0.001000,0.001000,0.001000
1019.557692,0.036253,0.001000,0.001000,0.001000,0.001000,0.001000
1019.576923,0.035310,0.001000,0.001000,0.001000,0.001000,0.001000
1019.596154,0.034342,0.001000,0.001000,0.001000,0.001000,0.001000
1019.615385,0.033348,0.001000,0.001000,0.001000,0.001000,0.001000
1019.634615,0.032330,0.001000,0.001000,0.001000,0.001000,0.001000
1019.653846,0.031288,0.001000,0.001000,0.001000,0.001000,0.001000
1019.673077,0.030224,0.001000,0.001000,0.001000,0.001000,0.001000
1019.692308,0.029137,0.001000,0.001000,0.001000,0.001000,0.001000
1019.711538,0.028029,0.001000,0.001000,0.001000,0.001000,0.001000
1019.730769,0.026901,0.001000,0.001000,0.001000,0.001000,0.001000
1019.750000,0.025753,0.001000,0.001000,0.001000,0.001000,0.001000
1019.769231,0.024587,0.001000,0.001000,0.001000,0.001000,0.001000
1019.788462,0.023402,0.001000,0.001000,0.001000,0.001000,0.001000
1019.807692,0.022201,0.001000,0.001000,0.001000,0.001000,0.001000
1019.826923,0.020983,0.001000,0.001000,0.001000,0.001000,0.001000
1019.846154,0.019750,0.001000,0.001000,0.001000,0.001000,0.001000
1019.865385,0.018502,0.001000,0.001000,0.001000,0.001000,0.001000
1019.884615,0.017242,0.001000,0.001000,0.001000,0.001000,0.001000
1019.903846,0.015968,0.001000,0.001000,0.001000,0.001000,0.001000
1019.923077,0.014683,0.001000,0.001000,0.001000,0.001000,0.001000
1019.942308,0.013387,0.001000,0.001000,0.001000,0.001000,0.001000
1019.961538,0.012081,0.001000,0.001000,0.001000,0.001000,0.001000
1019.980769,0.010767,0.001000,0.001000,0.001000,0.001000,0.001000
1020.000000,0.009445,0.001000,0.001000,0.001000,0.001000,0.001000
1020.019231,0.008115,0.001000,0.001000,0.001000,0.001000,0.001000
1020.038462,0.006780,0.001000,0.001000,0.001000,0.001000,0.001000
1020.057692,0.005440,0.001000,0.001000,0.001000,0.001000,0.001000
1020.076923,0.004096,0.001000,0.001000,0.001000,0.001000,0.001000
1020.096154,0.002749,0.001000,0.001000,0.001000,0.001000,0.001000
1020.115385,0.001400,0.001000,0.001000,0.001000,0.001000,0.001000
1020.134615,0.000050,0.001000,0.001000,0.001000,0.001000,0.001000
1020.153846,-0.001300,0.001000,0.001000,0.001000,0.001000,0.001000
1020.173077,-0.002649,0.001000,0.001000,0.001000,0.001000,0.001000
1020.192308,-0.003996,0.001000,0.001000,0.001000,0.001000,0.001000
1020.211538,-0.005340,0.001000,0.001000,0.001000,0.001000,0.001000
1020.230769,-0.006681,0.001000,0.001000,0.001000,0.001000,0.001000
1020.250000,-0.008016,0.001000,0.001000,0.001000,0.001000,0.001000
1020.269231,-0.009346,0.001000,0.001000,0.001000,0.001000,0.001000
1020.288462,-0.010669,0.001000,0.001000,0.001000,0.001000,0.001000
1020.307692,-0.011984,0.001000,0.001000,0.001000,0.001000,0.001000
1020.326923,-0.013290,0.001000,0.001000,0.001000,0.001000,0.001000
1020.346154,-0.014587,0.001000,0.001000,0.001000,0.001000,0.001000
1020.365385,-0.015873,0.001000,0.001000,0.001000,0.001000,0.001000
1020.384615,-0.017147,0.001000,0.001000,0.001000,0.001000,0.001000
1020.403846,-0.018409,0.001000,0.001000,0.001000,0.001000,0.001000
1020.423077,-0.019658,0.001000,0.001000,0.001000,0.001000,0.001000
1020.442308,-0.020892,0.001000,0.001000,0.001000,0.001000,0.001000
1020.461538,-0.022111,0.001000,0.001000,0.001000,0.001000,0.001000
1020.480769,-0.023314,0.001000,0.001000,0.001000,0.001000,0.001000
1020.500000,-0.024499,0.001000,0.001000,0.001000,0.001000,0.001000
1020.519231,-0.025667,0.001000,0.001000,0.001000,0.001000,0.001000
1020.538462,-0.026816,0.001000,0.001000,0.001000,0.001000,0.001000
1020.557692,-0.027946,0.001000,0.001000,0.001000,0.001000,0.001000
1020.576923,-0.029055,0.001000,0.001000,0.001000,0.001000,0.001000
1020.596154,-0.030144,0.001000,0.001000,0.001000,0.001000,0.001000
1020.615385,-0.031210,0.001000,0.001000,0.001000,0.001000,0.001000
1020.634615,-0.032253,0.001000,0.001000,0.001000,0.001000,0.001000
1020.653846,-0.033273,0.001000,0.001000,0.001000,0.001000,0.001000
1020.673077,-0.034268,0.001000,0.001000,0.001000,0.001000,0.001000
1020.692308,-0.035239,0.001000,0.001000,0.001000,0.001000,0.001000
1020.711538,-0.036184,0.001000,0.001000,0.001000,0.001000,0.001000
1020.730769,-0.037103,0.001000,0.001000,0.001000,0.001000,0.001000
1020.750000,-0.037994,0.001000,0.001000,0.001000,0.001000,0.001000
1020.769231,-0.038858,0.001000,0.001000,0.001000,0.001000,0.001000
1020.788462,-0.039693,0.001000,0.001000,0.001000,0.001000,0.001000
1020.807692,-0.040500,0.001000,0.001000,0.001000,0.001000,0.001000
1020.826923,-0.041277,0.001000,0.001000,0.001000,0.001000,0.001000
1020.846154,-0.042023,0.001000,0.001000,0.001000,0.001000,0.001000
1020.865385,-0.042740,0.001000,0.001000,0.001000,0.001000,0.001000
1020.884615,-0.043425,0.001000,0.001000,0.001000,0.001000,0.001000
1020.903846,-0.044078,0.001000,0.001000,0.001000,0.001000,0.001000
1020.923077,-0.044699,0.001000,0.001000,0.001000,0.001000,0.001000
1020.942308,-0.045288,0.001000,0.001000,0.001000,0.001000,0.001000
1020.961538,-0.045844,0.001000,0.001000,0.001000,0.001000,0.001000
1020.980769,-0.046366,0.001000,0.001000,0.001000,0.001000,0.001000
1021.000000,-0.046854,0.001000,0.001000,0.001000,0.001000,0.001000
1021.019231,-0.047308,0.001000,0.001000,0.001000,0.001000,0.001000
1021.038462,-0.047728,0.001000,0.001000,0.001000,0.001000,0.001000
1021.057692,-0.048113,0.001000,0.001000,0.001000,0.001000,0.001000
1021.076923,-0.048463,0.001000,0.001000,0.001000,0.001000,0.001000
1021.096154,-0.048777,0.001000,0.001000,0.001000,0.001000,0.001000
1021.115385,-0.049056,0.001000,0.001000,0.001000,0.001000,0.001000
1021.134615,-0.049300,0.001000,0.001000,0.001000,0.001000,0.001000
1021.153846,-0.049507,0.001000,0.001000,0.001000,0.001000,0.001000
1021.173077,-0.049678,0.001000,0.001000,0.001000,0.001000,0.001000
1021.192308,-0.049813,0.001000,0.001000,0.001000,0.001000,0.001000
1021.211538,-0.049911,0.001000,0.001000,0.001000,0.001000,0.001000
1021.230769,-0.049973,0.001000,0.001000,0.001000,0.001000,0.001000
1021.250000,-0.049999,0.001000,0.001000,0.001000,0.001000,0.001000
1021.269231,-0.049989,0.001000,0.001000,0.001000,0.001000,0.001000
1021.288462,-0.049941,0.001000,0.001000,0.001000,0.001000,0.001000
1021.307692,-0.049858,0.001000,0.001000,0.001000,0.001000,0.001000
1021.326923,-0.049738,0.001000,0.001000,0.001000,0.001000,0.001000
1021.346154,-0.049582,0.001000,0.001000,0.001000,0.001000,0.001000
1021.365385,-0.049389,0.001000,0.001000,0.001000,0.001000,0.001000
1021.384615,-0.049161,0.001000,0.001000,0.001000,0.001000,0.001000
1021.403846,-0.048897,0.001000,0.001000,0.001000,0.001000,0.001000
1021.423077,-0.048597,0.001000,0.001000,0.001000,0.001000,0.001000
1021.442308,-0.048261,0.001000,0.001000,0.001000,0.001000,0.001000
1021.461538,-0.047891,0.001000,0.001000,0.001000,0.001000,0.001000
1021.480769,-0.047485,0.001000,0.001000,0.001000,0.001000,0.001000
1021.500000,-0.047045,0.001000,0.001000,0.001000,0.001000,0.001000
1021.519231,-0.046571,0.001000,0.001000,0.001000,0.001000,0.001000
1021.538462,-0.046063,0.001000,0.001000,0.001000,0.001000,0.001000
1021.557692,-0.045521,0.001000,0.001000,0.001000,0.001000,0.001000
1021.576923,-0.044946,0.001000,0.001000,0.001000,0.001000,0.001000
1021.596154,-0.044338,0.001000,0.001000,0.001000,0.001000,0.001000
1021.615385,-0.043698,0.001000,0.001000,0.001000,0.001000,0.001000
1021.634615,-0.043026,0.001000,0.001000,0.001000,0.001000,0.001000
1021.653846,-0.042322,0.001000,0.001000,0.001000,0.001000,0.001000
1021.673077,-0.041588,0.001000,0.001000,0.001000,0.001000,0.001000
1021.692308,-0.040823,0.001000,0.001000,0.001000,0.001000,0.001000
1021.711538,-0.040029,0.001000,0.001000,0.001000,0.001000,0.001000
1021.730769,-0.039205,0.001000,0.001000,0.001000,0.001000,0.001000
1021.750000,-0.038353,0.001000,0.001000,0.001000,0.001000,0.001000
1021.769231,-0.037473,0.001000,0.001000,0.001000,0.001000,0.001000
1021.788462,-0.036566,0.001000,0.001000,0.001000,0.001000,0.001000
1021.807692,-0.035631,0.001000,0.001000,0.001000,0.001000,0.001000
1021.826923,-0.034671,0.001000,0.001000,0.001000,0.001000,0.001000
1021.846154,-0.033686,0.001000,0.001000,0.001000,0.001000,0.001000
1021.865385,-0.032676,0.001000,0.001000,0.001000,0.001000,0.001000
1021.884615,-0.031642,0.001000,0.001000,0.001000,0.001000,0.001000
1021.903846,-0.030585,0.001000,0.001000,0.001000,0.001000,0.001000
1021.923077,-0.029506,0.001000,0.001000,0.001000,0.001000,0.001000
1021.942308,-0.028406,0.001000,0.001000,0.001000,0.001000,0.001000
1021.961538,-0.027284,0.001000,0.001000,0.001000,0.001000,0.001000
1021.980769,-0.026143,0.001000,0.001000,0.001000,0.001000,0.001000
1022.000000,-0.024983,0.001000,0.001000,0.001000,0.001000,0.001000
1022.019231,-0.023804,0.001000,0.001000,0.001000,0.001000,0.001000
1022.038462,-0.022608,0.001000,0.001000,0.001000,0.001000,0.001000
1022.057692,-0.021396,0.001000,0.001000,0.001000,0.001000,0.001000
1022.076923,-0.020168,0.001000,0.001000,0.001000,0.001000,0.001000
1022.096154,-0.018925,0.001000,0.001000,0.001000,0.001000,0.001000
1022.115385,-0.017669,0.001000,0.001000,0.001000,0.001000,0.001000
1022.134615,-0.016399,0.001000,0.001000,0.001000,0.001000,0.001000
1022.153846,-0.015118,0.001000,0.001000,0.001000,0.001000,0.001000
1022.173077,-0.013825,0.001000,0.001000,0.001000,0.001000,0.001000
1022.192308,-0.012523,0.001000,0.001000,0.001000,0.001000,0.001000
1022.211538,-0.011211,0.001000,0.001000,0.001000,0.001000,0.001000
1022.230769,-0.009892,0.001000,0.001000,0.001000,0.001000,0.001000
1022.250000,-0.008565,0.001000,0.001000,0.001000,0.001000,0.001000
1022.269231,-0.007231,0.001000,0.001000,0.001000,0.001000,0.001000
1022.288462,-0.005893,0.001000,0.001000,0.001000,0.001000,0.001000
1022.307692,-0.004550,0.001000,0.001000,0.001000,0.001000,0.001000
1022.326923,-0.003204,0.001000,0.001000,0.001000,0.001000,0.001000
1022.346154,-0.001856,0.001000,0.001000,0.001000,0.001000,0.001000
1022.365385,-0.000506,0.001000,0.001000,0.001000,0.001000,0.001000
1022.384615,0.000844,0.001000,0.001000,0.001000,0.001000,0.001000
1022.403846,0.002194,0.001000,0.001000,0.001000,0.001000,0.001000
1022.423077,0.003542,0.001000,0.001000,0.001000,0.001000,0.001000
1022.442308,0.004887,0.001000,0.001000,0.001000,0.001000,0.001000
1022.461538,0.006229,0.001000,0.001000,0.001000,0.001000,0.001000
1022.480769,0.007566,0.001000,0.001000,0.001000,0.001000,0.001000
1022.500000,0.008898,0.001000,0.001000,0.001000,0.001000,0.001000
1022.519231,0.010223,0.001000,0.001000,0.001000,0.001000,0.001000
1022.538462,0.011541,0.001000,0.001000,0.001000,0.001000,0.001000
1022.557692,0.012850,0.001000,0.001000,0.001000,0.001000,0.001000
1022.576923,0.014150,0.001000,0.001000,0.001000,0.001000,0.001000
1022.596154,0.015440,0.001000,0.001000,0.001000,0.001000,0.001000
1022.615385,0.016718,0.001000,0.001000,0.001000,0.001000,0.001000
1022.634615,0.017985,0.001000,0.001000,0.001000,0.001000,0.001000
1022.653846,0.019238,0.001000,0.001000,0.001000,0.001000,0.001000
1022.673077,0.020477,0.001000,0.001000,0.001000,0.001000,0.001000
1022.692308,0.021701,0.001000,0.001000,0.001000,0.001000,0.001000
1022.711538,0.022909,0.001000,0.001000,0.001000,0.001000,0.001000
1022.730769,0.024101,0.001000,0.001000,0.001000,0.001000,0.001000
1022.750000,0.025275,0.001000,0.001000,0.001000,0.001000,0.001000
1022.769231,0.026431,0.001000,0.001000,0.001000,0.001000,0.001000
1022.788462,0.027567,0.001000,0.001000,0.001000,0.001000,0.001000
1022.807692,0.028683,0.001000,0.001000,0.001000,0.001000,0.001000
1022.826923,0.029779,0.001000,0.001000,0.001000,0.001000,0.001000
1022.846154,0.030852,0.001000,0.001000,0.001000,0.001000,0.001000
1022.865385,0.031904,0.001000,0.001000,0.001000,0.001000,0.001000
1022.884615,0.032931,0.001000,0.001000,0.001000,0.001000,0.001000
1022.903846,0.033935,0.001000,0.001000,0.001000,0.001000,0.001000
1022.923077,0.034914,0.001000,0.001000,0.001000,0.001000,0.001000
1022.942308,0.035868,0.001000,0.001000,0.001000,0.001000,0.001000
1022.961538,0.036796,0.001000,0.001000,0.001000,0.001000,0.001000
1022.980769,0.037696,0.001000,0.001000,0.001000,0.001000,0.001000
1023.000000,0.038569,0.001000,0.001000,0.001000,0.001000,0.001000
1023.019231,0.039414,0.001000,0.001000,0.001000,0.001000,0.001000
1023.038462,0.040231,0.001000,0.001000,0.001000,0.001000,0.001000
1023.057692,0.041018,0.001000,0.001000,0.001000,0.001000,0.001000
1023.076923,0.041775,0.001000,0.001000,0.001000,0.001000,0.001000
1023.096154,0.042501,0.001000,0.001000,0.001000,0.001000,0.001000
1023.115385,0.043197,0.001000,0.001000,0.001000,0.001000,0.001000
1023.134615,0.043861,0.001000,0.001000,0.001000,0.001000,0.001000
1023.153846,0.044493,0.001000,0.001000,0.001000,0.001000,0.001000
1023.173077,0.045093,0.001000,0.001000,0.001000,0.001000,0.001000
1023.192308,0.045660,0.001000,0.001000,0.001000,0.001000,0.001000
1023.211538,0.046193,0.001000,0.001000,0.001000,0.001000,0.001000
1023.230769,0.046693,0.001000,0.001000,0.001000,0.001000,0.001000
1023.250000,0.047159,0.001000,0.001000,0.001000,0.001000,0.001000
1023.269231,0.047590,0.001000,0.001000,0.001000,0.001000,0.001000
1023.288462,0.047987,0.001000,0.001000,0.001000,0.001000,0.001000
1023.307692,0.048349,0.001000,0.001000,0.001000,0.001000,0.001000
1023.326923,0.048675,0.001000,0.001000,0.001000,0.001000,0.001000
1023.346154,0.048966,0.001000,0.001000,0.001000,0.001000,0.001000
1023.365385,0.049221,0.001000,0.001000,0.001000,0.001000,0.001000
1023.384615,0.049441,0.001000,0.001000,0.001000,0.001000,0.001000
1023.403846,0.049624,0.001000,0.001000,0.001000,0.001000,0.001000
1023.423077,0.049771,0.001000,0.001000,0.001000,0.001000,0.001000
1023.442308,0.049882,0.001000,0.001000,0.001000,0.001000,0.001000
1023.461538,0.049957,0.001000,0.001000,0.001000,0.001000,0.001000
1023.480769,0.049995,0.001000,0.001000,0.001000,0.001000,0.001000
1023.500000,0.049996,0.001000,0.001000,0.001000,0.001000,0.001000
1023.519231,0.049961,0.001000,0.001000,0.001000,0.001000,0.001000
1023.538462,0.049890,0.001000,0.001000,0.001000,0.001000,0.001000
1023.557692,0.049782,0.001000,0.001000,0.001000,0.001000,0.001000
1023.576923,0.049638,0.001000,0.001000,0.001000,0.001000,0.001000
1023.596154,0.049458,0.001000,0.001000,0.001000,0.001000,0.001000
1023.615385,0.049242,0.001000,0.001000,0.001000,0.001000,0.001000
1023.634615,0.048990,0.001000,0.001000,0.001000,0.001000,0.001000
1023.653846,0.048702,0.001000,0.001000,0.001000,0.001000,0.001000
1023.673077,0.048379,0.001000,0.001000,0.001000,0.001000,0.001000
1023.692308,0.048020,0.001000,0.001000,0.001000,0.001000,0.001000
1023.711538,0.047626,0.001000,0.001000,0.001000,0.001000,0.001000
1023.730769,0.047198,0.001000,0.001000,0.001000,0.001000,0.001000
1023.750000,0.046735,0.001000,0.001000,0.001000,0.001000,0.001000
1023.769231,0.046238,0.001000,0.001000,0.001000,0.001000,0.001000
1023.788462,0.045707,0.001000,0.001000,0.001000,0.001000,0.001000
1023.807692,0.045144,0.001000,0.001000,0.001000,0.001000,0.001000
1023.826923,0.044547,0.001000,0.001000,0.001000,0.001000,0.001000
1023.846154,0.043917,0.001000,0.001000,0.001000,0.001000,0.001000
1023.865385,0.043256,0.001000,0.001000,0.001000,0.001000,0.001000
1023.884615,0.042563,0.001000,0.001000,0.001000,0.001000,0.001000
1023.903846,0.041839,0.001000,0.001000,0.001000,0.001000,0.001000
1023.923077,0.041085,0.001000,0.001000,0.001000,0.001000,0.001000
1023.942308,0.040300,0.001000,0.001000,0.001000,0.001000,0.001000
1023.961538,0.039486,0.001000,0.001000,0.001000,0.001000,0.001000
1023.980769,0.038644,0.001000,0.001000,0.001000,0.001000,0.001000
1024.000000,0.037773,0.001000,0.001000,0.001000,0.001000,0.001000
1024.019231,0.036875,0.001000,0.001000,0.001000,0.001000,0.001000
1024.038462,0.035950,0.001000,0.001000,0.001000,0.001000,0.001000
1024.057692,0.034998,0.001000,0.001000,0.001000,0.001000,0.001000
1024.076923,0.034021,0.001000,0.001000,0.001000,0.001000,0.001000
1024.096154,0.033020,0.001000,0.001000,0.001000,0.001000,0.001000
1024.115385,0.031994,0.001000,0.001000,0.001000,0.001000,0.001000
1024.134615,0.030945,0.001000,0.001000,0.001000,0.001000,0.001000
1024.153846,0.029873,0.001000,0.001000,0.001000,0.001000,0.001000
1024.173077,0.028779,0.001000,0.001000,0.001000,0.001000,0.001000
1024.192308,0.027665,0.001000,0.001000,0.001000,0.001000,0.001000
1024.211538,0.026530,0.001000,0.001000,0.001000,0.001000,0.001000
1024.230769,0.025376,0.001000,0.001000,0.001000,0.001000,0.001000
1024.250000,0.024204,0.001000,0.001000,0.001000,0.001000,0.001000
1024.269231,0.023014,0.001000,0.001000,0.001000,0.001000,0.001000
1024.288462,0.021807,0.001000,0.001000,0.001000,0.001000,0.001000
1024.307692,0.020584,0.001000,0.001000,0.001000,0.001000,0.001000
1024.326923,0.019346,0.001000,0.001000,0.001000,0.001000,0.001000
1024.346154,0.018094,0.001000,0.001000,0.001000,0.001000,0.001000
1024.365385,0.016829,0.001000,0.001000,0.001000,0.001000,0.001000
1024.384615,0.015551,0.001000,0.001000,0.001000,0.001000,0.001000
1024.403846,0.014263,0.001000,0.001000,0.001000,0.001000,0.001000
1024.423077,0.012964,0.001000,0.001000,0.001000,0.001000,0.001000
1024.442308,0.011655,0.001000,0.001000,0.001000,0.001000,0.001000
1024.461538,0.010338,0.001000,0.001000,0.001000,0.001000,0.001000
1024.480769,0.009013,0.001000,0.001000,0.001000,0.001000,0.001000
1024.500000,0.007682,0.001000,0.001000,0.001000,0.001000,0.001000
1024.519231,0.006345,0.001000,0.001000,0.001000,0.001000,0.001000
1024.538462,0.005004,0.001000,0.001000,0.001000,0.001000,0.001000
1024.557692,0.003659,0.001000,0.001000,0.001000,0.001000,0.001000
1024.576923,0.002311,0.001000,0.001000,0.001000,0.001000,0.001000
1024.596154,0.000961,0.001000,0.001000,0.001000,0.001000,0.001000
1024.615385,-0.000389,0.001000,0.001000,0.001000,0.001000,0.001000
1024.634615,-0.001739,0.001000,0.001000,0.001000,0.001000,0.001000
1024.653846,-0.003087,0.001000,0.001000,0.001000,0.001000,0.001000
1024.673077,-0.004433,0.001000,0.001000,0.001000,0.001000,0.001000
1024.692308,-0.005777,0.001000,0.001000,0.001000,0.001000,0.001000
1024.711538,-0.007115,0.001000,0.001000,0.001000,0.001000,0.001000
1024.730769,-0.008449,0.001000,0.001000,0.001000,0.001000,0.001000
1024.750000,-0.009777,0.001000,0.001000,0.001000,0.001000,0.001000
1024.769231,-0.011097,0.001000,0.001000,0.001000,0.001000,0.001000
1024.788462,-0.012409,0.001000,0.001000,0.001000,0.001000,0.001000
1024.807692,-0.013713,0.001000,0.001000,0.001000,0.001000,0.001000
1024.826923,-0.015006,0.001000,0.001000,0.001000,0.001000,0.001000
1024.846154,-0.016288,0.001000,0.001000,0.001000,0.001000,0.001000
1024.865385,-0.017559,0.001000,0.001000,0.001000,0.001000,0.001000
1024.884615,-0.018816,0.001000,0.001000,0.001000,0.001000,0.001000
1024.903846,-0.020060,0.001000,0.001000,0.001000,0.001000,0.001000
1024.923077,-0.021290,0.001000,0.001000,0.001000,0.001000,0.001000
1024.942308,-0.022504,0.001000,0.001000,0.001000,0.001000,0.001000
1024.961538,-0.023701,0.001000,0.001000,0.001000,0.001000,0.001000
1024.980769,-0.024881,0.001000,0.001000,0.001000,0.001000,0.001000
1025.000000,-0.026043,0.001000,0.001000,0.001000,0.001000,0.001000
1025.019231,-0.027186,0.001000,0.001000,0.001000,0.001000,0.001000
1025.038462,-0.028309,0.001000,0.001000,0.001000,0.001000,0.001000
1025.057692,-0.029412,0.001000,0.001000,0.001000,0.001000,0.001000
1025.076923,-0.030493,0.001000,0.001000,0.001000,0.001000,0.001000
1025.096154,-0.031551,0.001000,0.001000,0.001000,0.001000,0.001000
1025.115385,-0.032587,0.001000,0.001000,0.001000,0.001000,0.001000
1025.134615,-0.033599,0.001000,0.001000,0.001000,0.001000,0.001000
1025.153846,-0.034587,0.001000,0.001000,0.001000,0.001000,0.001000
1025.173077,-0.035549,0.001000,0.001000,0.001000,0.001000,0.001000
1025.192308,-0.036485,0.001000,0.001000,0.001000,0.001000,0.001000
1025.211538,-0.037395,0.001000,0.001000,0.001000,0.001000,0.001000
1025.230769,-0.038278,0.001000,0.001000,0.001000,0.001000,0.001000
1025.250000,-0.039132,0.001000,0.001000,0.001000,0.001000,0.001000
1025.269231,-0.039959,0.001000,0.001000,0.001000,0.001000,0.001000
1025.288462,-0.040755,0.001000,0.001000,0.001000,0.001000,0.001000
1025.307692,-0.041523,0.001000,0.001000,0.001000,0.001000,0.001000
1025.326923,-0.042260,0.001000,0.001000,0.001000,0.001000,0.001000
1025.346154,-0.042966,0.001000,0.001000,0.001000,0.001000,0.001000
1025.365385,-0.043641,0.001000,0.001000,0.001000,0.001000,0.001000
1025.384615,-0.044284,0.001000,0.001000,0.001000,0.001000,0.001000
1025.403846,-0.044894,0.001000,0.001000,0.001000,0.001000,0.001000
1025.423077,-0.045472,0.001000,0.001000,0.001000,0.001000,0.001000
1025.442308,-0.046017,0.001000,0.001000,0.001000,0.001000,0.001000
1025.461538,-0.046528,0.001000,0.001000,0.001000,0.001000,0.001000
1025.480769,-0.047006,0.001000,0.001000,0.001000,0.001000,0.001000
1025.500000,-0.047449,0.001000,0.001000,0.001000,0.001000,0.001000
1025.519231,-0.047857,0.001000,0.001000,0.001000,0.001000,0.001000
1025.538462,-0.048231,0.001000,0.001000,0.001000,0.001000,0.001000
1025.557692,-0.048569,0.001000,0.001000,0.001000,0.001000,0.001000
1025.576923,-0.048872,0.001000,0.001000,0.001000,0.001000,0.001000
1025.596154,-0.049139,0.001000,0.001000,0.001000,0.001000,0.001000
1025.615385,-0.049371,0.001000,0.001000,0.001000,0.001000,0.001000
1025.634615,-0.049566,0.001000,0.001000,0.001000,0.001000,0.001000
1025.653846,-0.049726,0.001000,0.001000,0.001000,0.001000,0.001000
1025.673077,-0.049849,0.001000,0.001000,0.001000,0.001000,0.001000
1025.692308,-0.049936,0.001000,0.001000,0.001000,0.001000,0.001000
1025.711538,-0.049986,0.001000,0.001000,0.001000,0.001000,0.001000
1025.730769,-0.050000,0.001000,0.001000,0.001000,0.001000,0.001000
1025.750000,-0.049977,0.001000,0.001000,0.001000,0.001000,0.001000
1025.769231,-0.049918,0.001000,0.001000,0.001000,0.001000,0.001000
1025.788462,-0.049823,0.001000,0.001000,0.001000,0.001000,0.001000
1025.807692,-0.049691,0.001000,0.001000,0.001000,0.001000,0.001000
1025.826923,-0.049523,0.001000,0.001000,0.001000,0.001000,0.001000
1025.846154,-0.049319,0.001000,0.001000,0.001000,0.001000,0.001000
1025.865385,-0.049079,0.001000,0.001000,0.001000,0.001000,0.001000
1025.884615,-0.048803,0.001000,0.001000,0.001000,0.001000,0.001000
1025.903846,-0.048492,0.001000,0.001000,0.001000,0.001000,0.001000
1025.923077,-0.048145,0.001000,0.001000,0.001000,0.001000,0.001000
1025.942308,-0.047763,0.001000,0.001000,0.001000,0.001000,0.001000
1025.961538,-0.047346,0.001000,0.001000,0.001000,0.001000,0.001000
1025.980769,-0.046895,0.001000,0.001000,0.001000,0.001000,0.001000
1026.000000,-0.046410,0.001000,0.001000,0.001000,0.001000,0.001000
1026.019231,-0.045890,0.001000,0.001000,0.001000,0.001000,0.001000
1026.038462,-0.045338,0.001000,0.001000,0.001000,0.001000,0.001000
1026.057692,-0.044752,0.001000,0.001000,0.001000,0.001000,0.001000
1026.076923,-0.044133,0.001000,0.001000,0.001000,0.001000,0.001000
1026.096154,-0.043483,0.001000,0.001000,0.001000,0.001000,0.001000
1026.115385,-0.042800,0.001000,0.001000,0.001000,0.001000,0.001000
1026.134615,-0.042087,0.001000,0.001000,0.001000,0.001000,0.001000
1026.153846,-0.041343,0.001000,0.001000,0.001000,0.001000,0.001000
1026.173077,-0.040568,0.001000,0.001000,0.001000,0.001000,0.001000
1026.192308,-0.039764,0.001000,0.001000,0.001000,0.001000,0.001000
1026.211538,-0.038931,0.001000,0.001000,0.001000,0.001000,0.001000
1026.230769,-0.038070,0.001000,0.001000,0.001000,0.001000,0.001000
1026.250000,-0.037181,0.001000,0.001000,0.001000,0.001000,0.001000
1026.269231,-0.036265,0.001000,0.001000,0.001000,0.001000,0.001000
1026.288462,-0.035322,0.001000,0.001000,0.001000,0.001000,0.001000
1026.307692,-0.034354,0.001000,0.001000,0.001000,0.001000,0.001000
1026.326923,-0.033360,0.001000,0.001000,0.001000,0.001000,0.001000
1026.346154,-0.032343,0.001000,0.001000,0.001000,0.001000,0.001000
1026.365385,-0.031301,0.001000,0.001000,0.001000,0.001000,0.001000
1026.384615,-0.030237,0.001000,0.001000,0.001000,0.001000,0.001000
1026.403846,-0.029151,0.001000,0.001000,0.001000,0.001000,0.001000
1026.423077,-0.028043,0.001000,0.001000,0.001000,0.001000,0.001000
1026.442308,-0.026915,0.001000,0.001000,0.001000,0.001000,0.001000
1026.461538,-0.025768,0.001000,0.001000,0.001000,0.001000,0.001000
1026.480769,-0.024601,0.001000,0.001000,0.001000,0.001000,0.001000
1026.500000,-0.023417,0.001000,0.001000,0.001000,0.001000,0.001000
1026.519231,-0.022216,0.001000,0.001000,0.001000,0.001000,0.001000
1026.538462,-0.020998,0.001000,0.001000,0.001000,0.001000,0.001000
1026.557692,-0.019765,0.001000,0.001000,0.001000,0.001000,0.001000
1026.576923,-0.018518,0.001000,0.001000,0.001000,0.001000,0.001000
1026.596154,-0.017257,0.001000,0.001000,0.001000,0.001000,0.001000
1026.615385,-0.015984,0.001000,0.001000,0.001000,0.001000,0.001000
1026.634615,-0.014699,0.001000,0.001000,0.001000,0.001000,0.001000
1026.653846,-0.013403,0.001000,0.001000,0.001000,0.001000,0.001000
1026.673077,-0.012098,0.001000,0.001000,0.001000,0.001000,0.001000
1026.692308,-0.010783,0.001000,0.001000,0.001000,0.001000,0.001000
1026.711538,-0.009461,0.001000,0.001000,0.001000,0.001000,0.001000
1026.730769,-0.008132,0.001000,0.001000,0.001000,0.001000,0.001000
1026.750000,-0.006797,0.001000,0.001000,0.001000,0.001000,0.001000
1026.769231,-0.005457,0.001000,0.001000,0.001000,0.001000,0.001000
1026.788462,-0.004113,0.001000,0.001000,0.001000,0.001000,0.001000
1026.807692,-0.002766,0.001000,0.001000,0.001000,0.001000,0.001000
1026.826923,-0.001417,0.001000,0.001000,0.001000,0.001000,0.001000
1026.846154,-0.000067,0.001000,0.001000,0.001000,0.001000,0.001000
1026.865385,0.001283,0.001000,0.001000,0.001000,0.001000,0.001000
1026.884615,0.002632,0.001000,0.001000,0.001000,0.001000,0.001000
1026.903846,0.003979,0.001000,0.001000,0.001000,0.001000,0.001000
1026.923077,0.005324,0.001000,0.001000,0.001000,0.001000,0.001000
1026.942308,0.006664,0.001000,0.001000,0.001000,0.001000,0.001000
1026.961538,0.008000,0.001000,0.001000,0.001000,0.001000,0.001000
1026.980769,0.009329,0.001000,0.001000,0.001000,0.001000,0.001000
1027.000000,0.010652,0.001000,0.001000,0.001000,0.001000,0.001000
1027.019231,0.011968,0.001000,0.001000,0.001000,0.001000,0.001000
1027.038462,0.013274,0.001000,0.001000,0.001000,0.001000,0.001000
1027.057692,0.014571,0.001000,0.001000,0.001000,0.001000,0.001000
1027.076923,0.015857,0.001000,0.001000,0.001000,0.001000,0.001000
1027.096154,0.017131,0.001000,0.001000,0.001000,0.001000,0.001000
1027.115385,0.018394,0.001000,0.001000,0.001000,0.001000,0.001000
1027.134615,0.019642,0.001000,0.001000,0.001000,0.001000,0.001000
1027.153846,0.020877,0.001000,0.001000,0.001000,0.001000,0.001000
1027.173077,0.022096,0.001000,0.001000,0.001000,0.001000,0.001000
1027.192308,0.023299,0.001000,0.001000,0.001000,0.001000,0.001000
1027.211538,0.024485,0.001000,0.001000,0.001000,0.001000,0.001000
1027.230769,0.025653,0.001000,0.001000,0.001000,0.001000,0.001000
1027.250000,0.026802,0.001000,0.001000,0.001000,0.001000,0.001000
1027.269231,0.027932,0.001000,0.001000,0.001000,0.001000,0.001000
1027.288462,0.029042,0.001000,0.001000,0.001000,0.001000,0.001000
1027.307692,0.030130,0.001000,0.001000,0.001000,0.001000,0.001000
1027.326923,0.031197,0.001000,0.001000,0.001000,0.001000,0.001000
1027.346154,0.032240,0.001000,0.001000,0.001000,0.001000,0.001000
1027.365385,0.033260,0.001000,0.001000,0.001000,0.001000,0.001000
1027.384615,0.034256,0.001000,0.001000,0.001000,0.001000,0.001000
1027.403846,0.035227,0.001000,0.001000,0.001000,0.001000,0.001000
1027.423077,0.036172,0.001000,0.001000,0.001000,0.001000,0.001000
1027.442308,0.037091,0.001000,0.001000,0.001000,0.001000,0.001000
1027.461538,0.037983,0.001000,0.001000,0.001000,0.001000,0.001000
1027.480769,0.038847,0.001000,0.001000,0.001000,0.001000,0.001000
1027.500000,0.039683,0.001000,0.001000,0.001000,0.001000,0.001000
1027.519231,0.040490,0.001000,0.001000,0.001000,0.001000,0.001000
1027.538462,0.041267,0.001000,0.001000,0.001000,0.001000,0.001000
1027.557692,0.042014,0.001000,0.001000,0.001000,0.001000,0.001000
1027.576923,0.042731,0.001000,0.001000,0.001000,0.001000,0.001000
1027.596154,0.043416,0.001000,0.001000,0.001000,0.001000,0.001000
1027.615385,0.044070,0.001000,0.001000,0.001000,0.001000,0.001000
1027.634615,0.044692,0.001000,0.001000,0.001000,0.001000,0.001000
1027.653846,0.045281,0.001000,0.001000,0.001000,0.001000,0.001000
1027.673077,0.045837,0.001000,0.001000,0.001000,0.001000,0.001000
1027.692308,0.046360,0.001000,0.001000,0.001000,0.001000,0.001000
1027.711538,0.046848,0.001000,0.001000,0.001000,0.001000,0.001000
1027.730769,0.047303,0.001000,0.001000,0.001000,0.001000,0.001000
1027.750000,0.047723,0.001000,0.001000,0.001000,0.001000,0.001000
1027.769231,0.048109,0.001000,0.001000,0.001000,0.001000,0.001000
1027.788462,0.048459,0.001000,0.001000,0.001000,0.001000,0.001000
1027.807692,0.048774,0.001000,0.001000,0.001000,0.001000,0.001000
1027.826923,0.049053,0.001000,0.001000,0.001000,0.001000,0.001000
1027.846154,0.049297,0.001000,0.001000,0.001000,0.001000,0.001000
1027.865385,0.049504,0.001000,0.001000,0.001000,0.001000,0.001000
1027.884615,0.049676,0.001000,0.001000,0.001000,0.001000,0.001000
1027.903846,0.049811,0.001000,0.001000,0.001000,0.001000,0.001000
1027.923077,0.049910,0.001000,0.001000,0.001000,0.001000,0.001000
1027.942308,0.049973,0.001000,0.001000,0.001000,0.001000,0.001000
1027.961538,0.049999,0.001000,0.001000,0.001000,0.001000,0.001000
1027.980769,0.049989,0.001000,0.001000,0.001000,0.001000,0.001000
1028.000000,0.049942,0.001000,0.001000,0.001000,0.001000,0.001000
1028.019231,0.049859,0.001000,0.001000,0.001000,0.001000,0.001000
1028.038462,0.049740,0.001000,0.001000,0.001000,0.001000,0.001000
1028.057692,0.049584,0.001000,0.001000,0.001000,0.001000,0.001000
1028.076923,0.049392,0.001000,0.001000,0.001000,0.001000,0.001000
1028.096154,0.049164,0.001000,0.001000,0.001000,0.001000,0.001000
1028.115385,0.048900,0.001000,0.001000,0.001000,0.001000,0.001000
1028.134615,0.048601,0.001000,0.001000,0.001000,0.001000,0.001000
1028.153846,0.048266,0.001000,0.001000,0.001000,0.001000,0.001000
1028.173077,0.047896,0.001000,0.001000,0.001000,0.001000,0.001000
1028.192308,0.047491,0.001000,0.001000,0.001000,0.001000,0.001000
1028.211538,0.047051,0.001000,0.001000,0.001000,0.001000,0.001000
1028.230769,0.046577,0.001000,0.001000,0.001000,0.001000,0.001000
1028.250000,0.046069,0.001000,0.001000,0.001000,0.001000,0.001000
1028.269231,0.045528,0.001000,0.001000,0.001000,0.001000,0.001000
1028.288462,0.044953,0.001000,0.001000,0.001000,0.001000,0.001000
1028.307692,0.044346,0.001000,0.001000,0.001000,0.001000,0.001000
1028.326923,0.043706,0.001000,0.001000,0.001000,0.001000,0.001000
1028.346154,0.043034,0.001000,0.001000,0.001000,0.001000,0.001000
1028.365385,0.042331,0.001000,0.001000,0.001000,0.001000,0.001000
1028.384615,0.041597,0.001000,0.001000,0.001000,0.001000,0.001000
1028.403846,0.040833,0.001000,0.001000,0.001000,0.001000,0.001000
1028.423077,0.040039,0.001000,0.001000,0.001000,0.001000,0.001000
1028.442308,0.039216,0.001000,0.001000,0.001000,0.001000,0.001000
1028.461538,0.038364,0.001000,0.001000,0.001000,0.001000,0.001000
1028.480769,0.037484,0.001000,0.001000,0.001000,0.001000,0.001000
1028.500000,0.036577,0.001000,0.001000,0.001000,0.001000,0.001000
1028.519231,0.035643,0.001000,0.001000,0.001000,0.001000,0.001000
1028.538462,0.034683,0.001000,0.001000,0.001000,0.001000,0.001000
1028.557692,0.033698,0.001000,0.001000,0.001000,0.001000,0.001000
1028.576923,0.032689,0.001000,0.001000,0.001000,0.001000,0.001000
1028.596154,0.031655,0.001000,0.001000,0.001000,0.001000,0.001000
1028.615385,0.030599,0.001000,0.001000,0.001000,0.001000,0.001000
1028.634615,0.029520,0.001000,0.001000,0.001000,0.001000,0.001000
1028.653846,0.028419,0.001000,0.001000,0.001000,0.001000,0.001000
1028.673077,0.027298,0.001000,0.001000,0.001000,0.001000,0.001000
1028.692308,0.026157,0.001000,0.001000,0.001000,0.001000,0.001000
1028.711538,0.024997,0.001000,0.001000,0.001000,0.001000,0.001000
1028.730769,0.023819,0.001000,0.001000,0.001000,0.001000,0.001000
1028.750000,0.022623,0.001000,0.001000,0.001000,0.001000,0.001000
1028.769231,0.021411,0.001000,0.001000,0.001000,0.001000,0.001000
1028.788462,0.020183,0.001000,0.001000,0.001000,0.001000,0.001000
1028.807692,0.018941,0.001000,0.001000,0.001000,0.001000,0.001000
1028.826923,0.017684,0.001000,0.001000,0.001000,0.001000,0.001000
1028.846154,0.016415,0.001000,0.001000,0.001000,0.001000,0.001000
1028.865385,0.015134,0.001000,0.001000,0.001000,0.001000,0.001000
1028.884615,0.013842,0.001000,0.001000,0.001000,0.001000,0.001000
1028.903846,0.012539,0.001000,0.001000,0.001000,0.001000,0.001000
1028.923077,0.011228,0.001000,0.001000,0.001000,0.001000,0.001000
1028.942308,0.009908,0.001000,0.001000,0.001000,0.001000,0.001000
1028.961538,0.008581,0.001000,0.001000,0.001000,0.001000,0.001000
1028.980769,0.007248,0.001000,0.001000,0.001000,0.001000,0.001000
1029.000000,0.005910,0.001000,0.001000,0.001000,0.001000,0.001000
1029.019231,0.004567,0.001000,0.001000,0.001000,0.001000,0.001000
1029.038462,0.003221,0.001000,0.001000,0.001000,0.001000,0.001000
1029.057692,0.001872,0.001000,0.001000,0.001000,0.001000,0.001000
1029.076923,0.000523,0.001000,0.001000,0.001000,0.001000,0.001000
1029.096154,-0.000828,0.001000,0.001000,0.001000,0.001000,0.001000
1029.115385,-0.002177,0.001000,0.001000,0.001000,0.001000,0.001000
1029.134615,-0.003525,0.001000,0.001000,0.001000,0.001000,0.001000
1029.153846,-0.004870,0.001000,0.001000,0.001000,0.001000,0.001000
1029.173077,-0.006212,0.001000,0.001000,0.001000,0.001000,0.001000
1029.192308,-0.007550,0.001000,0.001000,0.001000,0.001000,0.001000
1029.211538,-0.008881,0.001000,0.001000,0.001000,0.001000,0.001000
1029.230769,-0.010207,0.001000,0.001000,0.001000,0.001000,0.001000
1029.250000,-0.011525,0.001000,0.001000,0.001000,0.001000,0.001000
1029.269231,-0.012834,0.001000,0.001000,0.001000,0.001000,0.001000
1029.288462,-0.014134,0.001000,0.001000,0.001000,0.001000,0.001000
1029.307692,-0.015424,0.001000,0.001000,0.001000,0.001000,0.001000
1029.326923,-0.016703,0.001000,0.001000,0.001000,0.001000,0.001000
1029.346154,-0.017969,0.001000,0.001000,0.001000,0.001000,0.001000
1029.365385,-0.019222,0.001000,0.001000,0.001000,0.001000,0.001000
1029.384615,-0.020462,0.001000,0.001000,0.001000,0.001000,0.001000
1029.403846,-0.021686,0.001000,0.001000,0.001000,0.001000,0.001000
1029.423077,-0.022895,0.001000,0.001000,0.001000,0.001000,0.001000
1029.442308,-0.024086,0.001000,0.001000,0.001000,0.001000,0.001000
1029.461538,-0.025261,0.001000,0.001000,0.001000,0.001000,0.001000
1029.480769,-0.026417,0.001000,0.001000,0.001000,0.001000,0.001000
1029.500000,-0.027553,0.001000,0.001000,0.001000,0.001000,0.001000
1029.519231,-0.028670,0.001000,0.001000,0.001000,0.001000,0.001000
1029.538462,-0.029765,0.001000,0.001000,0.001000,0.001000,0.001000
1029.557692,-0.030839,0.001000,0.001000,0.001000,0.001000,0.001000
1029.576923,-0.031891,0.001000,0.001000,0.001000,0.001000,0.001000
1029.596154,-0.032919,0.001000,0.001000,0.001000,0.001000,0.001000
1029.615385,-0.033923,0.001000,0.001000,0.001000,0.001000,0.001000
1029.634615,-0.034902,0.001000,0.001000,0.001000,0.001000,0.001000
1029.653846,-0.035856,0.001000,0.001000,0.001000,0.001000,0.001000
1029.673077,-0.036784,0.001000,0.001000,0.001000,0.001000,0.001000
1029.692308,-0.037685,0.001000,0.001000,0.001000,0.001000,0.001000
1029.711538,-0.038559,0.001000,0.001000,0.001000,0.001000,0.001000
1029.730769,-0.039404,0.001000,0.001000,0.001000,0.001000,0.001000
1029.750000,-0.040221,0.001000,0.001000,0.001000,0.001000,0.001000
1029.769231,-0.041008,0.001000,0.001000,0.001000,0.001000,0.001000
1029.788462,-0.041766,0.001000,0.001000,0.001000,0.001000,0.001000
1029.807692,-0.042493,0.001000,0.001000,0.001000,0.001000,0.001000
1029.826923,-0.043189,0.001000,0.001000,0.001000,0.001000,0.001000
1029.846154,-0.043853,0.001000,0.001000,0.001000,0.001000,0.001000
1029.865385,-0.044486,0.001000,0.001000,0.001000,0.001000,0.001000
1029.884615,-0.045086,0.001000,0.001000,0.001000,0.001000,0.001000
1029.903846,-0.045653,0.001000,0.001000,0.001000,0.001000,0.001000
1029.923077,-0.046187,0.001000,0.001000,0.001000,0.001000,0.001000
1029.942308,-0.046687,0.001000,0.001000,0.001000,0.001000,0.001000
1029.961538,-0.047153,0.001000,0.001000,0.001000,0.001000,0.001000
1029.980769,-0.047585,0.001000,0.001000,0.001000,0.001000,0.001000
1030.000000,0.000000,0.001000,0.001000,0.001000,0.001000,0.001000
1030.019231,0.001375,0.001000,0.001000,0.001000,0.001000,0.001000
1030.038462,0.002748,0.001000,0.001000,0.001000,0.001000,0.001000
1030.057692,0.004120,0.001000,0.001000,0.001000,0.001000,0.001000
1030.076923,0.005488,0.001000,0.001000,0.001000,0.001000,0.001000
1030.096154,0.006853,0.001000,0.001000,0.001000,0.001000,0.001000
1030.115385,0.008212,0.001000,0.001000,0.001000,0.001000,0.001000
1030.134615,0.009565,0.001000,0.001000,0.001000,0.001000,0.001000
1030.153846,0.010910,0.001000,0.001000,0.001000,0.001000,0.001000
1030.173077,0.012248,0.001000,0.001000,0.001000,0.001000,0.001000
1030.192308,0.013576,0.001000,0.001000,0.001000,0.001000,0.001000
1030.211538,0.014894,0.001000,0.001000,0.001000,0.001000,0.001000
1030.230769,0.016200,0.001000,0.001000,0.001000,0.001000,0.001000
1030.250000,0.017495,0.001000,0.001000,0.001000,0.001000,0.001000
1030.269231,0.018776,0.001000,0.001000,0.001000,0.001000,0.001000
1030.288462,0.020043,0.001000,0.001000,0.001000,0.001000,0.001000
1030.307692,0.021295,0.001000,0.001000,0.001000,0.001000,0.001000
1030.326923,0.022530,0.001000,0.001000,0.001000,0.001000,0.001000
1030.346154,0.023749,0.001000,0.001000,0.001000,0.001000,0.001000
1030.365385,0.024950,0.001000,0.001000,0.001000,0.001000,0.001000
1030.384615,0.026132,0.001000,0.001000,0.001000,0.001000,0.001000
1030.403846,0.027294,0.001000,0.001000,0.001000,0.001000,0.001000
1030.423077,0.028435,0.001000,0.001000,0.001000,0.001000,0.001000
1030.442308,0.029555,0.001000,0.001000,0.001000,0.001000,0.001000
1030.461538,0.030653,0.001000,0.001000,0.001000,0.001000,0.001000
1030.480769,0.031727,0.001000,0.001000,0.001000,0.001000,0.001000
1030.500000,0.032778,0.001000,0.001000,0.001000,0.001000,0.001000
1030.519231,0.033804,0.001000,0.001000,0.001000,0.001000,0.001000
1030.538462,0.034804,0.001000,0.001000,0.001000,0.001000,0.001000
1030.557692,0.035778,0.001000,0.001000,0.001000,0.001000,0.001000
1030.576923,0.036724,0.001000,0.001000,0.001000,0.001000,0.001000
1030.596154,0.037643,0.001000,0.001000,0.001000,0.001000,0.001000
1030.615385,0.038534,0.001000,0.001000,0.001000,0.001000,0.001000
1030.634615,0.039395,0.001000,0.001000,0.001000,0.001000,0.001000
1030.653846,0.040227,0.001000,0.001000,0.001000,0.001000,0.001000
1030.673077,0.041028,0.001000,0.001000,0.001000,0.001000,0.001000
1030.692308,0.041798,0.001000,0.001000,0.001000,0.001000,0.001000
1030.711538,0.042537,0.001000,0.001000,0.001000,0.001000,0.001000
1030.730769,0.043243,0.001000,0.001000,0.001000,0.001000,0.001000
1030.750000,0.043917,0.001000,0.001000,0.001000,0.001000,0.001000
1030.769231,0.044558,0.001000,0.001000,0.001000,0.001000,0.001000
1030.788462,0.045164,0.001000,0.001000,0.001000,0.001000,0.001000
1030.807692,0.045737,0.001000,0.001000,0.001000,0.001000,0.001000
1030.826923,0.046275,0.001000,0.001000,0.001000,0.001000,0.001000
1030.846154,0.046778,0.001000,0.001000,0.001000,0.001000,0.001000
1030.865385,0.047246,0.001000,0.001000,0.001000,0.001000,0.001000
1030.884615,0.047678,0.001000,0.001000,0.001000,0.001000,0.001000
1030.903846,0.048074,0.001000,0.001000,0.001000,0.001000,0.001000
1030.923077,0.048434,0.001000,0.001000,0.001000,0.001000,0.001000
1030.942308,0.048757,0.001000,0.001000,0.001000,0.001000,0.001000
1030.961538,0.049043,0.001000,0.001000,0.001000,0.001000,0.001000
1030.980769,0.049292,0.001000,0.001000,0.001000,0.001000,0.001000
1031.000000,0.049504,0.001000,0.001000,0.001000,0.001000,0.001000
1031.019231,0.049679,0.001000,0.001000,0.001000,0.001000,0.001000
1031.038462,0.049815,0.001000,0.001000,0.001000,0.001000,0.001000
1031.057692,0.049915,0.001000,0.001000,0.001000,0.001000,0.001000
1031.076923,0.049976,0.001000,0.001000,0.001000,0.001000,0.001000
1031.096154,0.050000,0.001000,0.001000,0.001000,0.001000,0.001000
1031.115385,0.049986,0.001000,0.001000,0.001000,0.001000,0.001000
1031.134615,0.049934,0.001000,0.001000,0.001000,0.001000,0.001000
1031.153846,0.049844,0.001000,0.001000,0.001000,0.001000,0.001000
1031.173077,0.049717,0.001000,0.001000,0.001000,0.001000,0.001000
1031.192308,0.049552,0.001000,0.001000,0.001000,0.001000,0.001000
1031.211538,0.049349,0.001000,0.001000,0.001000,0.001000,0.001000
1031.230769,0.049110,0.001000,0.001000,0.001000,0.001000,0.001000
1031.250000,0.048833,0.001000,0.001000,0.001000,0.001000,0.001000
1031.269231,0.048519,0.001000,0.001000,0.001000,0.001000,0.001000
1031.288462,0.048168,0.001000,0.001000,0.001000,0.001000,0.001000
1031.307692,0.047782,0.001000,0.001000,0.001000,0.001000,0.001000
1031.326923,0.047359,0.001000,0.001000,0.001000,0.001000,0.001000
1031.346154,0.046900,0.001000,0.001000,0.001000,0.001000,0.001000
1031.365385,0.046406,0.001000,0.001000,0.001000,0.001000,0.001000
1031.384615,0.045876,0.001000,0.001000,0.001000,0.001000,0.001000
1031.403846,0.045312,0.001000,0.001000,0.001000,0.001000,0.001000
1031.423077,0.044714,0.001000,0.001000,0.001000,0.001000,0.001000
1031.442308,0.044082,0.001000,0.001000,0.001000,0.001000,0.001000
1031.461538,0.043416,0.001000,0.001000,0.001000,0.001000,0.001000
1031.480769,0.042718,0.001000,0.001000,0.001000,0.001000,0.001000
1031.500000,0.041988,0.001000,0.001000,0.001000,0.001000,0.001000
1031.519231,0.041225,0.001000,0.001000,0.001000,0.001000,0.001000
1031.538462,0.040432,0.001000,0.001000,0.001000,0.001000,0.001000
1031.557692,0.039608,0.001000,0.001000,0.001000,0.001000,0.001000
1031.576923,0.038754,0.001000,0.001000,0.001000,0.001000,0.001000
1031.596154,0.037871,0.001000,0.001000,0.001000,0.001000,0.001000
1031.615385,0.036959,0.001000,0.001000,0.001000,0.001000,0.001000
1031.634615,0.036019,0.001000,0.001000,0.001000,0.001000,0.001000
1031.653846,0.035052,0.001000,0.001000,0.001000,0.001000,0.001000
1031.673077,0.034058,0.001000,0.001000,0.001000,0.001000,0.001000
1031.692308,0.033039,0.001000,0.001000,0.001000,0.001000,0.001000
1031.711538,0.031995,0.001000,0.001000,0.001000,0.001000,0.001000
1031.730769,0.030926,0.001000,0.001000,0.001000,0.001000,0.001000
1031.750000,0.029834,0.001000,0.001000,0.001000,0.001000,0.001000
1031.769231,0.028720,0.001000,0.001000,0.001000,0.001000,0.001000
1031.788462,0.027584,0.001000,0.001000,0.001000,0.001000,0.001000
1031.807692,0.026427,0.001000,0.001000,0.001000,0.001000,0.001000
1031.826923,0.025250,0.001000,0.001000,0.001000,0.001000,0.001000
1031.846154,0.024054,0.001000,0.001000,0.001000,0.001000,0.001000
1031.865385,0.022840,0.001000,0.001000,0.001000,0.001000,0.001000
1031.884615,0.021608,0.001000,0.001000,0.001000,0.001000,0.001000
1031.903846,0.020360,0.001000,0.001000,0.001000,0.001000,0.001000
1031.923077,0.019097,0.001000,0.001000,0.001000,0.001000,0.001000
1031.942308,0.017819,0.001000,0.001000,0.001000,0.001000,0.001000
1031.961538,0.016528,0.001000,0.001000,0.001000,0.001000,0.001000
1031.980769,0.015225,0.001000,0.001000,0.001000,0.001000,0.001000
1032.000000,0.013909,0.001000,0.001000,0.001000,0.001000,0.001000
1032.019231,0.012584,0.001000,0.001000,0.001000,0.001000,0.001000
1032.038462,0.011249,0.001000,0.001000,0.001000,0.001000,0.001000
1032.057692,0.009905,0.001000,0.001000,0.001000,0.001000,0.001000
1032.076923,0.008554,0.001000,0.001000,0.001000,0.001000,0.001000
1032.096154,0.007196,0.001000,0.001000,0.001000,0.001000,0.001000
1032.115385,0.005833,0.001000,0.001000,0.001000,0.001000,0.001000
1032.134615,0.004466,0.001000,0.001000,0.001000,0.001000,0.001000
1032.153846,0.003095,0.001000,0.001000,0.001000,0.001000,0.001000
1032.173077,0.001721,0.001000,0.001000,0.001000,0.001000,0.001000
1032.192308,0.000347,0.001000,0.001000,0.001000,0.001000,0.001000
1032.211538,-0.001028,0.001000,0.001000,0.001000,0.001000,0.001000
1032.230769,-0.002402,0.001000,0.001000,0.001000,0.001000,0.001000
1032.250000,-0.003774,0.001000,0.001000,0.001000,0.001000,0.001000
1032.269231,-0.005143,0.001000,0.001000,0.001000,0.001000,0.001000
1032.288462,-0.006509,0.001000,0.001000,0.001000,0.001000,0.001000
1032.307692,-0.007869,0.001000,0.001000,0.001000,0.001000,0.001000
1032.326923,-0.009224,0.001000,0.001000,0.001000,0.001000,0.001000
1032.346154,-0.010571,0.001000,0.001000,0.001000,0.001000,0.001000
1032.365385,-0.011911,0.001000,0.001000,0.001000,0.001000,0.001000
1032.384615,-0.013242,0.001000,0.001000,0.001000,0.001000,0.001000
1032.403846,-0.014562,0.001000,0.001000,0.001000,0.001000,0.001000
1032.423077,-0.015872,0.001000,0.001000,0.001000,0.001000,0.001000
1032.442308,-0.017169,0.001000,0.001000,0.001000,0.001000,0.001000
1032.461538,-0.018454,0.001000,0.001000,0.001000,0.001000,0.001000
1032.480769,-0.019725,0.001000,0.001000,0.001000,0.001000,0.001000
1032.500000,-0.020980,0.001000,0.001000,0.001000,0.001000,0.001000
1032.519231,-0.022220,0.001000,0.001000,0.001000,0.001000,0.001000
1032.538462,-0.023443,0.001000,0.001000,0.001000,0.001000,0.001000
1032.557692,-0.024649,0.001000,0.001000,0.001000,0.001000,0.001000
1032.576923,-0.025835,0.001000,0.001000,0.001000,0.001000,0.001000
1032.596154,-0.027003,0.001000,0.001000,0.001000,0.001000,0.001000
1032.615385,-0.028149,0.001000,0.001000,0.001000,0.001000,0.001000
1032.634615,-0.029275,0.001000,0.001000,0.001000,0.001000,0.001000
1032.653846,-0.030378,0.001000,0.001000,0.001000,0.001000,0.001000
1032.673077,-0.031459,0.001000,0.001000,0.001000,0.001000,0.001000
1032.692308,-0.032515,0.001000,0.001000,0.001000,0.001000,0.001000
1032.711538,-0.033547,0.001000,0.001000,0.001000,0.001000,0.001000
1032.730769,-0.034554,0.001000,0.001000,0.001000,0.001000,0.001000
1032.750000,-0.035534,0.001000,0.001000,0.001000,0.001000,0.001000
1032.769231,-0.036488,0.001000,0.001000,0.001000,0.001000,0.001000
1032.788462,-0.037414,0.001000,0.001000,0.001000,0.001000,0.001000
1032.807692,-0.038312,0.001000,0.001000,0.001000,0.001000,0.001000
1032.826923,-0.039181,0.001000,0.001000,0.001000,0.001000,0.001000
1032.846154,-0.040020,0.001000,0.001000,0.001000,0.001000,0.001000
1032.865385,-0.040829,0.001000,0.001000,0.001000,0.001000,0.001000
1032.884615,-0.041607,0.001000,0.001000,0.001000,0.001000,0.001000
1032.903846,-0.042354,0.001000,0.001000,0.001000,0.001000,0.001000
1032.923077,-0.043068,0.001000,0.001000,0.001000,0.001000,0.001000
1032.942308,-0.043750,0.001000,0.001000,0.001000,0.001000,0.001000
1032.961538,-0.044399,0.001000,0.001000,0.001000,0.001000,0.001000
1032.980769,-0.045015,0.001000,0.001000,0.001000,0.001000,0.001000
1033.000000,-0.045596,0.001000,0.001000,0.001000,0.001000,0.001000
1033.019231,-0.046143,0.001000,0.001000,0.001000,0.001000,0.001000
1033.038462,-0.046655,0.001000,0.001000,0.001000,0.001000,0.001000
1033.057692,-0.047132,0.001000,0.001000,0.001000,0.001000,0.001000
1033.076923,-0.047573,0.001000,0.001000,0.001000,0.001000,0.001000
1033.096154,-0.047978,0.001000,0.001000,0.001000,0.001000,0.001000
1033.115385,-0.048347,0.001000,0.001000,0.001000,0.001000,0.001000
1033.134615,-0.048679,0.001000,0.001000,0.001000,0.001000,0.001000
1033.153846,-0.048974,0.001000,0.001000,0.001000,0.001000,0.001000
1033.173077,-0.049233,0.001000,0.001000,0.001000,0.001000,0.001000
1033.192308,-0.049454,0.001000,0.001000,0.001000,0.001000,0.001000
1033.211538,-0.049638,0.001000,0.001000,0.001000,0.001000,0.001000
1033.230769,-0.049784,0.001000,0.001000,0.001000,0.001000,0.001000
1033.250000,-0.049893,0.001000,0.001000,0.001000,0.001000,0.001000
1033.269231,-0.049964,0.001000,0.001000,0.001000,0.001000,0.001000
1033.288462,-0.049997,0.001000,0.001000,0.001000,0.001000,0.001000
1033.307692,-0.049993,0.001000,0.001000,0.001000,0.001000,0.001000
1033.326923,-0.049950,0.001000,0.001000,0.001000,0.001000,0.001000
1033.346154,-0.049870,0.001000,0.001000,0.001000,0.001000,0.001000
1033.365385,-0.049752,0.001000,0.001000,0.001000,0.001000,0.001000
1033.384615,-0.049597,0.001000,0.001000,0.001000,0.001000,0.001000
1033.403846,-0.049404,0.001000,0.001000,0.001000,0.001000,0.001000
1033.423077,-0.049174,0.001000,0.001000,0.001000,0.001000,0.001000
1033.442308,-0.048906,0.001000,0.001000,0.001000,0.001000,0.001000
1033.461538,-0.048602,0.001000,0.001000,0.001000,0.001000,0.001000
1033.480769,-0.048260,0.001000,0.001000,0.001000,0.001000,0.001000
1033.500000,-0.047883,0.001000,0.001000,0.001000,0.001000,0.001000
1033.519231,-0.047469,0.001000,0.001000,0.001000,0.001000,0.001000
1033.538462,-0.047019,0.001000,0.001000,0.001000,0.001000,0.001000
1033.557692,-0.046534,0.001000,0.001000,0.001000,0.001000,0.001000
1033.576923,-0.046013,0.001000,0.001000,0.001000,0.001000,0.001000
1033.596154,-0.045458,0.001000,0.001000,0.001000,0.001000,0.001000
1033.615385,-0.044868,0.001000,0.001000,0.001000,0.001000,0.001000
1033.634615,-0.044245,0.001000,0.001000,0.001000,0.001000,0.001000
1033.653846,-0.043587,0.001000,0.001000,0.001000,0.001000,0.001000
1033.673077,-0.042897,0.001000,0.001000,0.001000,0.001000,0.001000
1033.692308,-0.042175,0.001000,0.001000,0.001000,0.001000,0.001000
1033.711538,-0.041421,0.001000,0.001000,0.001000,0.001000,0.001000
1033.730769,-0.040635,0.001000,0.001000,0.001000,0.001000,0.001000
1033.750000,-0.039819,0.001000,0.001000,0.001000,0.001000,0.001000
1033.769231,-0.038972,0.001000,0.001000,0.001000,0.001000,0.001000
1033.788462,-0.038096,0.001000,0.001000,0.001000,0.001000,0.001000
1033.807692,-0.037192,0.001000,0.001000,0.001000,0.001000,0.001000
1033.826923,-0.036259,0.001000,0.001000,0.001000,0.001000,0.001000
1033.846154,-0.035299,0.001000,0.001000,0.001000,0.001000,0.001000
1033.865385,-0.034312,0.001000,0.001000,0.001000,0.001000,0.001000
1033.884615,-0.033299,0.001000,0.001000,0.001000,0.001000,0.001000
1033.903846,-0.032261,0.001000,0.001000,0.001000,0.001000,0.001000
1033.923077,-0.031198,0.001000,0.001000,0.001000,0.001000,0.001000
1033.942308,-0.030112,0.001000,0.001000,0.001000,0.001000,0.001000
1033.961538,-0.029003,0.001000,0.001000,0.001000,0.001000,0.001000
1033.980769,-0.027873,0.001000,0.001000,0.001000,0.001000,0.001000
1034.000000,-0.026721,0.001000,0.001000,0.001000,0.001000,0.001000
1034.019231,-0.025549,0.001000,0.001000,0.001000,0.001000,0.001000
1034.038462,-0.024357,0.001000,0.001000,0.001000,0.001000,0.001000
1034.057692,-0.023148,0.001000,0.001000,0.001000,0.001000,0.001000
1034.076923,-0.021920,0.001000,0.001000,0.001000,0.001000,0.001000
1034.096154,-0.020677,0.001000,0.001000,0.001000,0.001000,0.001000
1034.115385,-0.019417,0.001000,0.001000,0.001000,0.001000,0.001000
1034.134615,-0.018143,0.001000,0.001000,0.001000,0.001000,0.001000
1034.153846,-0.016855,0.001000,0.001000,0.001000,0.001000,0.001000
1034.173077,-0.015555,0.001000,0.001000,0.001000,0.001000,0.001000
1034.192308,-0.014242,0.001000,0.001000,0.001000,0.001000,0.001000
1034.211538,-0.012919,0.001000,0.001000,0.001000,0.001000,0.001000
1034.230769,-0.011586,0.001000,0.001000,0.001000,0.001000,0.001000
1034.250000,-0.010245,0.001000,0.001000,0.001000,0.001000,0.001000
1034.269231,-0.008895,0.001000,0.001000,0.001000,0.001000,0.001000
1034.288462,-0.007539,0.001000,0.001000,0.001000,0.001000,0.001000
1034.307692,-0.006177,0.001000,0.001000,0.001000,0.001000,0.001000
1034.326923,-0.004811,0.001000,0.001000,0.001000,0.001000,0.001000
1034.346154,-0.003441,0.001000,0.001000,0.001000,0.001000,0.001000
1034.365385,-0.002068,0.001000,0.001000,0.001000,0.001000,0.001000
1034.384615,-0.000694,0.001000,0.001000,0.001000,0.001000,0.001000
1034.403846,0.000681,0.001000,0.001000,0.001000,0.001000,0.001000
1034.423077,0.002055,0.001000,0.001000,0.001000,0.001000,0.001000
1034.442308,0.003428,0.001000,0.001000,0.001000,0.001000,0.001000
1034.461538,0.004798,0.001000,0.001000,0.001000,0.001000,0.001000
1034.480769,0.006165,0.001000,0.001000,0.001000,0.001000,0.001000
1034.500000,0.007527,0.001000,0.001000,0.001000,0.001000,0.001000
1034.519231,0.008883,0.001000,0.001000,0.001000,0.001000,0.001000
1034.538462,0.010232,0.001000,0.001000,0.001000,0.001000,0.001000
1034.557692,0.011574,0.001000,0.001000,0.001000,0.001000,0.001000
1034.576923,0.012907,0.001000,0.001000,0.001000,0.001000,0.001000
1034.596154,0.014230,0.001000,0.001000,0.001000,0.001000,0.001000
1034.615385,0.015542,0.001000,0.001000,0.001000,0.001000,0.001000
1034.634615,0.016843,0.001000,0.001000,0.001000,0.001000,0.001000
1034.653846,0.018131,0.001000,0.001000,0.001000,0.001000,0.001000
1034.673077,0.019405,0.001000,0.001000,0.001000,0.001000,0.001000
