timestamp,ax,ay,az,gx,gy,gz
1000.000000,0.000000,0.001000,0.001000,0.001000,0.001000,0.001000
1000.019231,0.001024,0.001000,0.001000,0.001000,0.001000,0.001000
1000.038462,0.002047,0.001000,0.001000,0.001000,0.001000,0.001000
1000.057692,0.003070,0.001000,0.001000,0.001000,0.001000,0.001000
1000.076923,0.004091,0.001000,0.001000,0.001000,0.001000,0.001000
1000.096154,0.005111,0.001000,0.001000,0.001000,0.001000,0.001000
1000.115385,0.006129,0.001000,0.001000,0.001000,0.001000,0.001000
1000.134615,0.007143,0.001000,0.001000,0.001000,0.001000,0.001000
1000.153846,0.008155,0.001000,0.001000,0.001000,0.001000,0.001000
1000.173077,0.009164,0.001000,0.001000,0.001000,0.001000,0.001000
1000.192308,0.010169,0.001000,0.001000,0.001000,0.001000,0.001000
1000.211538,0.011169,0.001000,0.001000,0.001000,0.001000,0.001000
1000.230769,0.012165,0.001000,0.001000,0.001000,0.001000,0.001000
1000.250000,0.013155,0.001000,0.001000,0.001000,0.001000,0.001000
1000.269231,0.014140,0.001000,0.001000,0.001000,0.001000,0.001000
1000.288462,0.015120,0.001000,0.001000,0.001000,0.001000,0.001000
1000.307692,0.016092,0.001000,0.001000,0.001000,0.001000,0.001000
1000.326923,0.017058,0.001000,0.001000,0.001000,0.001000,0.001000
1000.346154,0.018017,0.001000,0.001000,0.001000,0.001000,0.001000
1000.365385,0.018969,0.001000,0.001000,0.001000,0.001000,0.001000
1000.384615,0.019912,0.001000,0.001000,0.001000,0.001000,0.001000
1000.403846,0.020847,0.001000,0.001000,0.001000,0.001000,0.001000
1000.423077,0.021774,0.001000,0.001000,0.001000,0.001000,0.001000
1000.442308,0.022691,0.001000,0.001000,0.001000,0.001000,0.001000
1000.461538,0.023598,0.001000,0.001000,0.001000,0.001000,0.001000
1000.480769,0.024496,0.001000,0.001000,0.001000,0.001000,0.001000
1000.500000,0.025384,0.001000,0.001000,0.001000,0.001000,0.001000
1000.519231,0.026260,0.001000,0.001000,0.001000,0.001000,0.001000
1000.538462,0.027126,0.001000,0.001000,0.001000,0.001000,0.001000
1000.557692,0.027981,0.001000,0.001000,0.001000,0.001000,0.001000
1000.576923,0.028823,0.001000,0.001000,0.001000,0.001000,0.001000
1000.596154,0.029654,0.001000,0.001000,0.001000,0.001000,0.001000
1000.615385,0.030472,0.001000,0.001000,0.001000,0.001000,0.001000
1000.634615,0.031278,0.001000,0.001000,0.001000,0.001000,0.001000
1000.653846,0.032070,0.001000,0.001000,0.001000,0.001000,0.001000
1000.673077,0.032849,0.001000,0.001000,0.001000,0.001000,0.001000
1000.692308,0.033614,0.001000,0.001000,0.001000,0.001000,0.001000
1000.711538,0.034365,0.001000,0.001000,0.001000,0.001000,0.001000
1000.730769,0.035101,0.001000,0.001000,0.001000,0.001000,0.001000
1000.750000,0.035823,0.001000,0.001000,0.001000,0.001000,0.001000
1000.769231,0.036530,0.001000,0.001000,0.001000,0.001000,0.001000
1000.788462,0.037222,0.001000,0.001000,0.001000,0.001000,0.001000
1000.807692,0.037897,0.001000,0.001000,0.001000,0.001000,0.001000
1000.826923,0.038557,0.001000,0.001000,0.001000,0.001000,0.001000
1000.846154,0.039201,0.001000,0.001000,0.001000,0.001000,0.001000
1000.865385,0.039829,0.001000,0.001000,0.001000,0.001000,0.001000
1000.884615,0.040439,0.001000,0.001000,0.001000,0.001000,0.001000
1000.903846,0.041033,0.001000,0.001000,0.001000,0.001000,0.001000
1000.923077,0.041609,0.001000,0.001000,0.001000,0.001000,0.001000
1000.942308,0.042168,0.001000,0.001000,0.001000,0.001000,0.001000
1000.961538,0.042710,0.001000,0.001000,0.001000,0.001000,0.001000
1000.980769,0.043233,0.001000,0.001000,0.001000,0.001000,0.001000
1001.000000,0.043739,0.001000,0.001000,0.001000,0.001000,0.001000
1001.019231,0.044225,0.001000,0.001000,0.001000,0.001000,0.001000
1001.038462,0.044694,0.001000,0.001000,0.001000,0.001000,0.001000
1001.057692,0.045144,0.001000,0.001000,0.001000,0.001000,0.001000
1001.076923,0.045574,0.001000,0.001000,0.001000,0.001000,0.001000
1001.096154,0.045986,0.001000,0.001000,0.001000,0.001000,0.001000
1001.115385,0.046378,0.001000,0.001000,0.001000,0.001000,0.001000
1001.134615,0.046751,0.001000,0.001000,0.001000,0.001000,0.001000
1001.153846,0.047104,0.001000,0.001000,0.001000,0.001000,0.001000
1001.173077,0.047438,0.001000,0.001000,0.001000,0.001000,0.001000
1001.192308,0.047752,0.001000,0.001000,0.001000,0.001000,0.001000
1001.211538,0.048045,0.001000,0.001000,0.001000,0.001000,0.001000
1001.230769,0.048319,0.001000,0.001000,0.001000,0.001000,0.001000
1001.250000,0.048572,0.001000,0.001000,0.001000,0.001000,0.001000
1001.269231,0.048805,0.001000,0.001000,0.001000,0.001000,0.001000
1001.288462,0.049017,0.001000,0.001000,0.001000,0.001000,0.001000
1001.307692,0.049209,0.001000,0.001000,0.001000,0.001000,0.001000
1001.326923,0.049380,0.001000,0.001000,0.001000,0.001000,0.001000
1001.346154,0.049530,0.001000,0.001000,0.001000,0.001000,0.001000
1001.365385,0.049660,0.001000,0.001000,0.001000,0.001000,0.001000
1001.384615,0.049769,0.001000,0.001000,0.001000,0.001000,0.001000
1001.403846,0.049857,0.001000,0.001000,0.001000,0.001000,0.001000
1001.423077,0.049924,0.001000,0.001000,0.001000,0.001000,0.001000
1001.442308,0.049970,0.001000,0.001000,0.001000,0.001000,0.001000
1001.461538,0.049995,0.001000,0.001000,0.001000,0.001000,0.001000
1001.480769,0.049999,0.001000,0.001000,0.001000,0.001000,0.001000
1001.500000,0.049982,0.001000,0.001000,0.001000,0.001000,0.001000
1001.519231,0.049944,0.001000,0.001000,0.001000,0.001000,0.001000
1001.538462,0.049886,0.001000,0.001000,0.001000,0.001000,0.001000
1001.557692,0.049806,0.001000,0.001000,0.001000,0.001000,0.001000
1001.576923,0.049706,0.001000,0.001000,0.001000,0.001000,0.001000
1001.596154,0.049584,0.001000,0.001000,0.001000,0.001000,0.001000
1001.615385,0.049442,0.001000,0.001000,0.001000,0.001000,0.001000
1001.634615,0.049279,0.001000,0.001000,0.001000,0.001000,0.001000
1001.653846,0.049096,0.001000,0.001000,0.001000,0.001000,0.001000
1001.673077,0.048891,0.001000,0.001000,0.001000,0.001000,0.001000
1001.692308,0.048667,0.001000,0.001000,0.001000,0.001000,0.001000
1001.711538,0.048422,0.001000,0.001000,0.001000,0.001000,0.001000
1001.730769,0.048156,0.001000,0.001000,0.001000,0.001000,0.001000
1001.750000,0.047871,0.001000,0.001000,0.001000,0.001000,0.001000
1001.769231,0.047565,0.001000,0.001000,0.001000,0.001000,0.001000
1001.788462,0.047239,0.001000,0.001000,0.001000,0.001000,0.001000
1001.807692,0.046894,0.001000,0.001000,0.001000,0.001000,0.001000
1001.826923,0.046529,0.001000,0.001000,0.001000,0.001000,0.001000
1001.846154,0.046144,0.001000,0.001000,0.001000,0.001000,0.001000
1001.865385,0.045740,0.001000,0.001000,0.001000,0.001000,0.001000
1001.884615,0.045317,0.001000,0.001000,0.001000,0.001000,0.001000
1001.903846,0.044875,0.001000,0.001000,0.001000,0.001000,0.001000
1001.923077,0.044414,0.001000,0.001000,0.001000,0.001000,0.001000
1001.942308,0.043934,0.001000,0.001000,0.001000,0.001000,0.001000
1001.961538,0.043436,0.001000,0.001000,0.001000,0.001000,0.001000
1001.980769,0.042920,0.001000,0.001000,0.001000,0.001000,0.001000
1002.000000,0.042386,0.001000,0.001000,0.001000,0.001000,0.001000
1002.019231,0.041834,0.001000,0.001000,0.001000,0.001000,0.001000
1002.038462,0.041264,0.001000,0.001000,0.001000,0.001000,0.001000
1002.057692,0.040677,0.001000,0.001000,0.001000,0.001000,0.001000
1002.076923,0.040073,0.001000,0.001000,0.001000,0.001000,0.001000
1002.096154,0.039453,0.001000,0.001000,0.001000,0.001000,0.001000
1002.115385,0.038815,0.001000,0.001000,0.001000,0.001000,0.001000
1002.134615,0.038162,0.001000,0.001000,0.001000,0.001000,0.001000
1002.153846,0.037492,0.001000,0.001000,0.001000,0.001000,0.001000
1002.173077,0.036807,0.001000,0.001000,0.001000,0.001000,0.001000
1002.192308,0.036106,0.001000,0.001000,0.001000,0.001000,0.001000
1002.211538,0.035390,0.001000,0.001000,0.001000,0.001000,0.001000
1002.230769,0.034660,0.001000,0.001000,0.001000,0.001000,0.001000
1002.250000,0.033914,0.001000,0.001000,0.001000,0.001000,0.001000
1002.269231,0.033155,0.001000,0.001000,0.001000,0.001000,0.001000
1002.288462,0.032381,0.001000,0.001000,0.001000,0.001000,0.001000
1002.307692,0.031594,0.001000,0.001000,0.001000,0.001000,0.001000
1002.326923,0.030794,0.001000,0.001000,0.001000,0.001000,0.001000
1002.346154,0.029981,0.001000,0.001000,0.001000,0.001000,0.001000
1002.365385,0.029155,0.001000,0.001000,0.001000,0.001000,0.001000
1002.384615,0.028317,0.001000,0.001000,0.001000,0.001000,0.001000
1002.403846,0.027468,0.001000,0.001000,0.001000,0.001000,0.001000
1002.423077,0.026606,0.001000,0.001000,0.001000,0.001000,0.001000
1002.442308,0.025734,0.001000,0.001000,0.001000,0.001000,0.001000
1002.461538,0.024850,0.001000,0.001000,0.001000,0.001000,0.001000
1002.480769,0.023957,0.001000,0.001000,0.001000,0.001000,0.001000
1002.500000,0.023053,0.001000,0.001000,0.001000,0.001000,0.001000
1002.519231,0.022139,0.001000,0.001000,0.001000,0.001000,0.001000
1002.538462,0.021217,0.001000,0.001000,0.001000,0.001000,0.001000
1002.557692,0.020285,0.001000,0.001000,0.001000,0.001000,0.001000
1002.576923,0.019345,0.001000,0.001000,0.001000,0.001000,0.001000
1002.596154,0.018397,0.001000,0.001000,0.001000,0.001000,0.001000
1002.615385,0.017441,0.001000,0.001000,0.001000,0.001000,0.001000
1002.634615,0.016477,0.001000,0.001000,0.001000,0.001000,0.001000
1002.653846,0.015507,0.001000,0.001000,0.001000,0.001000,0.001000
1002.673077,0.014531,0.001000,0.001000,0.001000,0.001000,0.001000
1002.692308,0.013548,0.001000,0.001000,0.001000,0.001000,0.001000
1002.711538,0.012559,0.001000,0.001000,0.001000,0.001000,0.001000
1002.730769,0.011566,0.001000,0.001000,0.001000,0.001000,0.001000
1002.750000,0.010567,0.001000,0.001000,0.001000,0.001000,0.001000
1002.769231,0.009564,0.001000,0.001000,0.001000,0.001000,0.001000
1002.788462,0.008557,0.001000,0.001000,0.001000,0.001000,0.001000
1002.807692,0.007546,0.001000,0.001000,0.001000,0.001000,0.001000
1002.826923,0.006533,0.001000,0.001000,0.001000,0.001000,0.001000
1002.846154,0.005516,0.001000,0.001000,0.001000,0.001000,0.001000
1002.865385,0.004497,0.001000,0.001000,0.001000,0.001000,0.001000
1002.884615,0.003476,0.001000,0.001000,0.001000,0.001000,0.001000
1002.903846,0.002454,0.001000,0.001000,0.001000,0.001000,0.001000
1002.923077,0.001431,0.001000,0.001000,0.001000,0.001000,0.001000
1002.942308,0.000407,0.001000,0.001000,0.001000,0.001000,0.001000
1002.961538,-0.000617,0.001000,0.001000,0.001000,0.001000,0.001000
1002.980769,-0.001640,0.001000,0.001000,0.001000,0.001000,0.001000
1003.000000,-0.002663,0.001000,0.001000,0.001000,0.001000,0.001000
1003.019231,-0.003685,0.001000,0.001000,0.001000,0.001000,0.001000
1003.038462,-0.004706,0.001000,0.001000,0.001000,0.001000,0.001000
1003.057692,-0.005724,0.001000,0.001000,0.001000,0.001000,0.001000
1003.076923,-0.006740,0.001000,0.001000,0.001000,0.001000,0.001000
1003.096154,-0.007753,0.001000,0.001000,0.001000,0.001000,0.001000
1003.115385,-0.008763,0.001000,0.001000,0.001000,0.001000,0.001000
1003.134615,-0.009769,0.001000,0.001000,0.001000,0.001000,0.001000
1003.153846,-0.010772,0.001000,0.001000,0.001000,0.001000,0.001000
1003.173077,-0.011769,0.001000,0.001000,0.001000,0.001000,0.001000
1003.192308,-0.012762,0.001000,0.001000,0.001000,0.001000,0.001000
1003.211538,-0.013749,0.001000,0.001000,0.001000,0.001000,0.001000
1003.230769,-0.014731,0.001000,0.001000,0.001000,0.001000,0.001000
1003.250000,-0.015706,0.001000,0.001000,0.001000,0.001000,0.001000
1003.269231,-0.016675,0.001000,0.001000,0.001000,0.001000,0.001000
1003.288462,-0.017637,0.001000,0.001000,0.001000,0.001000,0.001000
1003.307692,-0.018591,0.001000,0.001000,0.001000,0.001000,0.001000
1003.326923,-0.019538,0.001000,0.001000,0.001000,0.001000,0.001000
1003.346154,-0.020476,0.001000,0.001000,0.001000,0.001000,0.001000
1003.365385,-0.021406,0.001000,0.001000,0.001000,0.001000,0.001000
1003.384615,-0.022327,0.001000,0.001000,0.001000,0.001000,0.001000
1003.403846,-0.023239,0.001000,0.001000,0.001000,0.001000,0.001000
1003.423077,-0.024140,0.001000,0.001000,0.001000,0.001000,0.001000
1003.442308,-0.025032,0.001000,0.001000,0.001000,0.001000,0.001000
1003.461538,-0.025913,0.001000,0.001000,0.001000,0.001000,0.001000
1003.480769,-0.026783,0.001000,0.001000,0.001000,0.001000,0.001000
1003.500000,-0.027642,0.001000,0.001000,0.001000,0.001000,0.001000
1003.519231,-0.028490,0.001000,0.001000,0.001000,0.001000,0.001000
1003.538462,-0.029325,0.001000,0.001000,0.001000,0.001000,0.001000
1003.557692,-0.030148,0.001000,0.001000,0.001000,0.001000,0.001000
1003.576923,-0.030959,0.001000,0.001000,0.001000,0.001000,0.001000
1003.596154,-0.031756,0.001000,0.001000,0.001000,0.001000,0.001000
1003.615385,-0.032541,0.001000,0.001000,0.001000,0.001000,0.001000
1003.634615,-0.033311,0.001000,0.001000,0.001000,0.001000,0.001000
1003.653846,-0.034068,0.001000,0.001000,0.001000,0.001000,0.001000
1003.673077,-0.034810,0.001000,0.001000,0.001000,0.001000,0.001000
1003.692308,-0.035538,0.001000,0.001000,0.001000,0.001000,0.001000
1003.711538,-0.036251,0.001000,0.001000,0.001000,0.001000,0.001000
1003.730769,-0.036948,0.001000,0.001000,0.001000,0.001000,0.001000
1003.750000,-0.037630,0.001000,0.001000,0.001000,0.001000,0.001000
1003.769231,-0.038297,0.001000,0.001000,0.001000,0.001000,0.001000
1003.788462,-0.038947,0.001000,0.001000,0.001000,0.001000,0.001000
1003.807692,-0.039581,0.001000,0.001000,0.001000,0.001000,0.001000
1003.826923,-0.040198,0.001000,0.001000,0.001000,0.001000,0.001000
1003.846154,-0.040799,0.001000,0.001000,0.001000,0.001000,0.001000
1003.865385,-0.041382,0.001000,0.001000,0.001000,0.001000,0.001000
1003.884615,-0.041948,0.001000,0.001000,0.001000,0.001000,0.001000
1003.903846,-0.042497,0.001000,0.001000,0.001000,0.001000,0.001000
1003.923077,-0.043027,0.001000,0.001000,0.001000,0.001000,0.001000
1003.942308,-0.043540,0.001000,0.001000,0.001000,0.001000,0.001000
1003.961538,-0.044034,0.001000,0.001000,0.001000,0.001000,0.001000
1003.980769,-0.044510,0.001000,0.001000,0.001000,0.001000,0.001000
1004.000000,-0.044967,0.001000,0.001000,0.001000,0.001000,0.001000
1004.019231,-0.045405,0.001000,0.001000,0.001000,0.001000,0.001000
1004.038462,-0.045825,0.001000,0.001000,0.001000,0.001000,0.001000
1004.057692,-0.046225,0.001000,0.001000,0.001000,0.001000,0.001000
1004.076923,-0.046605,0.001000,0.001000,0.001000,0.001000,0.001000
1004.096154,-0.046966,0.001000,0.001000,0.001000,0.001000,0.001000
1004.115385,-0.047308,0.001000,0.001000,0.001000,0.001000,0.001000
1004.134615,-0.047629,0.001000,0.001000,0.001000,0.001000,0.001000
1004.153846,-0.047931,0.001000,0.001000,0.001000,0.001000,0.001000
1004.173077,-0.048212,0.001000,0.001000,0.001000,0.001000,0.001000
1004.192308,-0.048473,0.001000,0.001000,0.001000,0.001000,0.001000
1004.211538,-0.048714,0.001000,0.001000,0.001000,0.001000,0.001000
1004.230769,-0.048935,0.001000,0.001000,0.001000,0.001000,0.001000
1004.250000,-0.049135,0.001000,0.001000,0.001000,0.001000,0.001000
1004.269231,-0.049314,0.001000,0.001000,0.001000,0.001000,0.001000
1004.288462,-0.049473,0.001000,0.001000,0.001000,0.001000,0.001000
1004.307692,-0.049611,0.001000,0.001000,0.001000,0.001000,0.001000
1004.326923,-0.049728,0.001000,0.001000,0.001000,0.001000,0.001000
1004.346154,-0.049824,0.001000,0.001000,0.001000,0.001000,0.001000
1004.365385,-0.049899,0.001000,0.001000,0.001000,0.001000,0.001000
1004.384615,-0.049954,0.001000,0.001000,0.001000,0.001000,0.001000
1004.403846,-0.049987,0.001000,0.001000,0.001000,0.001000,0.001000
1004.423077,-0.050000,0.001000,0.001000,0.001000,0.001000,0.001000
1004.442308,-0.049991,0.001000,0.001000,0.001000,0.001000,0.001000
1004.461538,-0.049962,0.001000,0.001000,0.001000,0.001000,0.001000
1004.480769,-0.049912,0.001000,0.001000,0.001000,0.001000,0.001000
1004.500000,-0.049840,0.001000,0.001000,0.001000,0.001000,0.001000
1004.519231,-0.049748,0.001000,0.001000,0.001000,0.001000,0.001000
1004.538462,-0.049635,0.001000,0.001000,0.001000,0.001000,0.001000
1004.557692,-0.049501,0.001000,0.001000,0.001000,0.001000,0.001000
1004.576923,-0.049346,0.001000,0.001000,0.001000,0.001000,0.001000
1004.596154,-0.049171,0.001000,0.001000,0.001000,0.001000,0.001000
1004.615385,-0.048975,0.001000,0.001000,0.001000,0.001000,0.001000
1004.634615,-0.048759,0.001000,0.001000,0.001000,0.001000,0.001000
1004.653846,-0.048522,0.001000,0.001000,0.001000,0.001000,0.001000
1004.673077,-0.048264,0.001000,0.001000,0.001000,0.001000,0.001000
1004.692308,-0.047987,0.001000,0.001000,0.001000,0.001000,0.001000
1004.711538,-0.047689,0.001000,0.001000,0.001000,0.001000,0.001000
1004.730769,-0.047371,0.001000,0.001000,0.001000,0.001000,0.001000
1004.750000,-0.047034,0.001000,0.001000,0.001000,0.001000,0.001000
1004.769231,-0.046676,0.001000,0.001000,0.001000,0.001000,0.001000
1004.788462,-0.046300,0.001000,0.001000,0.001000,0.001000,0.001000
1004.807692,-0.045903,0.001000,0.001000,0.001000,0.001000,0.001000
1004.826923,-0.045488,0.001000,0.001000,0.001000,0.001000,0.001000
1004.846154,-0.045053,0.001000,0.001000,0.001000,0.001000,0.001000
1004.865385,-0.044600,0.001000,0.001000,0.001000,0.001000,0.001000
1004.884615,-0.044127,0.001000,0.001000,0.001000,0.001000,0.001000
1004.903846,-0.043637,0.001000,0.001000,0.001000,0.001000,0.001000
1004.923077,-0.043128,0.001000,0.001000,0.001000,0.001000,0.001000
1004.942308,-0.042601,0.001000,0.001000,0.001000,0.001000,0.001000
1004.961538,-0.042056,0.001000,0.001000,0.001000,0.001000,0.001000
1004.980769,-0.041493,0.001000,0.001000,0.001000,0.001000,0.001000
1005.000000,-0.040913,0.001000,0.001000,0.001000,0.001000,0.001000
1005.019231,-0.040316,0.001000,0.001000,0.001000,0.001000,0.001000
1005.038462,-0.039702,0.001000,0.001000,0.001000,0.001000,0.001000
1005.057692,-0.039071,0.001000,0.001000,0.001000,0.001000,0.001000
1005.076923,-0.038424,0.001000,0.001000,0.001000,0.001000,0.001000
1005.096154,-0.037760,0.001000,0.001000,0.001000,0.001000,0.001000
1005.115385,-0.037081,0.001000,0.001000,0.001000,0.001000,0.001000
1005.134615,-0.036387,0.001000,0.001000,0.001000,0.001000,0.001000
1005.153846,-0.035677,0.001000,0.001000,0.001000,0.001000,0.001000
1005.173077,-0.034952,0.001000,0.001000,0.001000,0.001000,0.001000
1005.192308,-0.034212,0.001000,0.001000,0.001000,0.001000,0.001000
1005.211538,-0.033459,0.001000,0.001000,0.001000,0.001000,0.001000
1005.230769,-0.032691,0.001000,0.001000,0.001000,0.001000,0.001000
1005.250000,-0.031909,0.001000,0.001000,0.001000,0.001000,0.001000
1005.269231,-0.031114,0.001000,0.001000,0.001000,0.001000,0.001000
1005.288462,-0.030306,0.001000,0.001000,0.001000,0.001000,0.001000
1005.307692,-0.029485,0.001000,0.001000,0.001000,0.001000,0.001000
1005.326923,-0.028652,0.001000,0.001000,0.001000,0.001000,0.001000
1005.346154,-0.027807,0.001000,0.001000,0.001000,0.001000,0.001000
1005.365385,-0.026950,0.001000,0.001000,0.001000,0.001000,0.001000
1005.384615,-0.026082,0.001000,0.001000,0.001000,0.001000,0.001000
1005.403846,-0.025203,0.001000,0.001000,0.001000,0.001000,0.001000
1005.423077,-0.024313,0.001000,0.001000,0.001000,0.001000,0.001000
1005.442308,-0.023414,0.001000,0.001000,0.001000,0.001000,0.001000
1005.461538,-0.022504,0.001000,0.001000,0.001000,0.001000,0.001000
1005.480769,-0.021585,0.001000,0.001000,0.001000,0.001000,0.001000
1005.500000,-0.020657,0.001000,0.001000,0.001000,0.001000,0.001000
1005.519231,-0.019720,0.001000,0.001000,0.001000,0.001000,0.001000
1005.538462,-0.018775,0.001000,0.001000,0.001000,0.001000,0.001000
1005.557692,-0.017822,0.001000,0.001000,0.001000,0.001000,0.001000
1005.576923,-0.016861,0.001000,0.001000,0.001000,0.001000,0.001000
1005.596154,-0.015894,0.001000,0.001000,0.001000,0.001000,0.001000
1005.615385,-0.014920,0.001000,0.001000,0.001000,0.001000,0.001000
1005.634615,-0.013939,0.001000,0.001000,0.001000,0.001000,0.001000
1005.653846,-0.012953,0.001000,0.001000,0.001000,0.001000,0.001000
1005.673077,-0.011961,0.001000,0.001000,0.001000,0.001000,0.001000
1005.692308,-0.010965,0.001000,0.001000,0.001000,0.001000,0.001000
1005.711538,-0.009963,0.001000,0.001000,0.001000,0.001000,0.001000
1005.730769,-0.008958,0.001000,0.001000,0.001000,0.001000,0.001000
1005.750000,-0.007949,0.001000,0.001000,0.001000,0.001000,0.001000
1005.769231,-0.006936,0.001000,0.001000,0.001000,0.001000,0.001000
1005.788462,-0.005921,0.001000,0.001000,0.001000,0.001000,0.001000
1005.807692,-0.004903,0.001000,0.001000,0.001000,0.001000,0.001000
1005.826923,-0.003883,0.001000,0.001000,0.001000,0.001000,0.001000
1005.846154,-0.002861,0.001000,0.001000,0.001000,0.001000,0.001000
1005.865385,-0.001838,0.001000,0.001000,0.001000,0.001000,0.001000
1005.884615,-0.000815,0.001000,0.001000,0.001000,0.001000,0.001000
1005.903846,0.000209,0.001000,0.001000,0.001000,0.001000,0.001000
1005.923077,0.001233,0.001000,0.001000,0.001000,0.001000,0.001000
1005.942308,0.002257,0.001000,0.001000,0.001000,0.001000,0.001000
1005.961538,0.003279,0.001000,0.001000,0.001000,0.001000,0.001000
1005.980769,0.004300,0.001000,0.001000,0.001000,0.001000,0.001000
1006.000000,0.005319,0.001000,0.001000,0.001000,0.001000,0.001000
1006.019231,0.006336,0.001000,0.001000,0.001000,0.001000,0.001000
1006.038462,0.007351,0.001000,0.001000,0.001000,0.001000,0.001000
1006.057692,0.008362,0.001000,0.001000,0.001000,0.001000,0.001000
1006.076923,0.009370,0.001000,0.001000,0.001000,0.001000,0.001000
1006.096154,0.010374,0.001000,0.001000,0.001000,0.001000,0.001000
1006.115385,0.011373,0.001000,0.001000,0.001000,0.001000,0.001000
1006.134615,0.012368,0.001000,0.001000,0.001000,0.001000,0.001000
1006.153846,0.013357,0.001000,0.001000,0.001000,0.001000,0.001000
1006.173077,0.014341,0.001000,0.001000,0.001000,0.001000,0.001000
1006.192308,0.015319,0.001000,0.001000,0.001000,0.001000,0.001000
1006.211538,0.016291,0.001000,0.001000,0.001000,0.001000,0.001000
1006.230769,0.017255,0.001000,0.001000,0.001000,0.001000,0.001000
1006.250000,0.018213,0.001000,0.001000,0.001000,0.001000,0.001000
1006.269231,0.019162,0.001000,0.001000,0.001000,0.001000,0.001000
1006.288462,0.020104,0.001000,0.001000,0.001000,0.001000,0.001000
1006.307692,0.021037,0.001000,0.001000,0.001000,0.001000,0.001000
1006.326923,0.021962,0.001000,0.001000,0.001000,0.001000,0.001000
1006.346154,0.022877,0.001000,0.001000,0.001000,0.001000,0.001000
1006.365385,0.023783,0.001000,0.001000,0.001000,0.001000,0.001000
1006.384615,0.024679,0.001000,0.001000,0.001000,0.001000,0.001000
1006.403846,0.025564,0.001000,0.001000,0.001000,0.001000,0.001000
1006.423077,0.026438,0.001000,0.001000,0.001000,0.001000,0.001000
1006.442308,0.027302,0.001000,0.001000,0.001000,0.001000,0.001000
1006.461538,0.028154,0.001000,0.001000,0.001000,0.001000,0.001000
1006.480769,0.028994,0.001000,0.001000,0.001000,0.001000,0.001000
1006.500000,0.029822,0.001000,0.001000,0.001000,0.001000,0.001000
1006.519231,0.030638,0.001000,0.001000,0.001000,0.001000,0.001000
1006.538462,0.031441,0.001000,0.001000,0.001000,0.001000,0.001000
1006.557692,0.032230,0.001000,0.001000,0.001000,0.001000,0.001000
1006.576923,0.033006,0.001000,0.001000,0.001000,0.001000,0.001000
1006.596154,0.033769,0.001000,0.001000,0.001000,0.001000,0.001000
1006.615385,0.034517,0.001000,0.001000,0.001000,0.001000,0.001000
1006.634615,0.035250,0.001000,0.001000,0.001000,0.001000,0.001000
1006.653846,0.035969,0.001000,0.001000,0.001000,0.001000,0.001000
1006.673077,0.036673,0.001000,0.001000,0.001000,0.001000,0.001000
1006.692308,0.037361,0.001000,0.001000,0.001000,0.001000,0.001000
1006.711538,0.038034,0.001000,0.001000,0.001000,0.001000,0.001000
1006.730769,0.038690,0.001000,0.001000,0.001000,0.001000,0.001000
1006.750000,0.039331,0.001000,0.001000,0.001000,0.001000,0.001000
1006.769231,0.039955,0.001000,0.001000,0.001000,0.001000,0.001000
1006.788462,0.040562,0.001000,0.001000,0.001000,0.001000,0.001000
1006.807692,0.041152,0.001000,0.001000,0.001000,0.001000,0.001000
1006.826923,0.041725,0.001000,0.001000,0.001000,0.001000,0.001000
1006.846154,0.042281,0.001000,0.001000,0.001000,0.001000,0.001000
1006.865385,0.042818,0.001000,0.001000,0.001000,0.001000,0.001000
1006.884615,0.043338,0.001000,0.001000,0.001000,0.001000,0.001000
1006.903846,0.043840,0.001000,0.001000,0.001000,0.001000,0.001000
1006.923077,0.044323,0.001000,0.001000,0.001000,0.001000,0.001000
1006.942308,0.044787,0.001000,0.001000,0.001000,0.001000,0.001000
1006.961538,0.045233,0.001000,0.001000,0.001000,0.001000,0.001000
1006.980769,0.045660,0.001000,0.001000,0.001000,0.001000,0.001000
1007.000000,0.046068,0.001000,0.001000,0.001000,0.001000,0.001000
1007.019231,0.046456,0.001000,0.001000,0.001000,0.001000,0.001000
1007.038462,0.046825,0.001000,0.001000,0.001000,0.001000,0.001000
1007.057692,0.047174,0.001000,0.001000,0.001000,0.001000,0.001000
1007.076923,0.047504,0.001000,0.001000,0.001000,0.001000,0.001000
1007.096154,0.047813,0.001000,0.001000,0.001000,0.001000,0.001000
1007.115385,0.048103,0.001000,0.001000,0.001000,0.001000,0.001000
1007.134615,0.048372,0.001000,0.001000,0.001000,0.001000,0.001000
1007.153846,0.048621,0.001000,0.001000,0.001000,0.001000,0.001000
1007.173077,0.048850,0.001000,0.001000,0.001000,0.001000,0.001000
1007.192308,0.049058,0.001000,0.001000,0.001000,0.001000,0.001000
1007.211538,0.049245,0.001000,0.001000,0.001000,0.001000,0.001000
1007.230769,0.049412,0.001000,0.001000,0.001000,0.001000,0.001000
1007.250000,0.049558,0.001000,0.001000,0.001000,0.001000,0.001000
1007.269231,0.049684,0.001000,0.001000,0.001000,0.001000,0.001000
1007.288462,0.049788,0.001000,0.001000,0.001000,0.001000,0.001000
1007.307692,0.049872,0.001000,0.001000,0.001000,0.001000,0.001000
1007.326923,0.049935,0.001000,0.001000,0.001000,0.001000,0.001000
1007.346154,0.049977,0.001000,0.001000,0.001000,0.001000,0.001000
1007.365385,0.049997,0.001000,0.001000,0.001000,0.001000,0.001000
1007.384615,0.049997,0.001000,0.001000,0.001000,0.001000,0.001000
1007.403846,0.049976,0.001000,0.001000,0.001000,0.001000,0.001000
1007.423077,0.049934,0.001000,0.001000,0.001000,0.001000,0.001000
1007.442308,0.049871,0.001000,0.001000,0.001000,0.001000,0.001000
1007.461538,0.049787,0.001000,0.001000,0.001000,0.001000,0.001000
1007.480769,0.049682,0.001000,0.001000,0.001000,0.001000,0.001000
1007.500000,0.049557,0.001000,0.001000,0.001000,0.001000,0.001000
1007.519231,0.049410,0.001000,0.001000,0.001000,0.001000,0.001000
1007.538462,0.049243,0.001000,0.001000,0.001000,0.001000,0.001000
1007.557692,0.049056,0.001000,0.001000,0.001000,0.001000,0.001000
1007.576923,0.048847,0.001000,0.001000,0.001000,0.001000,0.001000
1007.596154,0.048618,0.001000,0.001000,0.001000,0.001000,0.001000
1007.615385,0.048369,0.001000,0.001000,0.001000,0.001000,0.001000
1007.634615,0.048100,0.001000,0.001000,0.001000,0.001000,0.001000
1007.653846,0.047810,0.001000,0.001000,0.001000,0.001000,0.001000
1007.673077,0.047500,0.001000,0.001000,0.001000,0.001000,0.001000
1007.692308,0.047170,0.001000,0.001000,0.001000,0.001000,0.001000
1007.711538,0.046821,0.001000,0.001000,0.001000,0.001000,0.001000
1007.730769,0.046452,0.001000,0.001000,0.001000,0.001000,0.001000
1007.750000,0.046063,0.001000,0.001000,0.001000,0.001000,0.001000
1007.769231,0.045655,0.001000,0.001000,0.001000,0.001000,0.001000
1007.788462,0.045228,0.001000,0.001000,0.001000,0.001000,0.001000
1007.807692,0.044782,0.001000,0.001000,0.001000,0.001000,0.001000
1007.826923,0.044317,0.001000,0.001000,0.001000,0.001000,0.001000
1007.846154,0.043834,0.001000,0.001000,0.001000,0.001000,0.001000
1007.865385,0.043332,0.001000,0.001000,0.001000,0.001000,0.001000
1007.884615,0.042812,0.001000,0.001000,0.001000,0.001000,0.001000
1007.903846,0.042274,0.001000,0.001000,0.001000,0.001000,0.001000
1007.923077,0.041719,0.001000,0.001000,0.001000,0.001000,0.001000
1007.942308,0.041146,0.001000,0.001000,0.001000,0.001000,0.001000
1007.961538,0.040555,0.001000,0.001000,0.001000,0.001000,0.001000
1007.980769,0.039948,0.001000,0.001000,0.001000,0.001000,0.001000
1008.000000,0.039324,0.001000,0.001000,0.001000,0.001000,0.001000
1008.019231,0.038683,0.001000,0.001000,0.001000,0.001000,0.001000
1008.038462,0.038026,0.001000,0.001000,0.001000,0.001000,0.001000
1008.057692,0.037353,0.001000,0.001000,0.001000,0.001000,0.001000
1008.076923,0.036665,0.001000,0.001000,0.001000,0.001000,0.001000
1008.096154,0.035961,0.001000,0.001000,0.001000,0.001000,0.001000
1008.115385,0.035242,0.001000,0.001000,0.001000,0.001000,0.001000
1008.134615,0.034508,0.001000,0.001000,0.001000,0.001000,0.001000
1008.153846,0.033760,0.001000,0.001000,0.001000,0.001000,0.001000
1008.173077,0.032998,0.001000,0.001000,0.001000,0.001000,0.001000
1008.192308,0.032222,0.001000,0.001000,0.001000,0.001000,0.001000
1008.211538,0.031432,0.001000,0.001000,0.001000,0.001000,0.001000
1008.230769,0.030629,0.001000,0.001000,0.001000,0.001000,0.001000
1008.250000,0.029813,0.001000,0.001000,0.001000,0.001000,0.001000
1008.269231,0.028985,0.001000,0.001000,0.001000,0.001000,0.001000
1008.288462,0.028144,0.001000,0.001000,0.001000,0.001000,0.001000
1008.307692,0.027292,0.001000,0.001000,0.001000,0.001000,0.001000
1008.326923,0.026429,0.001000,0.001000,0.001000,0.001000,0.001000
1008.346154,0.025554,0.001000,0.001000,0.001000,0.001000,0.001000
1008.365385,0.024668,0.001000,0.001000,0.001000,0.001000,0.001000
1008.384615,0.023773,0.001000,0.001000,0.001000,0.001000,0.001000
1008.403846,0.022867,0.001000,0.001000,0.001000,0.001000,0.001000
1008.423077,0.021951,0.001000,0.001000,0.001000,0.001000,0.001000
1008.442308,0.021027,0.001000,0.001000,0.001000,0.001000,0.001000
1008.461538,0.020093,0.001000,0.001000,0.001000,0.001000,0.001000
1008.480769,0.019152,0.001000,0.001000,0.001000,0.001000,0.001000
1008.500000,0.018202,0.001000,0.001000,0.001000,0.001000,0.001000
1008.519231,0.017244,0.001000,0.001000,0.001000,0.001000,0.001000
1008.538462,0.016280,0.001000,0.001000,0.001000,0.001000,0.001000
1008.557692,0.015308,0.001000,0.001000,0.001000,0.001000,0.001000
1008.576923,0.014330,0.001000,0.001000,0.001000,0.001000,0.001000
1008.596154,0.013346,0.001000,0.001000,0.001000,0.001000,0.001000
1008.615385,0.012356,0.001000,0.001000,0.001000,0.001000,0.001000
1008.634615,0.011362,0.001000,0.001000,0.001000,0.001000,0.001000
1008.653846,0.010362,0.001000,0.001000,0.001000,0.001000,0.001000
1008.673077,0.009358,0.001000,0.001000,0.001000,0.001000,0.001000
1008.692308,0.008351,0.001000,0.001000,0.001000,0.001000,0.001000
1008.711538,0.007339,0.001000,0.001000,0.001000,0.001000,0.001000
1008.730769,0.006325,0.001000,0.001000,0.001000,0.001000,0.001000
1008.750000,0.005308,0.001000,0.001000,0.001000,0.001000,0.001000
1008.769231,0.004289,0.001000,0.001000,0.001000,0.001000,0.001000
1008.788462,0.003268,0.001000,0.001000,0.001000,0.001000,0.001000
1008.807692,0.002245,0.001000,0.001000,0.001000,0.001000,0.001000
1008.826923,0.001222,0.001000,0.001000,0.001000,0.001000,0.001000
1008.846154,0.000198,0.001000,0.001000,0.001000,0.001000,0.001000
1008.865385,-0.000826,0.001000,0.001000,0.001000,0.001000,0.001000
1008.884615,-0.001850,0.001000,0.001000,0.001000,0.001000,0.001000
1008.903846,-0.002873,0.001000,0.001000,0.001000,0.001000,0.001000
1008.923077,-0.003894,0.001000,0.001000,0.001000,0.001000,0.001000
1008.942308,-0.004914,0.001000,0.001000,0.001000,0.001000,0.001000
1008.961538,-0.005932,0.001000,0.001000,0.001000,0.001000,0.001000
1008.980769,-0.006948,0.001000,0.001000,0.001000,0.001000,0.001000
1009.000000,-0.007960,0.001000,0.001000,0.001000,0.001000,0.001000
1009.019231,-0.008969,0.001000,0.001000,0.001000,0.001000,0.001000
1009.038462,-0.009975,0.001000,0.001000,0.001000,0.001000,0.001000
1009.057692,-0.010976,0.001000,0.001000,0.001000,0.001000,0.001000
1009.076923,-0.011973,0.001000,0.001000,0.001000,0.001000,0.001000
1009.096154,-0.012964,0.001000,0.001000,0.001000,0.001000,0.001000
1009.115385,-0.013951,0.001000,0.001000,0.001000,0.001000,0.001000
1009.134615,-0.014931,0.001000,0.001000,0.001000,0.001000,0.001000
1009.153846,-0.015905,0.001000,0.001000,0.001000,0.001000,0.001000
1009.173077,-0.016872,0.001000,0.001000,0.001000,0.001000,0.001000
1009.192308,-0.017833,0.001000,0.001000,0.001000,0.001000,0.001000
1009.211538,-0.018786,0.001000,0.001000,0.001000,0.001000,0.001000
1009.230769,-0.019731,0.001000,0.001000,0.001000,0.001000,0.001000
1009.250000,-0.020667,0.001000,0.001000,0.001000,0.001000,0.001000
1009.269231,-0.021595,0.001000,0.001000,0.001000,0.001000,0.001000
1009.288462,-0.022514,0.001000,0.001000,0.001000,0.001000,0.001000
1009.307692,-0.023424,0.001000,0.001000,0.001000,0.001000,0.001000
1009.326923,-0.024323,0.001000,0.001000,0.001000,0.001000,0.001000
1009.346154,-0.025213,0.001000,0.001000,0.001000,0.001000,0.001000
1009.365385,-0.026092,0.001000,0.001000,0.001000,0.001000,0.001000
1009.384615,-0.026960,0.001000,0.001000,0.001000,0.001000,0.001000
1009.403846,-0.027817,0.001000,0.001000,0.001000,0.001000,0.001000
1009.423077,-0.028662,0.001000,0.001000,0.001000,0.001000,0.001000
1009.442308,-0.029495,0.001000,0.001000,0.001000,0.001000,0.001000
1009.461538,-0.030315,0.001000,0.001000,0.001000,0.001000,0.001000
1009.480769,-0.031123,0.001000,0.001000,0.001000,0.001000,0.001000
1009.500000,-0.031918,0.001000,0.001000,0.001000,0.001000,0.001000
1009.519231,-0.032699,0.001000,0.001000,0.001000,0.001000,0.001000
1009.538462,-0.033467,0.001000,0.001000,0.001000,0.001000,0.001000
1009.557692,-0.034221,0.001000,0.001000,0.001000,0.001000,0.001000
1009.576923,-0.034960,0.001000,0.001000,0.001000,0.001000,0.001000
1009.596154,-0.035685,0.001000,0.001000,0.001000,0.001000,0.001000
1009.615385,-0.036395,0.001000,0.001000,0.001000,0.001000,0.001000
1009.634615,-0.037089,0.001000,0.001000,0.001000,0.001000,0.001000
1009.653846,-0.037768,0.001000,0.001000,0.001000,0.001000,0.001000
1009.673077,-0.038431,0.001000,0.001000,0.001000,0.001000,0.001000
1009.692308,-0.039078,0.001000,0.001000,0.001000,0.001000,0.001000
1009.711538,-0.039709,0.001000,0.001000,0.001000,0.001000,0.001000
1009.730769,-0.040323,0.001000,0.001000,0.001000,0.001000,0.001000
1009.750000,-0.040920,0.001000,0.001000,0.001000,0.001000,0.001000
1009.769231,-0.041499,0.001000,0.001000,0.001000,0.001000,0.001000
1009.788462,-0.042062,0.001000,0.001000,0.001000,0.001000,0.001000
1009.807692,-0.042607,0.001000,0.001000,0.001000,0.001000,0.001000
1009.826923,-0.043134,0.001000,0.001000,0.001000,0.001000,0.001000
1009.846154,-0.043642,0.001000,0.001000,0.001000,0.001000,0.001000
1009.865385,-0.044133,0.001000,0.001000,0.001000,0.001000,0.001000
1009.884615,-0.044605,0.001000,0.001000,0.001000,0.001000,0.001000
1009.903846,-0.045058,0.001000,0.001000,0.001000,0.001000,0.001000
1009.923077,-0.045493,0.001000,0.001000,0.001000,0.001000,0.001000
1009.942308,-0.045908,0.001000,0.001000,0.001000,0.001000,0.001000
1009.961538,-0.046304,0.001000,0.001000,0.001000,0.001000,0.001000
1009.980769,-0.046681,0.001000,0.001000,0.001000,0.001000,0.001000
1010.000000,-0.047038,0.001000,0.001000,0.001000,0.001000,0.001000
1010.019231,-0.047375,0.001000,0.001000,0.001000,0.001000,0.001000
1010.038462,-0.047692,0.001000,0.001000,0.001000,0.001000,0.001000
1010.057692,-0.047990,0.001000,0.001000,0.001000,0.001000,0.001000
1010.076923,-0.048267,0.001000,0.001000,0.001000,0.001000,0.001000
1010.096154,-0.048524,0.001000,0.001000,0.001000,0.001000,0.001000
1010.115385,-0.048761,0.001000,0.001000,0.001000,0.001000,0.001000
1010.134615,-0.048977,0.001000,0.001000,0.001000,0.001000,0.001000
1010.153846,-0.049173,0.001000,0.001000,0.001000,0.001000,0.001000
1010.173077,-0.049348,0.001000,0.001000,0.001000,0.001000,0.001000
1010.192308,-0.049503,0.001000,0.001000,0.001000,0.001000,0.001000
1010.211538,-0.049636,0.001000,0.001000,0.001000,0.001000,0.001000
1010.230769,-0.049749,0.001000,0.001000,0.001000,0.001000,0.001000
1010.250000,-0.049841,0.001000,0.001000,0.001000,0.001000,0.001000
1010.269231,-0.049912,0.001000,0.001000,0.001000,0.001000,0.001000
1010.288462,-0.049962,0.001000,0.001000,0.001000,0.001000,0.001000
1010.307692,-0.049992,0.001000,0.001000,0.001000,0.001000,0.001000
1010.326923,-0.050000,0.001000,0.001000,0.001000,0.001000,0.001000
1010.346154,-0.049987,0.001000,0.001000,0.001000,0.001000,0.001000
1010.365385,-0.049953,0.001000,0.001000,0.001000,0.001000,0.001000
1010.384615,-0.049899,0.001000,0.001000,0.001000,0.001000,0.001000
1010.403846,-0.049823,0.001000,0.001000,0.001000,0.001000,0.001000
1010.423077,-0.049727,0.001000,0.001000,0.001000,0.001000,0.001000
1010.442308,-0.049609,0.001000,0.001000,0.001000,0.001000,0.001000
1010.461538,-0.049471,0.001000,0.001000,0.001000,0.001000,0.001000
1010.480769,-0.049312,0.001000,0.001000,0.001000,0.001000,0.001000
1010.500000,-0.049133,0.001000,0.001000,0.001000,0.001000,0.001000
1010.519231,-0.048932,0.001000,0.001000,0.001000,0.001000,0.001000
1010.538462,-0.048712,0.001000,0.001000,0.001000,0.001000,0.001000
1010.557692,-0.048471,0.001000,0.001000,0.001000,0.001000,0.001000
1010.576923,-0.048209,0.001000,0.001000,0.001000,0.001000,0.001000
1010.596154,-0.047927,0.001000,0.001000,0.001000,0.001000,0.001000
1010.615385,-0.047626,0.001000,0.001000,0.001000,0.001000,0.001000
1010.634615,-0.047304,0.001000,0.001000,0.001000,0.001000,0.001000
1010.653846,-0.046962,0.001000,0.001000,0.001000,0.001000,0.001000
1010.673077,-0.046601,0.001000,0.001000,0.001000,0.001000,0.001000
1010.692308,-0.046220,0.001000,0.001000,0.001000,0.001000,0.001000
1010.711538,-0.045820,0.001000,0.001000,0.001000,0.001000,0.001000
1010.730769,-0.045400,0.001000,0.001000,0.001000,0.001000,0.001000
1010.750000,-0.044962,0.001000,0.001000,0.001000,0.001000,0.001000
1010.769231,-0.044505,0.001000,0.001000,0.001000,0.001000,0.001000
1010.788462,-0.044029,0.001000,0.001000,0.001000,0.001000,0.001000
1010.807692,-0.043534,0.001000,0.001000,0.001000,0.001000,0.001000
1010.826923,-0.043021,0.001000,0.001000,0.001000,0.001000,0.001000
1010.846154,-0.042490,0.001000,0.001000,0.001000,0.001000,0.001000
1010.865385,-0.041942,0.001000,0.001000,0.001000,0.001000,0.001000
1010.884615,-0.041376,0.001000,0.001000,0.001000,0.001000,0.001000
1010.903846,-0.040792,0.001000,0.001000,0.001000,0.001000,0.001000
1010.923077,-0.040191,0.001000,0.001000,0.001000,0.001000,0.001000
1010.942308,-0.039574,0.001000,0.001000,0.001000,0.001000,0.001000
1010.961538,-0.038940,0.001000,0.001000,0.001000,0.001000,0.001000
1010.980769,-0.038289,0.001000,0.001000,0.001000,0.001000,0.001000
1011.000000,-0.037623,0.001000,0.001000,0.001000,0.001000,0.001000
1011.019231,-0.036941,0.001000,0.001000,0.001000,0.001000,0.001000
1011.038462,-0.036243,0.001000,0.001000,0.001000,0.001000,0.001000
1011.057692,-0.035530,0.001000,0.001000,0.001000,0.001000,0.001000
1011.076923,-0.034802,0.001000,0.001000,0.001000,0.001000,0.001000
1011.096154,-0.034059,0.001000,0.001000,0.001000,0.001000,0.001000
1011.115385,-0.033303,0.001000,0.001000,0.001000,0.001000,0.001000
1011.134615,-0.032532,0.001000,0.001000,0.001000,0.001000,0.001000
1011.153846,-0.031747,0.001000,0.001000,0.001000,0.001000,0.001000
1011.173077,-0.030950,0.001000,0.001000,0.001000,0.001000,0.001000
1011.192308,-0.030139,0.001000,0.001000,0.001000,0.001000,0.001000
1011.211538,-0.029316,0.001000,0.001000,0.001000,0.001000,0.001000
1011.230769,-0.028480,0.001000,0.001000,0.001000,0.001000,0.001000
1011.250000,-0.027633,0.001000,0.001000,0.001000,0.001000,0.001000
1011.269231,-0.026773,0.001000,0.001000,0.001000,0.001000,0.001000
1011.288462,-0.025903,0.001000,0.001000,0.001000,0.001000,0.001000
1011.307692,-0.025022,0.001000,0.001000,0.001000,0.001000,0.001000
1011.326923,-0.024130,0.001000,0.001000,0.001000,0.001000,0.001000
1011.346154,-0.023228,0.001000,0.001000,0.001000,0.001000,0.001000
1011.365385,-0.022317,0.001000,0.001000,0.001000,0.001000,0.001000
1011.384615,-0.021396,0.001000,0.001000,0.001000,0.001000,0.001000
1011.403846,-0.020466,0.001000,0.001000,0.001000,0.001000,0.001000
1011.423077,-0.019527,0.001000,0.001000,0.001000,0.001000,0.001000
1011.442308,-0.018581,0.001000,0.001000,0.001000,0.001000,0.001000
1011.461538,-0.017626,0.001000,0.001000,0.001000,0.001000,0.001000
1011.480769,-0.016664,0.001000,0.001000,0.001000,0.001000,0.001000
1011.500000,-0.015695,0.001000,0.001000,0.001000,0.001000,0.001000
1011.519231,-0.014720,0.001000,0.001000,0.001000,0.001000,0.001000
1011.538462,-0.013738,0.001000,0.001000,0.001000,0.001000,0.001000
1011.557692,-0.012751,0.001000,0.001000,0.001000,0.001000,0.001000
1011.576923,-0.011758,0.001000,0.001000,0.001000,0.001000,0.001000
1011.596154,-0.010760,0.001000,0.001000,0.001000,0.001000,0.001000
1011.615385,-0.009758,0.001000,0.001000,0.001000,0.001000,0.001000
1011.634615,-0.008752,0.001000,0.001000,0.001000,0.001000,0.001000
1011.653846,-0.007742,0.001000,0.001000,0.001000,0.001000,0.001000
1011.673077,-0.006729,0.001000,0.001000,0.001000,0.001000,0.001000
1011.692308,-0.005713,0.001000,0.001000,0.001000,0.001000,0.001000
1011.711538,-0.004694,0.001000,0.001000,0.001000,0.001000,0.001000
1011.730769,-0.003674,0.001000,0.001000,0.001000,0.001000,0.001000
1011.750000,-0.002652,0.001000,0.001000,0.001000,0.001000,0.001000
1011.769231,-0.001629,0.001000,0.001000,0.001000,0.001000,0.001000
1011.788462,-0.000605,0.001000,0.001000,0.001000,0.001000,0.001000
1011.807692,0.000419,0.001000,0.001000,0.001000,0.001000,0.001000
1011.826923,0.001443,0.001000,0.001000,0.001000,0.001000,0.001000
1011.846154,0.002466,0.001000,0.001000,0.001000,0.001000,0.001000
1011.865385,0.003488,0.001000,0.001000,0.001000,0.001000,0.001000
1011.884615,0.004509,0.001000,0.001000,0.001000,0.001000,0.001000
1011.903846,0.005528,0.001000,0.001000,0.001000,0.001000,0.001000
1011.923077,0.006544,0.001000,0.001000,0.001000,0.001000,0.001000
1011.942308,0.007558,0.001000,0.001000,0.001000,0.001000,0.001000
1011.961538,0.008568,0.001000,0.001000,0.001000,0.001000,0.001000
1011.980769,0.009575,0.001000,0.001000,0.001000,0.001000,0.001000
1012.000000,0.010578,0.001000,0.001000,0.001000,0.001000,0.001000
1012.019231,0.011577,0.001000,0.001000,0.001000,0.001000,0.001000
1012.038462,0.012571,0.001000,0.001000,0.001000,0.001000,0.001000
1012.057692,0.013559,0.001000,0.001000,0.001000,0.001000,0.001000
1012.076923,0.014542,0.001000,0.001000,0.001000,0.001000,0.001000
1012.096154,0.015518,0.001000,0.001000,0.001000,0.001000,0.001000
1012.115385,0.016488,0.001000,0.001000,0.001000,0.001000,0.001000
1012.134615,0.017452,0.001000,0.001000,0.001000,0.001000,0.001000
1012.153846,0.018408,0.001000,0.001000,0.001000,0.001000,0.001000
1012.173077,0.019356,0.001000,0.001000,0.001000,0.001000,0.001000
1012.192308,0.020296,0.001000,0.001000,0.001000,0.001000,0.001000
1012.211538,0.021227,0.001000,0.001000,0.001000,0.001000,0.001000
1012.230769,0.022150,0.001000,0.001000,0.001000,0.001000,0.001000
1012.250000,0.023063,0.001000,0.001000,0.001000,0.001000,0.001000
1012.269231,0.023967,0.001000,0.001000,0.001000,0.001000,0.001000
1012.288462,0.024860,0.001000,0.001000,0.001000,0.001000,0.001000
1012.307692,0.025744,0.001000,0.001000,0.001000,0.001000,0.001000
1012.326923,0.026616,0.001000,0.001000,0.001000,0.001000,0.001000
1012.346154,0.027477,0.001000,0.001000,0.001000,0.001000,0.001000
1012.365385,0.028327,0.001000,0.001000,0.001000,0.001000,0.001000
1012.384615,0.029165,0.001000,0.001000,0.001000,0.001000,0.001000
1012.403846,0.029990,0.001000,0.001000,0.001000,0.001000,0.001000
1012.423077,0.030803,0.001000,0.001000,0.001000,0.001000,0.001000
1012.442308,0.031603,0.001000,0.001000,0.001000,0.001000,0.001000
1012.461538,0.032390,0.001000,0.001000,0.001000,0.001000,0.001000
1012.480769,0.033163,0.001000,0.001000,0.001000,0.001000,0.001000
1012.500000,0.033923,0.001000,0.001000,0.001000,0.001000,0.001000
1012.519231,0.034668,0.001000,0.001000,0.001000,0.001000,0.001000
1012.538462,0.035399,0.001000,0.001000,0.001000,0.001000,0.001000
1012.557692,0.036114,0.001000,0.001000,0.001000,0.001000,0.001000
1012.576923,0.036815,0.001000,0.001000,0.001000,0.001000,0.001000
1012.596154,0.037500,0.001000,0.001000,0.001000,0.001000,0.001000
1012.615385,0.038169,0.001000,0.001000,0.001000,0.001000,0.001000
1012.634615,0.038823,0.001000,0.001000,0.001000,0.001000,0.001000
1012.653846,0.039460,0.001000,0.001000,0.001000,0.001000,0.001000
1012.673077,0.040080,0.001000,0.001000,0.001000,0.001000,0.001000
1012.692308,0.040684,0.001000,0.001000,0.001000,0.001000,0.001000
1012.711538,0.041271,0.001000,0.001000,0.001000,0.001000,0.001000
1012.730769,0.041840,0.001000,0.001000,0.001000,0.001000,0.001000
1012.750000,0.042392,0.001000,0.001000,0.001000,0.001000,0.001000
1012.769231,0.042926,0.001000,0.001000,0.001000,0.001000,0.001000
1012.788462,0.043442,0.001000,0.001000,0.001000,0.001000,0.001000
1012.807692,0.043940,0.001000,0.001000,0.001000,0.001000,0.001000
1012.826923,0.044419,0.001000,0.001000,0.001000,0.001000,0.001000
1012.846154,0.044880,0.001000,0.001000,0.001000,0.001000,0.001000
1012.865385,0.045322,0.001000,0.001000,0.001000,0.001000,0.001000
1012.884615,0.045745,0.001000,0.001000,0.001000,0.001000,0.001000
1012.903846,0.046149,0.001000,0.001000,0.001000,0.001000,0.001000
1012.923077,0.046533,0.001000,0.001000,0.001000,0.001000,0.001000
1012.942308,0.046898,0.001000,0.001000,0.001000,0.001000,0.001000
1012.961538,0.047243,0.001000,0.001000,0.001000,0.001000,0.001000
1012.980769,0.047569,0.001000,0.001000,0.001000,0.001000,0.001000
1013.000000,0.047874,0.001000,0.001000,0.001000,0.001000,0.001000
1013.019231,0.048159,0.001000,0.001000,0.001000,0.001000,0.001000
1013.038462,0.048425,0.001000,0.001000,0.001000,0.001000,0.001000
1013.057692,0.048669,0.001000,0.001000,0.001000,0.001000,0.001000
1013.076923,0.048894,0.001000,0.001000,0.001000,0.001000,0.001000
1013.096154,0.049098,0.001000,0.001000,0.001000,0.001000,0.001000
1013.115385,0.049281,0.001000,0.001000,0.001000,0.001000,0.001000
1013.134615,0.049444,0.001000,0.001000,0.001000,0.001000,0.001000
1013.153846,0.049586,0.001000,0.001000,0.001000,0.001000,0.001000
1013.173077,0.049707,0.001000,0.001000,0.001000,0.001000,0.001000
1013.192308,0.049807,0.001000,0.001000,0.001000,0.001000,0.001000
1013.211538,0.049887,0.001000,0.001000,0.001000,0.001000,0.001000
1013.230769,0.049945,0.001000,0.001000,0.001000,0.001000,0.001000
1013.250000,0.049983,0.001000,0.001000,0.001000,0.001000,0.001000
1013.269231,0.049999,0.001000,0.001000,0.001000,0.001000,0.001000
1013.288462,0.049995,0.001000,0.001000,0.001000,0.001000,0.001000
1013.307692,0.049969,0.001000,0.001000,0.001000,0.001000,0.001000
1013.326923,0.049923,0.001000,0.001000,0.001000,0.001000,0.001000
1013.346154,0.049856,0.001000,0.001000,0.001000,0.001000,0.001000
1013.365385,0.049768,0.001000,0.001000,0.001000,0.001000,0.001000
1013.384615,0.049658,0.001000,0.001000,0.001000,0.001000,0.001000
1013.403846,0.049529,0.001000,0.001000,0.001000,0.001000,0.001000
1013.423077,0.049378,0.001000,0.001000,0.001000,0.001000,0.001000
1013.442308,0.049207,0.001000,0.001000,0.001000,0.001000,0.001000
1013.461538,0.049015,0.001000,0.001000,0.001000,0.001000,0.001000
1013.480769,0.048802,0.001000,0.001000,0.001000,0.001000,0.001000
1013.500000,0.048569,0.001000,0.001000,0.001000,0.001000,0.001000
1013.519231,0.048316,0.001000,0.001000,0.001000,0.001000,0.001000
1013.538462,0.048042,0.001000,0.001000,0.001000,0.001000,0.001000
1013.557692,0.047748,0.001000,0.001000,0.001000,0.001000,0.001000
1013.576923,0.047434,0.001000,0.001000,0.001000,0.001000,0.001000
1013.596154,0.047100,0.001000,0.001000,0.001000,0.001000,0.001000
1013.615385,0.046747,0.001000,0.001000,0.001000,0.001000,0.001000
1013.634615,0.046374,0.001000,0.001000,0.001000,0.001000,0.001000
1013.653846,0.045981,0.001000,0.001000,0.001000,0.001000,0.001000
1013.673077,0.045570,0.001000,0.001000,0.001000,0.001000,0.001000
1013.692308,0.045139,0.001000,0.001000,0.001000,0.001000,0.001000
1013.711538,0.044689,0.001000,0.001000,0.001000,0.001000,0.001000
1013.730769,0.044220,0.001000,0.001000,0.001000,0.001000,0.001000
1013.750000,0.043733,0.001000,0.001000,0.001000,0.001000,0.001000
1013.769231,0.043227,0.001000,0.001000,0.001000,0.001000,0.001000
1013.788462,0.042704,0.001000,0.001000,0.001000,0.001000,0.001000
1013.807692,0.042162,0.001000,0.001000,0.001000,0.001000,0.001000
1013.826923,0.041603,0.001000,0.001000,0.001000,0.001000,0.001000
1013.846154,0.041026,0.001000,0.001000,0.001000,0.001000,0.001000
1013.865385,0.040432,0.001000,0.001000,0.001000,0.001000,0.001000
1013.884615,0.039822,0.001000,0.001000,0.001000,0.001000,0.001000
1013.903846,0.039194,0.001000,0.001000,0.001000,0.001000,0.001000
1013.923077,0.038550,0.001000,0.001000,0.001000,0.001000,0.001000
1013.942308,0.037890,0.001000,0.001000,0.001000,0.001000,0.001000
1013.961538,0.037214,0.001000,0.001000,0.001000,0.001000,0.001000
1013.980769,0.036522,0.001000,0.001000,0.001000,0.001000,0.001000
1014.000000,0.035815,0.001000,0.001000,0.001000,0.001000,0.001000
1014.019231,0.035093,0.001000,0.001000,0.001000,0.001000,0.001000
1014.038462,0.034356,0.001000,0.001000,0.001000,0.001000,0.001000
1014.057692,0.033605,0.001000,0.001000,0.001000,0.001000,0.001000
1014.076923,0.032840,0.001000,0.001000,0.001000,0.001000,0.001000
1014.096154,0.032061,0.001000,0.001000,0.001000,0.001000,0.001000
1014.115385,0.031269,0.001000,0.001000,0.001000,0.001000,0.001000
1014.134615,0.030463,0.001000,0.001000,0.001000,0.001000,0.001000
1014.153846,0.029645,0.001000,0.001000,0.001000,0.001000,0.001000
1014.173077,0.028814,0.001000,0.001000,0.001000,0.001000,0.001000
1014.192308,0.027971,0.001000,0.001000,0.001000,0.001000,0.001000
1014.211538,0.027117,0.001000,0.001000,0.001000,0.001000,0.001000
1014.230769,0.026251,0.001000,0.001000,0.001000,0.001000,0.001000
1014.250000,0.025374,0.001000,0.001000,0.001000,0.001000,0.001000
1014.269231,0.024486,0.001000,0.001000,0.001000,0.001000,0.001000
1014.288462,0.023588,0.001000,0.001000,0.001000,0.001000,0.001000
1014.307692,0.022680,0.001000,0.001000,0.001000,0.001000,0.001000
1014.326923,0.021763,0.001000,0.001000,0.001000,0.001000,0.001000
1014.346154,0.020837,0.001000,0.001000,0.001000,0.001000,0.001000
1014.365385,0.019902,0.001000,0.001000,0.001000,0.001000,0.001000
1014.384615,0.018958,0.001000,0.001000,0.001000,0.001000,0.001000
1014.403846,0.018007,0.001000,0.001000,0.001000,0.001000,0.001000
1014.423077,0.017048,0.001000,0.001000,0.001000,0.001000,0.001000
1014.442308,0.016081,0.001000,0.001000,0.001000,0.001000,0.001000
1014.461538,0.015108,0.001000,0.001000,0.001000,0.001000,0.001000
1014.480769,0.014129,0.001000,0.001000,0.001000,0.001000,0.001000
1014.500000,0.013144,0.001000,0.001000,0.001000,0.001000,0.001000
1014.519231,0.012153,0.001000,0.001000,0.001000,0.001000,0.001000
1014.538462,0.011158,0.001000,0.001000,0.001000,0.001000,0.001000
1014.557692,0.010157,0.001000,0.001000,0.001000,0.001000,0.001000
1014.576923,0.009152,0.001000,0.001000,0.001000,0.001000,0.001000
1014.596154,0.008144,0.001000,0.001000,0.001000,0.001000,0.001000
1014.615385,0.007132,0.001000,0.001000,0.001000,0.001000,0.001000
1014.634615,0.006117,0.001000,0.001000,0.001000,0.001000,0.001000
1014.653846,0.005100,0.001000,0.001000,0.001000,0.001000,0.001000
1014.673077,0.004080,0.001000,0.001000,0.001000,0.001000,0.001000
1014.692308,0.003058,0.001000,0.001000,0.001000,0.001000,0.001000
1014.711538,0.002036,0.001000,0.001000,0.001000,0.001000,0.001000
1014.730769,0.001012,0.001000,0.001000,0.001000,0.001000,0.001000
1014.750000,-0.000012,0.001000,0.001000,0.001000,0.001000,0.001000
1014.769231,-0.001036,0.001000,0.001000,0.001000,0.001000,0.001000
1014.788462,-0.002059,0.001000,0.001000,0.001000,0.001000,0.001000
1014.807692,-0.003082,0.001000,0.001000,0.001000,0.001000,0.001000
1014.826923,-0.004103,0.001000,0.001000,0.001000,0.001000,0.001000
1014.846154,-0.005123,0.001000,0.001000,0.001000,0.001000,0.001000
1014.865385,-0.006140,0.001000,0.001000,0.001000,0.001000,0.001000
1014.884615,-0.007155,0.001000,0.001000,0.001000,0.001000,0.001000
1014.903846,-0.008167,0.001000,0.001000,0.001000,0.001000,0.001000
1014.923077,-0.009175,0.001000,0.001000,0.001000,0.001000,0.001000
1014.942308,-0.010180,0.001000,0.001000,0.001000,0.001000,0.001000
1014.961538,-0.011180,0.001000,0.001000,0.001000,0.001000,0.001000
1014.980769,-0.012176,0.001000,0.001000,0.001000,0.001000,0.001000
1015.000000,-0.013167,0.001000,0.001000,0.001000,0.001000,0.001000
1015.019231,-0.014152,0.001000,0.001000,0.001000,0.001000,0.001000
1015.038462,-0.015131,0.001000,0.001000,0.001000,0.001000,0.001000
1015.057692,-0.016103,0.001000,0.001000,0.001000,0.001000,0.001000
1015.076923,-0.017069,0.001000,0.001000,0.001000,0.001000,0.001000
1015.096154,-0.018028,0.001000,0.001000,0.001000,0.001000,0.001000
1015.115385,-0.018980,0.001000,0.001000,0.001000,0.001000,0.001000
1015.134615,-0.019923,0.001000,0.001000,0.001000,0.001000,0.001000
1015.153846,-0.020858,0.001000,0.001000,0.001000,0.001000,0.001000
1015.173077,-0.021784,0.001000,0.001000,0.001000,0.001000,0.001000
1015.192308,-0.022701,0.001000,0.001000,0.001000,0.001000,0.001000
1015.211538,-0.023609,0.001000,0.001000,0.001000,0.001000,0.001000
1015.230769,-0.024506,0.001000,0.001000,0.001000,0.001000,0.001000
1015.250000,-0.025394,0.001000,0.001000,0.001000,0.001000,0.001000
1015.269231,-0.026270,0.001000,0.001000,0.001000,0.001000,0.001000
1015.288462,-0.027136,0.001000,0.001000,0.001000,0.001000,0.001000
1015.307692,-0.027990,0.001000,0.001000,0.001000,0.001000,0.001000
1015.326923,-0.028833,0.001000,0.001000,0.001000,0.001000,0.001000
1015.346154,-0.029663,0.001000,0.001000,0.001000,0.001000,0.001000
1015.365385,-0.030482,0.001000,0.001000,0.001000,0.001000,0.001000
1015.384615,-0.031287,0.001000,0.001000,0.001000,0.001000,0.001000
1015.403846,-0.032079,0.001000,0.001000,0.001000,0.001000,0.001000
1015.423077,-0.032858,0.001000,0.001000,0.001000,0.001000,0.001000
1015.442308,-0.033623,0.001000,0.001000,0.001000,0.001000,0.001000
1015.461538,-0.034373,0.001000,0.001000,0.001000,0.001000,0.001000
1015.480769,-0.035110,0.001000,0.001000,0.001000,0.001000,0.001000
1015.500000,-0.035831,0.001000,0.001000,0.001000,0.001000,0.001000
1015.519231,-0.036538,0.001000,0.001000,0.001000,0.001000,0.001000
1015.538462,-0.037229,0.001000,0.001000,0.001000,0.001000,0.001000
1015.557692,-0.037905,0.001000,0.001000,0.001000,0.001000,0.001000
1015.576923,-0.038565,0.001000,0.001000,0.001000,0.001000,0.001000
1015.596154,-0.039208,0.001000,0.001000,0.001000,0.001000,0.001000
1015.615385,-0.039836,0.001000,0.001000,0.001000,0.001000,0.001000
1015.634615,-0.040446,0.001000,0.001000,0.001000,0.001000,0.001000
1015.653846,-0.041040,0.001000,0.001000,0.001000,0.001000,0.001000
1015.673077,-0.041616,0.001000,0.001000,0.001000,0.001000,0.001000
1015.692308,-0.042175,0.001000,0.001000,0.001000,0.001000,0.001000
1015.711538,-0.042716,0.001000,0.001000,0.001000,0.001000,0.001000
1015.730769,-0.043239,0.001000,0.001000,0.001000,0.001000,0.001000
1015.750000,-0.043744,0.001000,0.001000,0.001000,0.001000,0.001000
1015.769231,-0.044231,0.001000,0.001000,0.001000,0.001000,0.001000
1015.788462,-0.044699,0.001000,0.001000,0.001000,0.001000,0.001000
1015.807692,-0.045149,0.001000,0.001000,0.001000,0.001000,0.001000
1015.826923,-0.045579,0.001000,0.001000,0.001000,0.001000,0.001000
1015.846154,-0.045990,0.001000,0.001000,0.001000,0.001000,0.001000
1015.865385,-0.046383,0.001000,0.001000,0.001000,0.001000,0.001000
1015.884615,-0.046755,0.001000,0.001000,0.001000,0.001000,0.001000
1015.903846,-0.047108,0.001000,0.001000,0.001000,0.001000,0.001000
1015.923077,-0.047442,0.001000,0.001000,0.001000,0.001000,0.001000
1015.942308,-0.047755,0.001000,0.001000,0.001000,0.001000,0.001000
1015.961538,-0.048048,0.001000,0.001000,0.001000,0.001000,0.001000
1015.980769,-0.048322,0.001000,0.001000,0.001000,0.001000,0.001000
1016.000000,-0.048574,0.001000,0.001000,0.001000,0.001000,0.001000
1016.019231,-0.048807,0.001000,0.001000,0.001000,0.001000,0.001000
1016.038462,-0.049019,0.001000,0.001000,0.001000,0.001000,0.001000
1016.057692,-0.049211,0.001000,0.001000,0.001000,0.001000,0.001000
1016.076923,-0.049382,0.001000,0.001000,0.001000,0.001000,0.001000
1016.096154,-0.049532,0.001000,0.001000,0.001000,0.001000,0.001000
1016.115385,-0.049661,0.001000,0.001000,0.001000,0.001000,0.001000
1016.134615,-0.049770,0.001000,0.001000,0.001000,0.001000,0.001000
1016.153846,-0.049857,0.001000,0.001000,0.001000,0.001000,0.001000
1016.173077,-0.049924,0.001000,0.001000,0.001000,0.001000,0.001000
1016.192308,-0.049970,0.001000,0.001000,0.001000,0.001000,0.001000
1016.211538,-0.049995,0.001000,0.001000,0.001000,0.001000,0.001000
1016.230769,-0.049999,0.001000,0.001000,0.001000,0.001000,0.001000
1016.250000,-0.049982,0.001000,0.001000,0.001000,0.001000,0.001000
1016.269231,-0.049944,0.001000,0.001000,0.001000,0.001000,0.001000
1016.288462,-0.049885,0.001000,0.001000,0.001000,0.001000,0.001000
1016.307692,-0.049805,0.001000,0.001000,0.001000,0.001000,0.001000
1016.326923,-0.049704,0.001000,0.001000,0.001000,0.001000,0.001000
1016.346154,-0.049583,0.001000,0.001000,0.001000,0.001000,0.001000
1016.365385,-0.049440,0.001000,0.001000,0.001000,0.001000,0.001000
1016.384615,-0.049277,0.001000,0.001000,0.001000,0.001000,0.001000
1016.403846,-0.049093,0.001000,0.001000,0.001000,0.001000,0.001000
1016.423077,-0.048889,0.001000,0.001000,0.001000,0.001000,0.001000
1016.442308,-0.048664,0.001000,0.001000,0.001000,0.001000,0.001000
1016.461538,-0.048419,0.001000,0.001000,0.001000,0.001000,0.001000
1016.480769,-0.048153,0.001000,0.001000,0.001000,0.001000,0.001000
1016.500000,-0.047867,0.001000,0.001000,0.001000,0.001000,0.001000
1016.519231,-0.047561,0.001000,0.001000,0.001000,0.001000,0.001000
1016.538462,-0.047236,0.001000,0.001000,0.001000,0.001000,0.001000
1016.557692,-0.046890,0.001000,0.001000,0.001000,0.001000,0.001000
1016.576923,-0.046525,0.001000,0.001000,0.001000,0.001000,0.001000
1016.596154,-0.046140,0.001000,0.001000,0.001000,0.001000,0.001000
1016.615385,-0.045736,0.001000,0.001000,0.001000,0.001000,0.001000
1016.634615,-0.045312,0.001000,0.001000,0.001000,0.001000,0.001000
1016.653846,-0.044870,0.001000,0.001000,0.001000,0.001000,0.001000
1016.673077,-0.044409,0.001000,0.001000,0.001000,0.001000,0.001000
1016.692308,-0.043929,0.001000,0.001000,0.001000,0.001000,0.001000
1016.711538,-0.043431,0.001000,0.001000,0.001000,0.001000,0.001000
1016.730769,-0.042914,0.001000,0.001000,0.001000,0.001000,0.001000
1016.750000,-0.042380,0.001000,0.001000,0.001000,0.001000,0.001000
1016.769231,-0.041827,0.001000,0.001000,0.001000,0.001000,0.001000
1016.788462,-0.041258,0.001000,0.001000,0.001000,0.001000,0.001000
1016.807692,-0.040671,0.001000,0.001000,0.001000,0.001000,0.001000
1016.826923,-0.040066,0.001000,0.001000,0.001000,0.001000,0.001000
1016.846154,-0.039446,0.001000,0.001000,0.001000,0.001000,0.001000
1016.865385,-0.038808,0.001000,0.001000,0.001000,0.001000,0.001000
1016.884615,-0.038154,0.001000,0.001000,0.001000,0.001000,0.001000
1016.903846,-0.037485,0.001000,0.001000,0.001000,0.001000,0.001000
1016.923077,-0.036799,0.001000,0.001000,0.001000,0.001000,0.001000
1016.942308,-0.036098,0.001000,0.001000,0.001000,0.001000,0.001000
1016.961538,-0.035382,0.001000,0.001000,0.001000,0.001000,0.001000
1016.980769,-0.034651,0.001000,0.001000,0.001000,0.001000,0.001000
1017.000000,-0.033906,0.001000,0.001000,0.001000,0.001000,0.001000
1017.019231,-0.033146,0.001000,0.001000,0.001000,0.001000,0.001000
1017.038462,-0.032373,0.001000,0.001000,0.001000,0.001000,0.001000
1017.057692,-0.031585,0.001000,0.001000,0.001000,0.001000,0.001000
1017.076923,-0.030785,0.001000,0.001000,0.001000,0.001000,0.001000
1017.096154,-0.029972,0.001000,0.001000,0.001000,0.001000,0.001000
1017.115385,-0.029146,0.001000,0.001000,0.001000,0.001000,0.001000
1017.134615,-0.028308,0.001000,0.001000,0.001000,0.001000,0.001000
1017.153846,-0.027458,0.001000,0.001000,0.001000,0.001000,0.001000
1017.173077,-0.026596,0.001000,0.001000,0.001000,0.001000,0.001000
1017.192308,-0.025724,0.001000,0.001000,0.001000,0.001000,0.001000
1017.211538,-0.024840,0.001000,0.001000,0.001000,0.001000,0.001000
1017.230769,-0.023946,0.001000,0.001000,0.001000,0.001000,0.001000
1017.250000,-0.023043,0.001000,0.001000,0.001000,0.001000,0.001000
1017.269231,-0.022129,0.001000,0.001000,0.001000,0.001000,0.001000
1017.288462,-0.021206,0.001000,0.001000,0.001000,0.001000,0.001000
1017.307692,-0.020274,0.001000,0.001000,0.001000,0.001000,0.001000
1017.326923,-0.019334,0.001000,0.001000,0.001000,0.001000,0.001000
1017.346154,-0.018386,0.001000,0.001000,0.001000,0.001000,0.001000
1017.365385,-0.017430,0.001000,0.001000,0.001000,0.001000,0.001000
1017.384615,-0.016466,0.001000,0.001000,0.001000,0.001000,0.001000
1017.403846,-0.015496,0.001000,0.001000,0.001000,0.001000,0.001000
1017.423077,-0.014519,0.001000,0.001000,0.001000,0.001000,0.001000
1017.442308,-0.013537,0.001000,0.001000,0.001000,0.001000,0.001000
1017.461538,-0.012548,0.001000,0.001000,0.001000,0.001000,0.001000
1017.480769,-0.011554,0.001000,0.001000,0.001000,0.001000,0.001000
1017.500000,-0.010556,0.001000,0.001000,0.001000,0.001000,0.001000
1017.519231,-0.009553,0.001000,0.001000,0.001000,0.001000,0.001000
1017.538462,-0.008546,0.001000,0.001000,0.001000,0.001000,0.001000
1017.557692,-0.007535,0.001000,0.001000,0.001000,0.001000,0.001000
1017.576923,-0.006521,0.001000,0.001000,0.001000,0.001000,0.001000
1017.596154,-0.005504,0.001000,0.001000,0.001000,0.001000,0.001000
1017.615385,-0.004486,0.001000,0.001000,0.001000,0.001000,0.001000
1017.634615,-0.003465,0.001000,0.001000,0.001000,0.001000,0.001000
1017.653846,-0.002443,0.001000,0.001000,0.001000,0.001000,0.001000
1017.673077,-0.001419,0.001000,0.001000,0.001000,0.001000,0.001000
1017.692308,-0.000396,0.001000,0.001000,0.001000,0.001000,0.001000
1017.711538,0.000628,0.001000,0.001000,0.001000,0.001000,0.001000
1017.730769,0.001652,0.001000,0.001000,0.001000,0.001000,0.001000
1017.750000,0.002675,0.001000,0.001000,0.001000,0.001000,0.001000
1017.769231,0.003697,0.001000,0.001000,0.001000,0.001000,0.001000
1017.788462,0.004717,0.001000,0.001000,0.001000,0.001000,0.001000
1017.807692,0.005736,0.001000,0.001000,0.001000,0.001000,0.001000
1017.826923,0.006752,0.001000,0.001000,0.001000,0.001000,0.001000
1017.846154,0.007765,0.001000,0.001000,0.001000,0.001000,0.001000
1017.865385,0.008775,0.001000,0.001000,0.001000,0.001000,0.001000
1017.884615,0.009781,0.001000,0.001000,0.001000,0.001000,0.001000
1017.903846,0.010783,0.001000,0.001000,0.001000,0.001000,0.001000
1017.923077,0.011781,0.001000,0.001000,0.001000,0.001000,0.001000
1017.942308,0.012773,0.001000,0.001000,0.001000,0.001000,0.001000
1017.961538,0.013760,0.001000,0.001000,0.001000,0.001000,0.001000
1017.980769,0.014742,0.001000,0.001000,0.001000,0.001000,0.001000
1018.000000,0.015717,0.001000,0.001000,0.001000,0.001000,0.001000
1018.019231,0.016686,0.001000,0.001000,0.001000,0.001000,0.001000
1018.038462,0.017648,0.001000,0.001000,0.001000,0.001000,0.001000
1018.057692,0.018602,0.001000,0.001000,0.001000,0.001000,0.001000
1018.076923,0.019549,0.001000,0.001000,0.001000,0.001000,0.001000
1018.096154,0.020487,0.001000,0.001000,0.001000,0.001000,0.001000
1018.115385,0.021417,0.001000,0.001000,0.001000,0.001000,0.001000
1018.134615,0.022337,0.001000,0.001000,0.001000,0.001000,0.001000
1018.153846,0.023249,0.001000,0.001000,0.001000,0.001000,0.001000
1018.173077,0.024150,0.001000,0.001000,0.001000,0.001000,0.001000
1018.192308,0.025042,0.001000,0.001000,0.001000,0.001000,0.001000
1018.211538,0.025923,0.001000,0.001000,0.001000,0.001000,0.001000
1018.230769,0.026793,0.001000,0.001000,0.001000,0.001000,0.001000
1018.250000,0.027652,0.001000,0.001000,0.001000,0.001000,0.001000
1018.269231,0.028499,0.001000,0.001000,0.001000,0.001000,0.001000
1018.288462,0.029335,0.001000,0.001000,0.001000,0.001000,0.001000
1018.307692,0.030158,0.001000,0.001000,0.001000,0.001000,0.001000
1018.326923,0.030968,0.001000,0.001000,0.001000,0.001000,0.001000
1018.346154,0.031765,0.001000,0.001000,0.001000,0.001000,0.001000
1018.365385,0.032550,0.001000,0.001000,0.001000,0.001000,0.001000
1018.384615,0.033320,0.001000,0.001000,0.001000,0.001000,0.001000
1018.403846,0.034076,0.001000,0.001000,0.001000,0.001000,0.001000
1018.423077,0.034819,0.001000,0.001000,0.001000,0.001000,0.001000
1018.442308,0.035546,0.001000,0.001000,0.001000,0.001000,0.001000
1018.461538,0.036259,0.001000,0.001000,0.001000,0.001000,0.001000
1018.480769,0.036956,0.001000,0.001000,0.001000,0.001000,0.001000
1018.500000,0.037638,0.001000,0.001000,0.001000,0.001000,0.001000
1018.519231,0.038304,0.001000,0.001000,0.001000,0.001000,0.001000
1018.538462,0.038954,0.001000,0.001000,0.001000,0.001000,0.001000
1018.557692,0.039588,0.001000,0.001000,0.001000,0.001000,0.001000
1018.576923,0.040205,0.001000,0.001000,0.001000,0.001000,0.001000
1018.596154,0.040806,0.001000,0.001000,0.001000,0.001000,0.001000
1018.615385,0.041389,0.001000,0.001000,0.001000,0.001000,0.001000
1018.634615,0.041955,0.001000,0.001000,0.001000,0.001000,0.001000
1018.653846,0.042503,0.001000,0.001000,0.001000,0.001000,0.001000
1018.673077,0.043033,0.001000,0.001000,0.001000,0.001000,0.001000
1018.692308,0.043545,0.001000,0.001000,0.001000,0.001000,0.001000
1018.711538,0.044040,0.001000,0.001000,0.001000,0.001000,0.001000
1018.730769,0.044515,0.001000,0.001000,0.001000,0.001000,0.001000
1018.750000,0.044972,0.001000,0.001000,0.001000,0.001000,0.001000
1018.769231,0.045410,0.001000,0.001000,0.001000,0.001000,0.001000
1018.788462,0.045829,0.001000,0.001000,0.001000,0.001000,0.001000
1018.807692,0.046229,0.001000,0.001000,0.001000,0.001000,0.001000
1018.826923,0.046609,0.001000,0.001000,0.001000,0.001000,0.001000
1018.846154,0.046970,0.001000,0.001000,0.001000,0.001000,0.001000
1018.865385,0.047311,0.001000,0.001000,0.001000,0.001000,0.001000
1018.884615,0.047633,0.001000,0.001000,0.001000,0.001000,0.001000
1018.903846,0.047934,0.001000,0.001000,0.001000,0.001000,0.001000
1018.923077,0.048215,0.001000,0.001000,0.001000,0.001000,0.001000
1018.942308,0.048476,0.001000,0.001000,0.001000,0.001000,0.001000
1018.961538,0.048717,0.001000,0.001000,0.001000,0.001000,0.001000
1018.980769,0.048937,0.001000,0.001000,0.001000,0.001000,0.001000
1019.000000,0.049137,0.001000,0.001000,0.001000,0.001000,0.001000
1019.019231,0.049316,0.001000,0.001000,0.001000,0.001000,0.001000
1019.038462,0.049475,0.001000,0.001000,0.001000,0.001000,0.001000
1019.057692,0.049612,0.001000,0.001000,0.001000,0.001000,0.001000
1019.076923,0.049729,0.001000,0.001000,0.001000,0.001000,0.001000
1019.096154,0.049825,0.001000,0.001000,0.001000,0.001000,0.001000
1019.115385,0.049900,0.001000,0.001000,0.001000,0.001000,0.001000
1019.134615,0.049954,0.001000,0.001000,0.001000,0.001000,0.001000
1019.153846,0.049988,0.001000,0.001000,0.001000,0.001000,0.001000
1019.173077,0.050000,0.001000,0.001000,0.001000,0.001000,0.001000
1019.192308,0.049991,0.001000,0.001000,0.001000,0.001000,0.001000
1019.211538,0.049962,0.001000,0.001000,0.001000,0.001000,0.001000
1019.230769,0.049911,0.001000,0.001000,0.001000,0.001000,0.001000
1019.250000,0.049839,0.001000,0.001000,0.001000,0.001000,0.001000
1019.269231,0.049747,0.001000,0.001000,0.001000,0.001000,0.001000
1019.288462,0.049634,0.001000,0.001000,0.001000,0.001000,0.001000
1019.307692,0.049499,0.001000,0.001000,0.001000,0.001000,0.001000
1019.326923,0.049345,0.001000,0.001000,0.001000,0.001000,0.001000
1019.346154,0.049169,0.001000,0.001000,0.001000,0.001000,0.001000
1019.365385,0.048973,0.001000,0.001000,0.001000,0.001000,0.001000
1019.384615,0.048756,0.001000,0.001000,0.001000,0.001000,0.001000
1019.403846,0.048519,0.001000,0.001000,0.001000,0.001000,0.001000
1019.423077,0.048261,0.001000,0.001000,0.001000,0.001000,0.001000
1019.442308,0.047983,0.001000,0.001000,0.001000,0.001000,0.001000
1019.461538,0.047686,0.001000,0.001000,0.001000,0.001000,0.001000
1019.480769,0.047368,0.001000,0.001000,0.001000,0.001000,0.001000
1019.500000,0.047030,0.001000,0.001000,0.001000,0.001000,0.001000
1019.519231,0.046672,0.001000,0.001000,0.001000,0.001000,0.001000
1019.538462,0.046295,0.001000,0.001000,0.001000,0.001000,0.001000
1019.557692,0.045899,0.001000,0.001000,0.001000,0.001000,0.001000
1019.576923,0.045483,0.001000,0.001000,0.001000,0.001000,0.001000
1019.596154,0.045048,0.001000,0.001000,0.001000,0.001000,0.001000
1019.615385,0.044594,0.001000,0.001000,0.001000,0.001000,0.001000
1019.634615,0.044122,0.001000,0.001000,0.001000,0.001000,0.001000
1019.653846,0.043631,0.001000,0.001000,0.001000,0.001000,0.001000
1019.673077,0.043122,0.001000,0.001000,0.001000,0.001000,0.001000
1019.692308,0.042594,0.001000,0.001000,0.001000,0.001000,0.001000
1019.711538,0.042049,0.001000,0.001000,0.001000,0.001000,0.001000
1019.730769,0.041486,0.001000,0.001000,0.001000,0.001000,0.001000
1019.750000,0.040906,0.001000,0.001000,0.001000,0.001000,0.001000
1019.769231,0.040309,0.001000,0.001000,0.001000,0.001000,0.001000
1019.788462,0.039695,0.001000,0.001000,0.001000,0.001000,0.001000
1019.807692,0.039064,0.001000,0.001000,0.001000,0.001000,0.001000
1019.826923,0.038416,0.001000,0.001000,0.001000,0.001000,0.001000
1019.846154,0.037753,0.001000,0.001000,0.001000,0.001000,0.001000
1019.865385,0.037074,0.001000,0.001000,0.001000,0.001000,0.001000
1019.884615,0.036379,0.001000,0.001000,0.001000,0.001000,0.001000
1019.903846,0.035669,0.001000,0.001000,0.001000,0.001000,0.001000
1019.923077,0.034944,0.001000,0.001000,0.001000,0.001000,0.001000
1019.942308,0.034204,0.001000,0.001000,0.001000,0.001000,0.001000
1019.961538,0.033450,0.001000,0.001000,0.001000,0.001000,0.001000
1019.980769,0.032682,0.001000,0.001000,0.001000,0.001000,0.001000
1020.000000,0.031900,0.001000,0.001000,0.001000,0.001000,0.001000
1020.019231,0.031105,0.001000,0.001000,0.001000,0.001000,0.001000
1020.038462,0.030297,0.001000,0.001000,0.001000,0.001000,0.001000
1020.057692,0.029476,0.001000,0.001000,0.001000,0.001000,0.001000
1020.076923,0.028643,0.001000,0.001000,0.001000,0.001000,0.001000
1020.096154,0.027797,0.001000,0.001000,0.001000,0.001000,0.001000
1020.115385,0.026940,0.001000,0.001000,0.001000,0.001000,0.001000
1020.134615,0.026072,0.001000,0.001000,0.001000,0.001000,0.001000
1020.153846,0.025193,0.001000,0.001000,0.001000,0.001000,0.001000
1020.173077,0.024303,0.001000,0.001000,0.001000,0.001000,0.001000
1020.192308,0.023403,0.001000,0.001000,0.001000,0.001000,0.001000
1020.211538,0.022493,0.001000,0.001000,0.001000,0.001000,0.001000
1020.230769,0.021574,0.001000,0.001000,0.001000,0.001000,0.001000
1020.250000,0.020646,0.001000,0.001000,0.001000,0.001000,0.001000
1020.269231,0.019709,0.001000,0.001000,0.001000,0.001000,0.001000
1020.288462,0.018764,0.001000,0.001000,0.001000,0.001000,0.001000
1020.307692,0.017811,0.001000,0.001000,0.001000,0.001000,0.001000
1020.326923,0.016850,0.001000,0.001000,0.001000,0.001000,0.001000
1020.346154,0.015883,0.001000,0.001000,0.001000,0.001000,0.001000
1020.365385,0.014909,0.001000,0.001000,0.001000,0.001000,0.001000
1020.384615,0.013928,0.001000,0.001000,0.001000,0.001000,0.001000
1020.403846,0.012942,0.001000,0.001000,0.001000,0.001000,0.001000
1020.423077,0.011950,0.001000,0.001000,0.001000,0.001000,0.001000
1020.442308,0.010953,0.001000,0.001000,0.001000,0.001000,0.001000
1020.461538,0.009952,0.001000,0.001000,0.001000,0.001000,0.001000
1020.480769,0.008947,0.001000,0.001000,0.001000,0.001000,0.001000
1020.500000,0.007937,0.001000,0.001000,0.001000,0.001000,0.001000
1020.519231,0.006925,0.001000,0.001000,0.001000,0.001000,0.001000
1020.538462,0.005909,0.001000,0.001000,0.001000,0.001000,0.001000
1020.557692,0.004891,0.001000,0.001000,0.001000,0.001000,0.001000
1020.576923,0.003871,0.001000,0.001000,0.001000,0.001000,0.001000
1020.596154,0.002849,0.001000,0.001000,0.001000,0.001000,0.001000
1020.615385,0.001827,0.001000,0.001000,0.001000,0.001000,0.001000
1020.634615,0.000803,0.001000,0.001000,0.001000,0.001000,0.001000
1020.653846,-0.000221,0.001000,0.001000,0.001000,0.001000,0.001000
1020.673077,-0.001245,0.001000,0.001000,0.001000,0.001000,0.001000
1020.692308,-0.002268,0.001000,0.001000,0.001000,0.001000,0.001000
1020.711538,-0.003291,0.001000,0.001000,0.001000,0.001000,0.001000
1020.730769,-0.004312,0.001000,0.001000,0.001000,0.001000,0.001000
1020.750000,-0.005331,0.001000,0.001000,0.001000,0.001000,0.001000
1020.769231,-0.006348,0.001000,0.001000,0.001000,0.001000,0.001000
1020.788462,-0.007362,0.001000,0.001000,0.001000,0.001000,0.001000
1020.807692,-0.008373,0.001000,0.001000,0.001000,0.001000,0.001000
1020.826923,-0.009381,0.001000,0.001000,0.001000,0.001000,0.001000
1020.846154,-0.010385,0.001000,0.001000,0.001000,0.001000,0.001000
1020.865385,-0.011384,0.001000,0.001000,0.001000,0.001000,0.001000
1020.884615,-0.012379,0.001000,0.001000,0.001000,0.001000,0.001000
1020.903846,-0.013368,0.001000,0.001000,0.001000,0.001000,0.001000
1020.923077,-0.014352,0.001000,0.001000,0.001000,0.001000,0.001000
1020.942308,-0.015330,0.001000,0.001000,0.001000,0.001000,0.001000
1020.961538,-0.016302,0.001000,0.001000,0.001000,0.001000,0.001000
1020.980769,-0.017266,0.001000,0.001000,0.001000,0.001000,0.001000
1021.000000,-0.018223,0.001000,0.001000,0.001000,0.001000,0.001000
1021.019231,-0.019173,0.001000,0.001000,0.001000,0.001000,0.001000
1021.038462,-0.020115,0.001000,0.001000,0.001000,0.001000,0.001000
1021.057692,-0.021048,0.001000,0.001000,0.001000,0.001000,0.001000
1021.076923,-0.021972,0.001000,0.001000,0.001000,0.001000,0.001000
1021.096154,-0.022887,0.001000,0.001000,0.001000,0.001000,0.001000
1021.115385,-0.023793,0.001000,0.001000,0.001000,0.001000,0.001000
1021.134615,-0.024689,0.001000,0.001000,0.001000,0.001000,0.001000
1021.153846,-0.025574,0.001000,0.001000,0.001000,0.001000,0.001000
1021.173077,-0.026448,0.001000,0.001000,0.001000,0.001000,0.001000
1021.192308,-0.027312,0.001000,0.001000,0.001000,0.001000,0.001000
1021.211538,-0.028164,0.001000,0.001000,0.001000,0.001000,0.001000
1021.230769,-0.029004,0.001000,0.001000,0.001000,0.001000,0.001000
1021.250000,-0.029832,0.001000,0.001000,0.001000,0.001000,0.001000
1021.269231,-0.030647,0.001000,0.001000,0.001000,0.001000,0.001000
1021.288462,-0.031450,0.001000,0.001000,0.001000,0.001000,0.001000
1021.307692,-0.032239,0.001000,0.001000,0.001000,0.001000,0.001000
1021.326923,-0.033015,0.001000,0.001000,0.001000,0.001000,0.001000
1021.346154,-0.033777,0.001000,0.001000,0.001000,0.001000,0.001000
1021.365385,-0.034525,0.001000,0.001000,0.001000,0.001000,0.001000
1021.384615,-0.035259,0.001000,0.001000,0.001000,0.001000,0.001000
1021.403846,-0.035977,0.001000,0.001000,0.001000,0.001000,0.001000
1021.423077,-0.036681,0.001000,0.001000,0.001000,0.001000,0.001000
1021.442308,-0.037369,0.001000,0.001000,0.001000,0.001000,0.001000
1021.461538,-0.038041,0.001000,0.001000,0.001000,0.001000,0.001000
1021.480769,-0.038698,0.001000,0.001000,0.001000,0.001000,0.001000
1021.500000,-0.039338,0.001000,0.001000,0.001000,0.001000,0.001000
1021.519231,-0.039962,0.001000,0.001000,0.001000,0.001000,0.001000
1021.538462,-0.040569,0.001000,0.001000,0.001000,0.001000,0.001000
1021.557692,-0.041159,0.001000,0.001000,0.001000,0.001000,0.001000
1021.576923,-0.041732,0.001000,0.001000,0.001000,0.001000,0.001000
1021.596154,-0.042287,0.001000,0.001000,0.001000,0.001000,0.001000
1021.615385,-0.042824,0.001000,0.001000,0.001000,0.001000,0.001000
1021.634615,-0.043344,0.001000,0.001000,0.001000,0.001000,0.001000
1021.653846,-0.043845,0.001000,0.001000,0.001000,0.001000,0.001000
1021.673077,-0.044328,0.001000,0.001000,0.001000,0.001000,0.001000
1021.692308,-0.044793,0.001000,0.001000,0.001000,0.001000,0.001000
1021.711538,-0.045238,0.001000,0.001000,0.001000,0.001000,0.001000
1021.730769,-0.045665,0.001000,0.001000,0.001000,0.001000,0.001000
1021.750000,-0.046072,0.001000,0.001000,0.001000,0.001000,0.001000
1021.769231,-0.046460,0.001000,0.001000,0.001000,0.001000,0.001000
1021.788462,-0.046829,0.001000,0.001000,0.001000,0.001000,0.001000
1021.807692,-0.047178,0.001000,0.001000,0.001000,0.001000,0.001000
1021.826923,-0.047507,0.001000,0.001000,0.001000,0.001000,0.001000
1021.846154,-0.047817,0.001000,0.001000,0.001000,0.001000,0.001000
1021.865385,-0.048106,0.001000,0.001000,0.001000,0.001000,0.001000
1021.884615,-0.048375,0.001000,0.001000,0.001000,0.001000,0.001000
1021.903846,-0.048624,0.001000,0.001000,0.001000,0.001000,0.001000
1021.923077,-0.048852,0.001000,0.001000,0.001000,0.001000,0.001000
1021.942308,-0.049060,0.001000,0.001000,0.001000,0.001000,0.001000
1021.961538,-0.049247,0.001000,0.001000,0.001000,0.001000,0.001000
1021.980769,-0.049414,0.001000,0.001000,0.001000,0.001000,0.001000
1022.000000,-0.049560,0.001000,0.001000,0.001000,0.001000,0.001000
1022.019231,-0.049685,0.001000,0.001000,0.001000,0.001000,0.001000
1022.038462,-0.049789,0.001000,0.001000,0.001000,0.001000,0.001000
1022.057692,-0.049873,0.001000,0.001000,0.001000,0.001000,0.001000
1022.076923,-0.049935,0.001000,0.001000,0.001000,0.001000,0.001000
1022.096154,-0.049977,0.001000,0.001000,0.001000,0.001000,0.001000
1022.115385,-0.049998,0.001000,0.001000,0.001000,0.001000,0.001000
1022.134615,-0.049997,0.001000,0.001000,0.001000,0.001000,0.001000
1022.153846,-0.049976,0.001000,0.001000,0.001000,0.001000,0.001000
1022.173077,-0.049934,0.001000,0.001000,0.001000,0.001000,0.001000
1022.192308,-0.049870,0.001000,0.001000,0.001000,0.001000,0.001000
1022.211538,-0.049786,0.001000,0.001000,0.001000,0.001000,0.001000
1022.230769,-0.049681,0.001000,0.001000,0.001000,0.001000,0.001000
1022.250000,-0.049555,0.001000,0.001000,0.001000,0.001000,0.001000
1022.269231,-0.049409,0.001000,0.001000,0.001000,0.001000,0.001000
1022.288462,-0.049241,0.001000,0.001000,0.001000,0.001000,0.001000
1022.307692,-0.049053,0.001000,0.001000,0.001000,0.001000,0.001000
1022.326923,-0.048845,0.001000,0.001000,0.001000,0.001000,0.001000
1022.346154,-0.048616,0.001000,0.001000,0.001000,0.001000,0.001000
1022.365385,-0.048366,0.001000,0.001000,0.001000,0.001000,0.001000
1022.384615,-0.048096,0.001000,0.001000,0.001000,0.001000,0.001000
1022.403846,-0.047806,0.001000,0.001000,0.001000,0.001000,0.001000
1022.423077,-0.047496,0.001000,0.001000,0.001000,0.001000,0.001000
1022.442308,-0.047167,0.001000,0.001000,0.001000,0.001000,0.001000
1022.461538,-0.046817,0.001000,0.001000,0.001000,0.001000,0.001000
1022.480769,-0.046448,0.001000,0.001000,0.001000,0.001000,0.001000
1022.500000,-0.046059,0.001000,0.001000,0.001000,0.001000,0.001000
1022.519231,-0.045651,0.001000,0.001000,0.001000,0.001000,0.001000
1022.538462,-0.045223,0.001000,0.001000,0.001000,0.001000,0.001000
1022.557692,-0.044777,0.001000,0.001000,0.001000,0.001000,0.001000
1022.576923,-0.044312,0.001000,0.001000,0.001000,0.001000,0.001000
1022.596154,-0.043828,0.001000,0.001000,0.001000,0.001000,0.001000
1022.615385,-0.043326,0.001000,0.001000,0.001000,0.001000,0.001000
1022.634615,-0.042806,0.001000,0.001000,0.001000,0.001000,0.001000
1022.653846,-0.042268,0.001000,0.001000,0.001000,0.001000,0.001000
1022.673077,-0.041712,0.001000,0.001000,0.001000,0.001000,0.001000
1022.692308,-0.041139,0.001000,0.001000,0.001000,0.001000,0.001000
1022.711538,-0.040548,0.001000,0.001000,0.001000,0.001000,0.001000
1022.730769,-0.039941,0.001000,0.001000,0.001000,0.001000,0.001000
1022.750000,-0.039317,0.001000,0.001000,0.001000,0.001000,0.001000
1022.769231,-0.038676,0.001000,0.001000,0.001000,0.001000,0.001000
1022.788462,-0.038019,0.001000,0.001000,0.001000,0.001000,0.001000
1022.807692,-0.037346,0.001000,0.001000,0.001000,0.001000,0.001000
1022.826923,-0.036657,0.001000,0.001000,0.001000,0.001000,0.001000
1022.846154,-0.035953,0.001000,0.001000,0.001000,0.001000,0.001000
1022.865385,-0.035234,0.001000,0.001000,0.001000,0.001000,0.001000
1022.884615,-0.034500,0.001000,0.001000,0.001000,0.001000,0.001000
1022.903846,-0.033752,0.001000,0.001000,0.001000,0.001000,0.001000
1022.923077,-0.032989,0.001000,0.001000,0.001000,0.001000,0.001000
1022.942308,-0.032213,0.001000,0.001000,0.001000,0.001000,0.001000
1022.961538,-0.031423,0.001000,0.001000,0.001000,0.001000,0.001000
1022.980769,-0.030620,0.001000,0.001000,0.001000,0.001000,0.001000
1023.000000,-0.029804,0.001000,0.001000,0.001000,0.001000,0.001000
1023.019231,-0.028975,0.001000,0.001000,0.001000,0.001000,0.001000
1023.038462,-0.028135,0.001000,0.001000,0.001000,0.001000,0.001000
1023.057692,-0.027283,0.001000,0.001000,0.001000,0.001000,0.001000
1023.076923,-0.026419,0.001000,0.001000,0.001000,0.001000,0.001000
1023.096154,-0.025544,0.001000,0.001000,0.001000,0.001000,0.001000
1023.115385,-0.024658,0.001000,0.001000,0.001000,0.001000,0.001000
1023.134615,-0.023762,0.001000,0.001000,0.001000,0.001000,0.001000
1023.153846,-0.022856,0.001000,0.001000,0.001000,0.001000,0.001000
1023.173077,-0.021941,0.001000,0.001000,0.001000,0.001000,0.001000
1023.192308,-0.021016,0.001000,0.001000,0.001000,0.001000,0.001000
1023.211538,-0.020083,0.001000,0.001000,0.001000,0.001000,0.001000
1023.230769,-0.019141,0.001000,0.001000,0.001000,0.001000,0.001000
1023.250000,-0.018191,0.001000,0.001000,0.001000,0.001000,0.001000
1023.269231,-0.017233,0.001000,0.001000,0.001000,0.001000,0.001000
1023.288462,-0.016269,0.001000,0.001000,0.001000,0.001000,0.001000
1023.307692,-0.015297,0.001000,0.001000,0.001000,0.001000,0.001000
1023.326923,-0.014319,0.001000,0.001000,0.001000,0.001000,0.001000
1023.346154,-0.013335,0.001000,0.001000,0.001000,0.001000,0.001000
1023.365385,-0.012345,0.001000,0.001000,0.001000,0.001000,0.001000
1023.384615,-0.011350,0.001000,0.001000,0.001000,0.001000,0.001000
1023.403846,-0.010351,0.001000,0.001000,0.001000,0.001000,0.001000
1023.423077,-0.009347,0.001000,0.001000,0.001000,0.001000,0.001000
1023.442308,-0.008339,0.001000,0.001000,0.001000,0.001000,0.001000
1023.461538,-0.007328,0.001000,0.001000,0.001000,0.001000,0.001000
1023.480769,-0.006313,0.001000,0.001000,0.001000,0.001000,0.001000
1023.500000,-0.005296,0.001000,0.001000,0.001000,0.001000,0.001000
1023.519231,-0.004277,0.001000,0.001000,0.001000,0.001000,0.001000
1023.538462,-0.003256,0.001000,0.001000,0.001000,0.001000,0.001000
1023.557692,-0.002233,0.001000,0.001000,0.001000,0.001000,0.001000
1023.576923,-0.001210,0.001000,0.001000,0.001000,0.001000,0.001000
1023.596154,-0.000186,0.001000,0.001000,0.001000,0.001000,0.001000
1023.615385,0.000838,0.001000,0.001000,0.001000,0.001000,0.001000
1023.634615,0.001861,0.001000,0.001000,0.001000,0.001000,0.001000
1023.653846,0.002884,0.001000,0.001000,0.001000,0.001000,0.001000
1023.673077,0.003906,0.001000,0.001000,0.001000,0.001000,0.001000
1023.692308,0.004926,0.001000,0.001000,0.001000,0.001000,0.001000
1023.711538,0.005944,0.001000,0.001000,0.001000,0.001000,0.001000
1023.730769,0.006959,0.001000,0.001000,0.001000,0.001000,0.001000
1023.750000,0.007972,0.001000,0.001000,0.001000,0.001000,0.001000
1023.769231,0.008981,0.001000,0.001000,0.001000,0.001000,0.001000
1023.788462,0.009986,0.001000,0.001000,0.001000,0.001000,0.001000
1023.807692,0.010987,0.001000,0.001000,0.001000,0.001000,0.001000
1023.826923,0.011984,0.001000,0.001000,0.001000,0.001000,0.001000
1023.846154,0.012976,0.001000,0.001000,0.001000,0.001000,0.001000
1023.865385,0.013962,0.001000,0.001000,0.001000,0.001000,0.001000
1023.884615,0.014942,0.001000,0.001000,0.001000,0.001000,0.001000
1023.903846,0.015916,0.001000,0.001000,0.001000,0.001000,0.001000
1023.923077,0.016883,0.001000,0.001000,0.001000,0.001000,0.001000
1023.942308,0.017844,0.001000,0.001000,0.001000,0.001000,0.001000
1023.961538,0.018796,0.001000,0.001000,0.001000,0.001000,0.001000
1023.980769,0.019741,0.001000,0.001000,0.001000,0.001000,0.001000
1024.000000,0.020678,0.001000,0.001000,0.001000,0.001000,0.001000
1024.019231,0.021606,0.001000,0.001000,0.001000,0.001000,0.001000
1024.038462,0.022525,0.001000,0.001000,0.001000,0.001000,0.001000
1024.057692,0.023434,0.001000,0.001000,0.001000,0.001000,0.001000
1024.076923,0.024334,0.001000,0.001000,0.001000,0.001000,0.001000
1024.096154,0.025223,0.001000,0.001000,0.001000,0.001000,0.001000
1024.115385,0.026102,0.001000,0.001000,0.001000,0.001000,0.001000
1024.134615,0.026970,0.001000,0.001000,0.001000,0.001000,0.001000
1024.153846,0.027826,0.001000,0.001000,0.001000,0.001000,0.001000
1024.173077,0.028671,0.001000,0.001000,0.001000,0.001000,0.001000
1024.192308,0.029504,0.001000,0.001000,0.001000,0.001000,0.001000
1024.211538,0.030324,0.001000,0.001000,0.001000,0.001000,0.001000
1024.230769,0.031132,0.001000,0.001000,0.001000,0.001000,0.001000
1024.250000,0.031927,0.001000,0.001000,0.001000,0.001000,0.001000
1024.269231,0.032708,0.001000,0.001000,0.001000,0.001000,0.001000
1024.288462,0.033476,0.001000,0.001000,0.001000,0.001000,0.001000
1024.307692,0.034229,0.001000,0.001000,0.001000,0.001000,0.001000
1024.326923,0.034969,0.001000,0.001000,0.001000,0.001000,0.001000
1024.346154,0.035693,0.001000,0.001000,0.001000,0.001000,0.001000
1024.365385,0.036403,0.001000,0.001000,0.001000,0.001000,0.001000
1024.384615,0.037097,0.001000,0.001000,0.001000,0.001000,0.001000
1024.403846,0.037776,0.001000,0.001000,0.001000,0.001000,0.001000
1024.423077,0.038439,0.001000,0.001000,0.001000,0.001000,0.001000
1024.442308,0.039085,0.001000,0.001000,0.001000,0.001000,0.001000
1024.461538,0.039716,0.001000,0.001000,0.001000,0.001000,0.001000
1024.480769,0.040329,0.001000,0.001000,0.001000,0.001000,0.001000
1024.500000,0.040926,0.001000,0.001000,0.001000,0.001000,0.001000
1024.519231,0.041506,0.001000,0.001000,0.001000,0.001000,0.001000
1024.538462,0.042068,0.001000,0.001000,0.001000,0.001000,0.001000
1024.557692,0.042613,0.001000,0.001000,0.001000,0.001000,0.001000
1024.576923,0.043139,0.001000,0.001000,0.001000,0.001000,0.001000
1024.596154,0.043648,0.001000,0.001000,0.001000,0.001000,0.001000
1024.615385,0.044138,0.001000,0.001000,0.001000,0.001000,0.001000
1024.634615,0.044610,0.001000,0.001000,0.001000,0.001000,0.001000
1024.653846,0.045063,0.001000,0.001000,0.001000,0.001000,0.001000
1024.673077,0.045497,0.001000,0.001000,0.001000,0.001000,0.001000
1024.692308,0.045913,0.001000,0.001000,0.001000,0.001000,0.001000
1024.711538,0.046308,0.001000,0.001000,0.001000,0.001000,0.001000
1024.730769,0.046685,0.001000,0.001000,0.001000,0.001000,0.001000
1024.750000,0.047042,0.001000,0.001000,0.001000,0.001000,0.001000
1024.769231,0.047379,0.001000,0.001000,0.001000,0.001000,0.001000
1024.788462,0.047696,0.001000,0.001000,0.001000,0.001000,0.001000
1024.807692,0.047993,0.001000,0.001000,0.001000,0.001000,0.001000
1024.826923,0.048270,0.001000,0.001000,0.001000,0.001000,0.001000
1024.846154,0.048527,0.001000,0.001000,0.001000,0.001000,0.001000
1024.865385,0.048764,0.001000,0.001000,0.001000,0.001000,0.001000
1024.884615,0.048980,0.001000,0.001000,0.001000,0.001000,0.001000
1024.903846,0.049175,0.001000,0.001000,0.001000,0.001000,0.001000
1024.923077,0.049350,0.001000,0.001000,0.001000,0.001000,0.001000
1024.942308,0.049504,0.001000,0.001000,0.001000,0.001000,0.001000
1024.961538,0.049638,0.001000,0.001000,0.001000,0.001000,0.001000
1024.980769,0.049750,0.001000,0.001000,0.001000,0.001000,0.001000
1025.000000,0.049842,0.001000,0.001000,0.001000,0.001000,0.001000
1025.019231,0.049913,0.001000,0.001000,0.001000,0.001000,0.001000
1025.038462,0.049963,0.001000,0.001000,0.001000,0.001000,0.001000
1025.057692,0.049992,0.001000,0.001000,0.001000,0.001000,0.001000
1025.076923,0.050000,0.001000,0.001000,0.001000,0.001000,0.001000
1025.096154,0.049987,0.001000,0.001000,0.001000,0.001000,0.001000
1025.115385,0.049953,0.001000,0.001000,0.001000,0.001000,0.001000
1025.134615,0.049898,0.001000,0.001000,0.001000,0.001000,0.001000
1025.153846,0.049822,0.001000,0.001000,0.001000,0.001000,0.001000
1025.173077,0.049725,0.001000,0.001000,0.001000,0.001000,0.001000
1025.192308,0.049608,0.001000,0.001000,0.001000,0.001000,0.001000
1025.211538,0.049469,0.001000,0.001000,0.001000,0.001000,0.001000
1025.230769,0.049310,0.001000,0.001000,0.001000,0.001000,0.001000
1025.250000,0.049131,0.001000,0.001000,0.001000,0.001000,0.001000
1025.269231,0.048930,0.001000,0.001000,0.001000,0.001000,0.001000
1025.288462,0.048709,0.001000,0.001000,0.001000,0.001000,0.001000
1025.307692,0.048468,0.001000,0.001000,0.001000,0.001000,0.001000
1025.326923,0.048206,0.001000,0.001000,0.001000,0.001000,0.001000
1025.346154,0.047924,0.001000,0.001000,0.001000,0.001000,0.001000
1025.365385,0.047622,0.001000,0.001000,0.001000,0.001000,0.001000
1025.384615,0.047300,0.001000,0.001000,0.001000,0.001000,0.001000
1025.403846,0.046958,0.001000,0.001000,0.001000,0.001000,0.001000
1025.423077,0.046597,0.001000,0.001000,0.001000,0.001000,0.001000
1025.442308,0.046216,0.001000,0.001000,0.001000,0.001000,0.001000
1025.461538,0.045815,0.001000,0.001000,0.001000,0.001000,0.001000
1025.480769,0.045396,0.001000,0.001000,0.001000,0.001000,0.001000
1025.500000,0.044957,0.001000,0.001000,0.001000,0.001000,0.001000
1025.519231,0.044499,0.001000,0.001000,0.001000,0.001000,0.001000
1025.538462,0.044023,0.001000,0.001000,0.001000,0.001000,0.001000
1025.557692,0.043528,0.001000,0.001000,0.001000,0.001000,0.001000
1025.576923,0.043015,0.001000,0.001000,0.001000,0.001000,0.001000
1025.596154,0.042484,0.001000,0.001000,0.001000,0.001000,0.001000
1025.615385,0.041936,0.001000,0.001000,0.001000,0.001000,0.001000
1025.634615,0.041369,0.001000,0.001000,0.001000,0.001000,0.001000
1025.653846,0.040785,0.001000,0.001000,0.001000,0.001000,0.001000
1025.673077,0.040185,0.001000,0.001000,0.001000,0.001000,0.001000
1025.692308,0.039567,0.001000,0.001000,0.001000,0.001000,0.001000
1025.711538,0.038933,0.001000,0.001000,0.001000,0.001000,0.001000
1025.730769,0.038282,0.001000,0.001000,0.001000,0.001000,0.001000
1025.750000,0.037615,0.001000,0.001000,0.001000,0.001000,0.001000
1025.769231,0.036933,0.001000,0.001000,0.001000,0.001000,0.001000
1025.788462,0.036235,0.001000,0.001000,0.001000,0.001000,0.001000
1025.807692,0.035522,0.001000,0.001000,0.001000,0.001000,0.001000
1025.826923,0.034794,0.001000,0.001000,0.001000,0.001000,0.001000
1025.846154,0.034051,0.001000,0.001000,0.001000,0.001000,0.001000
1025.865385,0.033294,0.001000,0.001000,0.001000,0.001000,0.001000
1025.884615,0.032523,0.001000,0.001000,0.001000,0.001000,0.001000
1025.903846,0.031739,0.001000,0.001000,0.001000,0.001000,0.001000
1025.923077,0.030941,0.001000,0.001000,0.001000,0.001000,0.001000
1025.942308,0.030130,0.001000,0.001000,0.001000,0.001000,0.001000
1025.961538,0.029306,0.001000,0.001000,0.001000,0.001000,0.001000
1025.980769,0.028471,0.001000,0.001000,0.001000,0.001000,0.001000
1026.000000,0.027623,0.001000,0.001000,0.001000,0.001000,0.001000
1026.019231,0.026764,0.001000,0.001000,0.001000,0.001000,0.001000
1026.038462,0.025893,0.001000,0.001000,0.001000,0.001000,0.001000
1026.057692,0.025012,0.001000,0.001000,0.001000,0.001000,0.001000
1026.076923,0.024120,0.001000,0.001000,0.001000,0.001000,0.001000
1026.096154,0.023218,0.001000,0.001000,0.001000,0.001000,0.001000
1026.115385,0.022306,0.001000,0.001000,0.001000,0.001000,0.001000
1026.134615,0.021385,0.001000,0.001000,0.001000,0.001000,0.001000
1026.153846,0.020455,0.001000,0.001000,0.001000,0.001000,0.001000
1026.173077,0.019517,0.001000,0.001000,0.001000,0.001000,0.001000
1026.192308,0.018570,0.001000,0.001000,0.001000,0.001000,0.001000
1026.211538,0.017615,0.001000,0.001000,0.001000,0.001000,0.001000
1026.230769,0.016653,0.001000,0.001000,0.001000,0.001000,0.001000
1026.250000,0.015684,0.001000,0.001000,0.001000,0.001000,0.001000
1026.269231,0.014709,0.001000,0.001000,0.001000,0.001000,0.001000
1026.288462,0.013727,0.001000,0.001000,0.001000,0.001000,0.001000
1026.307692,0.012739,0.001000,0.001000,0.001000,0.001000,0.001000
1026.326923,0.011747,0.001000,0.001000,0.001000,0.001000,0.001000
1026.346154,0.010749,0.001000,0.001000,0.001000,0.001000,0.001000
1026.365385,0.009747,0.001000,0.001000,0.001000,0.001000,0.001000
1026.384615,0.008740,0.001000,0.001000,0.001000,0.001000,0.001000
1026.403846,0.007730,0.001000,0.001000,0.001000,0.001000,0.001000
1026.423077,0.006717,0.001000,0.001000,0.001000,0.001000,0.001000
1026.442308,0.005701,0.001000,0.001000,0.001000,0.001000,0.001000
1026.461538,0.004683,0.001000,0.001000,0.001000,0.001000,0.001000
1026.480769,0.003662,0.001000,0.001000,0.001000,0.001000,0.001000
1026.500000,0.002640,0.001000,0.001000,0.001000,0.001000,0.001000
1026.519231,0.001617,0.001000,0.001000,0.001000,0.001000,0.001000
1026.538462,0.000593,0.001000,0.001000,0.001000,0.001000,0.001000
1026.557692,-0.000431,0.001000,0.001000,0.001000,0.001000,0.001000
1026.576923,-0.001454,0.001000,0.001000,0.001000,0.001000,0.001000
1026.596154,-0.002478,0.001000,0.001000,0.001000,0.001000,0.001000
1026.615385,-0.003500,0.001000,0.001000,0.001000,0.001000,0.001000
1026.634615,-0.004520,0.001000,0.001000,0.001000,0.001000,0.001000
1026.653846,-0.005539,0.001000,0.001000,0.001000,0.001000,0.001000
1026.673077,-0.006556,0.001000,0.001000,0.001000,0.001000,0.001000
1026.692308,-0.007569,0.001000,0.001000,0.001000,0.001000,0.001000
1026.711538,-0.008580,0.001000,0.001000,0.001000,0.001000,0.001000
1026.730769,-0.009587,0.001000,0.001000,0.001000,0.001000,0.001000
1026.750000,-0.010590,0.001000,0.001000,0.001000,0.001000,0.001000
1026.769231,-0.011588,0.001000,0.001000,0.001000,0.001000,0.001000
1026.788462,-0.012582,0.001000,0.001000,0.001000,0.001000,0.001000
1026.807692,-0.013570,0.001000,0.001000,0.001000,0.001000,0.001000
1026.826923,-0.014553,0.001000,0.001000,0.001000,0.001000,0.001000
1026.846154,-0.015529,0.001000,0.001000,0.001000,0.001000,0.001000
1026.865385,-0.016499,0.001000,0.001000,0.001000,0.001000,0.001000
1026.884615,-0.017463,0.001000,0.001000,0.001000,0.001000,0.001000
1026.903846,-0.018418,0.001000,0.001000,0.001000,0.001000,0.001000
1026.923077,-0.019366,0.001000,0.001000,0.001000,0.001000,0.001000
1026.942308,-0.020306,0.001000,0.001000,0.001000,0.001000,0.001000
1026.961538,-0.021238,0.001000,0.001000,0.001000,0.001000,0.001000
1026.980769,-0.022160,0.001000,0.001000,0.001000,0.001000,0.001000
1027.000000,-0.023074,0.001000,0.001000,0.001000,0.001000,0.001000
1027.019231,-0.023977,0.001000,0.001000,0.001000,0.001000,0.001000
1027.038462,-0.024871,0.001000,0.001000,0.001000,0.001000,0.001000
1027.057692,-0.025754,0.001000,0.001000,0.001000,0.001000,0.001000
1027.076923,-0.026626,0.001000,0.001000,0.001000,0.001000,0.001000
1027.096154,-0.027487,0.001000,0.001000,0.001000,0.001000,0.001000
1027.115385,-0.028337,0.001000,0.001000,0.001000,0.001000,0.001000
1027.134615,-0.029174,0.001000,0.001000,0.001000,0.001000,0.001000
1027.153846,-0.030000,0.001000,0.001000,0.001000,0.001000,0.001000
1027.173077,-0.030812,0.001000,0.001000,0.001000,0.001000,0.001000
1027.192308,-0.031612,0.001000,0.001000,0.001000,0.001000,0.001000
1027.211538,-0.032399,0.001000,0.001000,0.001000,0.001000,0.001000
1027.230769,-0.033172,0.001000,0.001000,0.001000,0.001000,0.001000
1027.250000,-0.033931,0.001000,0.001000,0.001000,0.001000,0.001000
1027.269231,-0.034676,0.001000,0.001000,0.001000,0.001000,0.001000
1027.288462,-0.035407,0.001000,0.001000,0.001000,0.001000,0.001000
1027.307692,-0.036122,0.001000,0.001000,0.001000,0.001000,0.001000
1027.326923,-0.036823,0.001000,0.001000,0.001000,0.001000,0.001000
1027.346154,-0.037508,0.001000,0.001000,0.001000,0.001000,0.001000
1027.365385,-0.038177,0.001000,0.001000,0.001000,0.001000,0.001000
1027.384615,-0.038830,0.001000,0.001000,0.001000,0.001000,0.001000
1027.403846,-0.039467,0.001000,0.001000,0.001000,0.001000,0.001000
1027.423077,-0.040087,0.001000,0.001000,0.001000,0.001000,0.001000
1027.442308,-0.040691,0.001000,0.001000,0.001000,0.001000,0.001000
1027.461538,-0.041277,0.001000,0.001000,0.001000,0.001000,0.001000
1027.480769,-0.041847,0.001000,0.001000,0.001000,0.001000,0.001000
1027.500000,-0.042398,0.001000,0.001000,0.001000,0.001000,0.001000
1027.519231,-0.042932,0.001000,0.001000,0.001000,0.001000,0.001000
1027.538462,-0.043448,0.001000,0.001000,0.001000,0.001000,0.001000
1027.557692,-0.043946,0.001000,0.001000,0.001000,0.001000,0.001000
1027.576923,-0.044425,0.001000,0.001000,0.001000,0.001000,0.001000
1027.596154,-0.044885,0.001000,0.001000,0.001000,0.001000,0.001000
1027.615385,-0.045327,0.001000,0.001000,0.001000,0.001000,0.001000
1027.634615,-0.045750,0.001000,0.001000,0.001000,0.001000,0.001000
1027.653846,-0.046153,0.001000,0.001000,0.001000,0.001000,0.001000
1027.673077,-0.046537,0.001000,0.001000,0.001000,0.001000,0.001000
1027.692308,-0.046902,0.001000,0.001000,0.001000,0.001000,0.001000
1027.711538,-0.047247,0.001000,0.001000,0.001000,0.001000,0.001000
1027.730769,-0.047572,0.001000,0.001000,0.001000,0.001000,0.001000
1027.750000,-0.047877,0.001000,0.001000,0.001000,0.001000,0.001000
1027.769231,-0.048163,0.001000,0.001000,0.001000,0.001000,0.001000
1027.788462,-0.048427,0.001000,0.001000,0.001000,0.001000,0.001000
1027.807692,-0.048672,0.001000,0.001000,0.001000,0.001000,0.001000
1027.826923,-0.048896,0.001000,0.001000,0.001000,0.001000,0.001000
1027.846154,-0.049100,0.001000,0.001000,0.001000,0.001000,0.001000
1027.865385,-0.049283,0.001000,0.001000,0.001000,0.001000,0.001000
1027.884615,-0.049446,0.001000,0.001000,0.001000,0.001000,0.001000
1027.903846,-0.049587,0.001000,0.001000,0.001000,0.001000,0.001000
1027.923077,-0.049708,0.001000,0.001000,0.001000,0.001000,0.001000
1027.942308,-0.049808,0.001000,0.001000,0.001000,0.001000,0.001000
1027.961538,-0.049887,0.001000,0.001000,0.001000,0.001000,0.001000
1027.980769,-0.049946,0.001000,0.001000,0.001000,0.001000,0.001000
1028.000000,-0.049983,0.001000,0.001000,0.001000,0.001000,0.001000
1028.019231,-0.049999,0.001000,0.001000,0.001000,0.001000,0.001000
1028.038462,-0.049995,0.001000,0.001000,0.001000,0.001000,0.001000
1028.057692,-0.049969,0.001000,0.001000,0.001000,0.001000,0.001000
1028.076923,-0.049922,0.001000,0.001000,0.001000,0.001000,0.001000
1028.096154,-0.049855,0.001000,0.001000,0.001000,0.001000,0.001000
1028.115385,-0.049766,0.001000,0.001000,0.001000,0.001000,0.001000
1028.134615,-0.049657,0.001000,0.001000,0.001000,0.001000,0.001000
1028.153846,-0.049527,0.001000,0.001000,0.001000,0.001000,0.001000
1028.173077,-0.049376,0.001000,0.001000,0.001000,0.001000,0.001000
1028.192308,-0.049205,0.001000,0.001000,0.001000,0.001000,0.001000
1028.211538,-0.049012,0.001000,0.001000,0.001000,0.001000,0.001000
1028.230769,-0.048799,0.001000,0.001000,0.001000,0.001000,0.001000
1028.250000,-0.048566,0.001000,0.001000,0.001000,0.001000,0.001000
1028.269231,-0.048313,0.001000,0.001000,0.001000,0.001000,0.001000
1028.288462,-0.048039,0.001000,0.001000,0.001000,0.001000,0.001000
1028.307692,-0.047745,0.001000,0.001000,0.001000,0.001000,0.001000
1028.326923,-0.047431,0.001000,0.001000,0.001000,0.001000,0.001000
1028.346154,-0.047097,0.001000,0.001000,0.001000,0.001000,0.001000
1028.365385,-0.046743,0.001000,0.001000,0.001000,0.001000,0.001000
1028.384615,-0.046370,0.001000,0.001000,0.001000,0.001000,0.001000
1028.403846,-0.045977,0.001000,0.001000,0.001000,0.001000,0.001000
1028.423077,-0.045565,0.001000,0.001000,0.001000,0.001000,0.001000
1028.442308,-0.045134,0.001000,0.001000,0.001000,0.001000,0.001000
1028.461538,-0.044683,0.001000,0.001000,0.001000,0.001000,0.001000
1028.480769,-0.044215,0.001000,0.001000,0.001000,0.001000,0.001000
1028.500000,-0.043727,0.001000,0.001000,0.001000,0.001000,0.001000
1028.519231,-0.043222,0.001000,0.001000,0.001000,0.001000,0.001000
1028.538462,-0.042698,0.001000,0.001000,0.001000,0.001000,0.001000
1028.557692,-0.042156,0.001000,0.001000,0.001000,0.001000,0.001000
1028.576923,-0.041597,0.001000,0.001000,0.001000,0.001000,0.001000
1028.596154,-0.041020,0.001000,0.001000,0.001000,0.001000,0.001000
1028.615385,-0.040426,0.001000,0.001000,0.001000,0.001000,0.001000
1028.634615,-0.039814,0.001000,0.001000,0.001000,0.001000,0.001000
1028.653846,-0.039187,0.001000,0.001000,0.001000,0.001000,0.001000
1028.673077,-0.038543,0.001000,0.001000,0.001000,0.001000,0.001000
1028.692308,-0.037882,0.001000,0.001000,0.001000,0.001000,0.001000
1028.711538,-0.037206,0.001000,0.001000,0.001000,0.001000,0.001000
1028.730769,-0.036514,0.001000,0.001000,0.001000,0.001000,0.001000
1028.750000,-0.035807,0.001000,0.001000,0.001000,0.001000,0.001000
1028.769231,-0.035085,0.001000,0.001000,0.001000,0.001000,0.001000
1028.788462,-0.034348,0.001000,0.001000,0.001000,0.001000,0.001000
1028.807692,-0.033597,0.001000,0.001000,0.001000,0.001000,0.001000
1028.826923,-0.032831,0.001000,0.001000,0.001000,0.001000,0.001000
1028.846154,-0.032052,0.001000,0.001000,0.001000,0.001000,0.001000
1028.865385,-0.031260,0.001000,0.001000,0.001000,0.001000,0.001000
1028.884615,-0.030454,0.001000,0.001000,0.001000,0.001000,0.001000
1028.903846,-0.029635,0.001000,0.001000,0.001000,0.001000,0.001000
1028.923077,-0.028804,0.001000,0.001000,0.001000,0.001000,0.001000
1028.942308,-0.027961,0.001000,0.001000,0.001000,0.001000,0.001000
1028.961538,-0.027107,0.001000,0.001000,0.001000,0.001000,0.001000
1028.980769,-0.026241,0.001000,0.001000,0.001000,0.001000,0.001000
1029.000000,-0.025364,0.001000,0.001000,0.001000,0.001000,0.001000
1029.019231,-0.024476,0.001000,0.001000,0.001000,0.001000,0.001000
1029.038462,-0.023578,0.001000,0.001000,0.001000,0.001000,0.001000
1029.057692,-0.022670,0.001000,0.001000,0.001000,0.001000,0.001000
1029.076923,-0.021753,0.001000,0.001000,0.001000,0.001000,0.001000
1029.096154,-0.020826,0.001000,0.001000,0.001000,0.001000,0.001000
1029.115385,-0.019891,0.001000,0.001000,0.001000,0.001000,0.001000
1029.134615,-0.018947,0.001000,0.001000,0.001000,0.001000,0.001000
1029.153846,-0.017996,0.001000,0.001000,0.001000,0.001000,0.001000
1029.173077,-0.017037,0.001000,0.001000,0.001000,0.001000,0.001000
1029.192308,-0.016070,0.001000,0.001000,0.001000,0.001000,0.001000
1029.211538,-0.015097,0.001000,0.001000,0.001000,0.001000,0.001000
1029.230769,-0.014118,0.001000,0.001000,0.001000,0.001000,0.001000
1029.250000,-0.013133,0.001000,0.001000,0.001000,0.001000,0.001000
1029.269231,-0.012142,0.001000,0.001000,0.001000,0.001000,0.001000
1029.288462,-0.011146,0.001000,0.001000,0.001000,0.001000,0.001000
1029.307692,-0.010146,0.001000,0.001000,0.001000,0.001000,0.001000
1029.326923,-0.009141,0.001000,0.001000,0.001000,0.001000,0.001000
1029.346154,-0.008132,0.001000,0.001000,0.001000,0.001000,0.001000
1029.365385,-0.007120,0.001000,0.001000,0.001000,0.001000,0.001000
1029.384615,-0.006105,0.001000,0.001000,0.001000,0.001000,0.001000
1029.403846,-0.005088,0.001000,0.001000,0.001000,0.001000,0.001000
1029.423077,-0.004068,0.001000,0.001000,0.001000,0.001000,0.001000
1029.442308,-0.003047,0.001000,0.001000,0.001000,0.001000,0.001000
1029.461538,-0.002024,0.001000,0.001000,0.001000,0.001000,0.001000
1029.480769,-0.001001,0.001000,0.001000,0.001000,0.001000,0.001000
1029.500000,0.000023,0.001000,0.001000,0.001000,0.001000,0.001000
1029.519231,0.001047,0.001000,0.001000,0.001000,0.001000,0.001000
1029.538462,0.002071,0.001000,0.001000,0.001000,0.001000,0.001000
1029.557692,0.003093,0.001000,0.001000,0.001000,0.001000,0.001000
1029.576923,0.004115,0.001000,0.001000,0.001000,0.001000,0.001000
1029.596154,0.005134,0.001000,0.001000,0.001000,0.001000,0.001000
1029.615385,0.006152,0.001000,0.001000,0.001000,0.001000,0.001000
1029.634615,0.007167,0.001000,0.001000,0.001000,0.001000,0.001000
1029.653846,0.008178,0.001000,0.001000,0.001000,0.001000,0.001000
1029.673077,0.009187,0.001000,0.001000,0.001000,0.001000,0.001000
1029.692308,0.010191,0.001000,0.001000,0.001000,0.001000,0.001000
1029.711538,0.011192,0.001000,0.001000,0.001000,0.001000,0.001000
1029.730769,0.012187,0.001000,0.001000,0.001000,0.001000,0.001000
1029.750000,0.013178,0.001000,0.001000,0.001000,0.001000,0.001000
1029.769231,0.014163,0.001000,0.001000,0.001000,0.001000,0.001000
1029.788462,0.015142,0.001000,0.001000,0.001000,0.001000,0.001000
1029.807692,0.016114,0.001000,0.001000,0.001000,0.001000,0.001000
1029.826923,0.017080,0.001000,0.001000,0.001000,0.001000,0.001000
1029.846154,0.018039,0.001000,0.001000,0.001000,0.001000,0.001000
1029.865385,0.018990,0.001000,0.001000,0.001000,0.001000,0.001000
1029.884615,0.019933,0.001000,0.001000,0.001000,0.001000,0.001000
1029.903846,0.020868,0.001000,0.001000,0.001000,0.001000,0.001000
1029.923077,0.021794,0.001000,0.001000,0.001000,0.001000,0.001000
1029.942308,0.022711,0.001000,0.001000,0.001000,0.001000,0.001000
1029.961538,0.023619,0.001000,0.001000,0.001000,0.001000,0.001000
1029.980769,0.024516,0.001000,0.001000,0.001000,0.001000,0.001000
1030.000000,0.000000,0.001000,0.001000,0.001000,0.001000,0.001000
1030.019231,0.001029,0.001000,0.001000,0.001000,0.001000,0.001000
1030.038462,0.002057,0.001000,0.001000,0.001000,0.001000,0.001000
1030.057692,0.003085,0.001000,0.001000,0.001000,0.001000,0.001000
1030.076923,0.004111,0.001000,0.001000,0.001000,0.001000,0.001000
1030.096154,0.005136,0.001000,0.001000,0.001000,0.001000,0.001000
1030.115385,0.006158,0.001000,0.001000,0.001000,0.001000,0.001000
1030.134615,0.007178,0.001000,0.001000,0.001000,0.001000,0.001000
1030.153846,0.008195,0.001000,0.001000,0.001000,0.001000,0.001000
1030.173077,0.009208,0.001000,0.001000,0.001000,0.001000,0.001000
1030.192308,0.010217,0.001000,0.001000,0.001000,0.001000,0.001000
1030.211538,0.011222,0.001000,0.001000,0.001000,0.001000,0.001000
1030.230769,0.012223,0.001000,0.001000,0.001000,0.001000,0.001000
1030.250000,0.013218,0.001000,0.001000,0.001000,0.001000,0.001000
1030.269231,0.014207,0.001000,0.001000,0.001000,0.001000,0.001000
1030.288462,0.015191,0.001000,0.001000,0.001000,0.001000,0.001000
1030.307692,0.016168,0.001000,0.001000,0.001000,0.001000,0.001000
1030.326923,0.017138,0.001000,0.001000,0.001000,0.001000,0.001000
1030.346154,0.018101,0.001000,0.001000,0.001000,0.001000,0.001000
1030.365385,0.019056,0.001000,0.001000,0.001000,0.001000,0.001000
1030.384615,0.020003,0.001000,0.001000,0.001000,0.001000,0.001000
1030.403846,0.020942,0.001000,0.001000,0.001000,0.001000,0.001000
1030.423077,0.021872,0.001000,0.001000,0.001000,0.001000,0.001000
1030.442308,0.022793,0.001000,0.001000,0.001000,0.001000,0.001000
1030.461538,0.023704,0.001000,0.001000,0.001000,0.001000,0.001000
1030.480769,0.024605,0.001000,0.001000,0.001000,0.001000,0.001000
1030.500000,0.025495,0.001000,0.001000,0.001000,0.001000,0.001000
1030.519231,0.026375,0.001000,0.001000,0.001000,0.001000,0.001000
1030.538462,0.027243,0.001000,0.001000,0.001000,0.001000,0.001000
1030.557692,0.028100,0.001000,0.001000,0.001000,0.001000,0.001000
1030.576923,0.028945,0.001000,0.001000,0.001000,0.001000,0.001000
1030.596154,0.029778,0.001000,0.001000,0.001000,0.001000,0.001000
1030.615385,0.030598,0.001000,0.001000,0.001000,0.001000,0.001000
1030.634615,0.031406,0.001000,0.001000,0.001000,0.001000,0.001000
1030.653846,0.032200,0.001000,0.001000,0.001000,0.001000,0.001000
1030.673077,0.032980,0.001000,0.001000,0.001000,0.001000,0.001000
1030.692308,0.033746,0.001000,0.001000,0.001000,0.001000,0.001000
1030.711538,0.034498,0.001000,0.001000,0.001000,0.001000,0.001000
1030.730769,0.035236,0.001000,0.001000,0.001000,0.001000,0.001000
1030.750000,0.035958,0.001000,0.001000,0.001000,0.001000,0.001000
1030.769231,0.036666,0.001000,0.001000,0.001000,0.001000,0.001000
1030.788462,0.037358,0.001000,0.001000,0.001000,0.001000,0.001000
1030.807692,0.038033,0.001000,0.001000,0.001000,0.001000,0.001000
1030.826923,0.038693,0.001000,0.001000,0.001000,0.001000,0.001000
1030.846154,0.039337,0.001000,0.001000,0.001000,0.001000,0.001000
1030.865385,0.039964,0.001000,0.001000,0.001000,0.001000,0.001000
1030.884615,0.040573,0.001000,0.001000,0.001000,0.001000,0.001000
1030.903846,0.041166,0.001000,0.001000,0.001000,0.001000,0.001000
1030.923077,0.041741,0.001000,0.001000,0.001000,0.001000,0.001000
1030.942308,0.042299,0.001000,0.001000,0.001000,0.001000,0.001000
1030.961538,0.042839,0.001000,0.001000,0.001000,0.001000,0.001000
1030.980769,0.043360,0.001000,0.001000,0.001000,0.001000,0.001000
1031.000000,0.043863,0.001000,0.001000,0.001000,0.001000,0.001000
1031.019231,0.044348,0.001000,0.001000,0.001000,0.001000,0.001000
1031.038462,0.044814,0.001000,0.001000,0.001000,0.001000,0.001000
1031.057692,0.045261,0.001000,0.001000,0.001000,0.001000,0.001000
1031.076923,0.045688,0.001000,0.001000,0.001000,0.001000,0.001000
1031.096154,0.046097,0.001000,0.001000,0.001000,0.001000,0.001000
1031.115385,0.046485,0.001000,0.001000,0.001000,0.001000,0.001000
1031.134615,0.046854,0.001000,0.001000,0.001000,0.001000,0.001000
1031.153846,0.047204,0.001000,0.001000,0.001000,0.001000,0.001000
1031.173077,0.047533,0.001000,0.001000,0.001000,0.001000,0.001000
1031.192308,0.047842,0.001000,0.001000,0.001000,0.001000,0.001000
1031.211538,0.048131,0.001000,0.001000,0.001000,0.001000,0.001000
1031.230769,0.048400,0.001000,0.001000,0.001000,0.001000,0.001000
1031.250000,0.048648,0.001000,0.001000,0.001000,0.001000,0.001000
1031.269231,0.048875,0.001000,0.001000,0.001000,0.001000,0.001000
1031.288462,0.049082,0.001000,0.001000,0.001000,0.001000,0.001000
1031.307692,0.049267,0.001000,0.001000,0.001000,0.001000,0.001000
1031.326923,0.049433,0.001000,0.001000,0.001000,0.001000,0.001000
1031.346154,0.049577,0.001000,0.001000,0.001000,0.001000,0.001000
1031.365385,0.049700,0.001000,0.001000,0.001000,0.001000,0.001000
1031.384615,0.049802,0.001000,0.001000,0.001000,0.001000,0.001000
1031.403846,0.049883,0.001000,0.001000,0.001000,0.001000,0.001000
1031.423077,0.049943,0.001000,0.001000,0.001000,0.001000,0.001000
1031.442308,0.049981,0.001000,0.001000,0.001000,0.001000,0.001000
1031.461538,0.049999,0.001000,0.001000,0.001000,0.001000,0.001000
1031.480769,0.049995,0.001000,0.001000,0.001000,0.001000,0.001000
1031.500000,0.049970,0.001000,0.001000,0.001000,0.001000,0.001000
1031.519231,0.049924,0.001000,0.001000,0.001000,0.001000,0.001000
1031.538462,0.049857,0.001000,0.001000,0.001000,0.001000,0.001000
1031.557692,0.049769,0.001000,0.001000,0.001000,0.001000,0.001000
1031.576923,0.049660,0.001000,0.001000,0.001000,0.001000,0.001000
1031.596154,0.049529,0.001000,0.001000,0.001000,0.001000,0.001000
1031.615385,0.049378,0.001000,0.001000,0.001000,0.001000,0.001000
1031.634615,0.049206,0.001000,0.001000,0.001000,0.001000,0.001000
1031.653846,0.049013,0.001000,0.001000,0.001000,0.001000,0.001000
1031.673077,0.048799,0.001000,0.001000,0.001000,0.001000,0.001000
1031.692308,0.048564,0.001000,0.001000,0.001000,0.001000,0.001000
1031.711538,0.048309,0.001000,0.001000,0.001000,0.001000,0.001000
1031.730769,0.048034,0.001000,0.001000,0.001000,0.001000,0.001000
1031.750000,0.047738,0.001000,0.001000,0.001000,0.001000,0.001000
1031.769231,0.047422,0.001000,0.001000,0.001000,0.001000,0.001000
1031.788462,0.047086,0.001000,0.001000,0.001000,0.001000,0.001000
1031.807692,0.046730,0.001000,0.001000,0.001000,0.001000,0.001000
1031.826923,0.046354,0.001000,0.001000,0.001000,0.001000,0.001000
1031.846154,0.045958,0.001000,0.001000,0.001000,0.001000,0.001000
1031.865385,0.045543,0.001000,0.001000,0.001000,0.001000,0.001000
1031.884615,0.045109,0.001000,0.001000,0.001000,0.001000,0.001000
1031.903846,0.044655,0.001000,0.001000,0.001000,0.001000,0.001000
1031.923077,0.044183,0.001000,0.001000,0.001000,0.001000,0.001000
1031.942308,0.043692,0.001000,0.001000,0.001000,0.001000,0.001000
1031.961538,0.043183,0.001000,0.001000,0.001000,0.001000,0.001000
1031.980769,0.042655,0.001000,0.001000,0.001000,0.001000,0.001000
1032.000000,0.042109,0.001000,0.001000,0.001000,0.001000,0.001000
1032.019231,0.041545,0.001000,0.001000,0.001000,0.001000,0.001000
1032.038462,0.040964,0.001000,0.001000,0.001000,0.001000,0.001000
1032.057692,0.040365,0.001000,0.001000,0.001000,0.001000,0.001000
1032.076923,0.039750,0.001000,0.001000,0.001000,0.001000,0.001000
1032.096154,0.039117,0.001000,0.001000,0.001000,0.001000,0.001000
1032.115385,0.038468,0.001000,0.001000,0.001000,0.001000,0.001000
1032.134615,0.037802,0.001000,0.001000,0.001000,0.001000,0.001000
1032.153846,0.037121,0.001000,0.001000,0.001000,0.001000,0.001000
1032.173077,0.036424,0.001000,0.001000,0.001000,0.001000,0.001000
1032.192308,0.035711,0.001000,0.001000,0.001000,0.001000,0.001000
1032.211538,0.034984,0.001000,0.001000,0.001000,0.001000,0.001000
1032.230769,0.034241,0.001000,0.001000,0.001000,0.001000,0.001000
1032.250000,0.033484,0.001000,0.001000,0.001000,0.001000,0.001000
1032.269231,0.032713,0.001000,0.001000,0.001000,0.001000,0.001000
1032.288462,0.031928,0.001000,0.001000,0.001000,0.001000,0.001000
1032.307692,0.031129,0.001000,0.001000,0.001000,0.001000,0.001000
1032.326923,0.030317,0.001000,0.001000,0.001000,0.001000,0.001000
1032.346154,0.029493,0.001000,0.001000,0.001000,0.001000,0.001000
1032.365385,0.028656,0.001000,0.001000,0.001000,0.001000,0.001000
1032.384615,0.027806,0.001000,0.001000,0.001000,0.001000,0.001000
1032.403846,0.026945,0.001000,0.001000,0.001000,0.001000,0.001000
1032.423077,0.026073,0.001000,0.001000,0.001000,0.001000,0.001000
1032.442308,0.025190,0.001000,0.001000,0.001000,0.001000,0.001000
1032.461538,0.024295,0.001000,0.001000,0.001000,0.001000,0.001000
1032.480769,0.023391,0.001000,0.001000,0.001000,0.001000,0.001000
1032.500000,0.022477,0.001000,0.001000,0.001000,0.001000,0.001000
1032.519231,0.021553,0.001000,0.001000,0.001000,0.001000,0.001000
1032.538462,0.020620,0.001000,0.001000,0.001000,0.001000,0.001000
1032.557692,0.019678,0.001000,0.001000,0.001000,0.001000,0.001000
1032.576923,0.018728,0.001000,0.001000,0.001000,0.001000,0.001000
1032.596154,0.017770,0.001000,0.001000,0.001000,0.001000,0.001000
1032.615385,0.016805,0.001000,0.001000,0.001000,0.001000,0.001000
1032.634615,0.015832,0.001000,0.001000,0.001000,0.001000,0.001000
1032.653846,0.014853,0.001000,0.001000,0.001000,0.001000,0.001000
1032.673077,0.013867,0.001000,0.001000,0.001000,0.001000,0.001000
1032.692308,0.012876,0.001000,0.001000,0.001000,0.001000,0.001000
1032.711538,0.011879,0.001000,0.001000,0.001000,0.001000,0.001000
1032.730769,0.010877,0.001000,0.001000,0.001000,0.001000,0.001000
1032.750000,0.009870,0.001000,0.001000,0.001000,0.001000,0.001000
1032.769231,0.008859,0.001000,0.001000,0.001000,0.001000,0.001000
1032.788462,0.007845,0.001000,0.001000,0.001000,0.001000,0.001000
1032.807692,0.006827,0.001000,0.001000,0.001000,0.001000,0.001000
1032.826923,0.005806,0.001000,0.001000,0.001000,0.001000,0.001000
1032.846154,0.004783,0.001000,0.001000,0.001000,0.001000,0.001000
1032.865385,0.003758,0.001000,0.001000,0.001000,0.001000,0.001000
1032.884615,0.002731,0.001000,0.001000,0.001000,0.001000,0.001000
1032.903846,0.001703,0.001000,0.001000,0.001000,0.001000,0.001000
1032.923077,0.000675,0.001000,0.001000,0.001000,0.001000,0.001000
1032.942308,-0.000354,0.001000,0.001000,0.001000,0.001000,0.001000
1032.961538,-0.001383,0.001000,0.001000,0.001000,0.001000,0.001000
1032.980769,-0.002411,0.001000,0.001000,0.001000,0.001000,0.001000
1033.000000,-0.003439,0.001000,0.001000,0.001000,0.001000,0.001000
1033.019231,-0.004464,0.001000,0.001000,0.001000,0.001000,0.001000
1033.038462,-0.005488,0.001000,0.001000,0.001000,0.001000,0.001000
1033.057692,-0.006510,0.001000,0.001000,0.001000,0.001000,0.001000
1033.076923,-0.007529,0.001000,0.001000,0.001000,0.001000,0.001000
1033.096154,-0.008544,0.001000,0.001000,0.001000,0.001000,0.001000
1033.115385,-0.009556,0.001000,0.001000,0.001000,0.001000,0.001000
1033.134615,-0.010564,0.001000,0.001000,0.001000,0.001000,0.001000
1033.153846,-0.011567,0.001000,0.001000,0.001000,0.001000,0.001000
1033.173077,-0.012566,0.001000,0.001000,0.001000,0.001000,0.001000
1033.192308,-0.013559,0.001000,0.001000,0.001000,0.001000,0.001000
1033.211538,-0.014547,0.001000,0.001000,0.001000,0.001000,0.001000
1033.230769,-0.015528,0.001000,0.001000,0.001000,0.001000,0.001000
1033.250000,-0.016503,0.001000,0.001000,0.001000,0.001000,0.001000
1033.269231,-0.017471,0.001000,0.001000,0.001000,0.001000,0.001000
1033.288462,-0.018431,0.001000,0.001000,0.001000,0.001000,0.001000
1033.307692,-0.019383,0.001000,0.001000,0.001000,0.001000,0.001000
1033.326923,-0.020328,0.001000,0.001000,0.001000,0.001000,0.001000
1033.346154,-0.021264,0.001000,0.001000,0.001000,0.001000,0.001000
1033.365385,-0.022190,0.001000,0.001000,0.001000,0.001000,0.001000
1033.384615,-0.023108,0.001000,0.001000,0.001000,0.001000,0.001000
1033.403846,-0.024015,0.001000,0.001000,0.001000,0.001000,0.001000
1033.423077,-0.024913,0.001000,0.001000,0.001000,0.001000,0.001000
1033.442308,-0.025799,0.001000,0.001000,0.001000,0.001000,0.001000
1033.461538,-0.026675,0.001000,0.001000,0.001000,0.001000,0.001000
1033.480769,-0.027540,0.001000,0.001000,0.001000,0.001000,0.001000
1033.500000,-0.028393,0.001000,0.001000,0.001000,0.001000,0.001000
1033.519231,-0.029234,0.001000,0.001000,0.001000,0.001000,0.001000
1033.538462,-0.030062,0.001000,0.001000,0.001000,0.001000,0.001000
1033.557692,-0.030878,0.001000,0.001000,0.001000,0.001000,0.001000
1033.576923,-0.031681,0.001000,0.001000,0.001000,0.001000,0.001000
1033.596154,-0.032470,0.001000,0.001000,0.001000,0.001000,0.001000
1033.615385,-0.033246,0.001000,0.001000,0.001000,0.001000,0.001000
1033.634615,-0.034007,0.001000,0.001000,0.001000,0.001000,0.001000
1033.653846,-0.034754,0.001000,0.001000,0.001000,0.001000,0.001000
1033.673077,-0.035486,0.001000,0.001000,0.001000,0.001000,0.001000
1033.692308,-0.036204,0.001000,0.001000,0.001000,0.001000,0.001000
1033.711538,-0.036906,0.001000,0.001000,0.001000,0.001000,0.001000
1033.730769,-0.037592,0.001000,0.001000,0.001000,0.001000,0.001000
1033.750000,-0.038263,0.001000,0.001000,0.001000,0.001000,0.001000
1033.769231,-0.038917,0.001000,0.001000,0.001000,0.001000,0.001000
1033.788462,-0.039555,0.001000,0.001000,0.001000,0.001000,0.001000
1033.807692,-0.040176,0.001000,0.001000,0.001000,0.001000,0.001000
1033.826923,-0.040780,0.001000,0.001000,0.001000,0.001000,0.001000
1033.846154,-0.041366,0.001000,0.001000,0.001000,0.001000,0.001000
1033.865385,-0.041936,0.001000,0.001000,0.001000,0.001000,0.001000
1033.884615,-0.042487,0.001000,0.001000,0.001000,0.001000,0.001000
1033.903846,-0.043020,0.001000,0.001000,0.001000,0.001000,0.001000
1033.923077,-0.043536,0.001000,0.001000,0.001000,0.001000,0.001000
1033.942308,-0.044032,0.001000,0.001000,0.001000,0.001000,0.001000
1033.961538,-0.044511,0.001000,0.001000,0.001000,0.001000,0.001000
1033.980769,-0.044970,0.001000,0.001000,0.001000,0.001000,0.001000
1034.000000,-0.045410,0.001000,0.001000,0.001000,0.001000,0.001000
1034.019231,-0.045831,0.001000,0.001000,0.001000,0.001000,0.001000
1034.038462,-0.046233,0.001000,0.001000,0.001000,0.001000,0.001000
1034.057692,-0.046615,0.001000,0.001000,0.001000,0.001000,0.001000
1034.076923,-0.046977,0.001000,0.001000,0.001000,0.001000,0.001000
1034.096154,-0.047319,0.001000,0.001000,0.001000,0.001000,0.001000
1034.115385,-0.047642,0.001000,0.001000,0.001000,0.001000,0.001000
1034.134615,-0.047944,0.001000,0.001000,0.001000,0.001000,0.001000
1034.153846,-0.048226,0.001000,0.001000,0.001000,0.001000,0.001000
1034.173077,-0.048487,0.001000,0.001000,0.001000,0.001000,0.001000
1034.192308,-0.048728,0.001000,0.001000,0.001000,0.001000,0.001000
1034.211538,-0.048948,0.001000,0.001000,0.001000,0.001000,0.001000
1034.230769,-0.049148,0.001000,0.001000,0.001000,0.001000,0.001000
1034.250000,-0.049327,0.001000,0.001000,0.001000,0.001000,0.001000
1034.269231,-0.049485,0.001000,0.001000,0.001000,0.001000,0.001000
1034.288462,-0.049621,0.001000,0.001000,0.001000,0.001000,0.001000
1034.307692,-0.049737,0.001000,0.001000,0.001000,0.001000,0.001000
1034.326923,-0.049832,0.001000,0.001000,0.001000,0.001000,0.001000
1034.346154,-0.049906,0.001000,0.001000,0.001000,0.001000,0.001000
1034.365385,-0.049958,0.001000,0.001000,0.001000,0.001000,0.001000
1034.384615,-0.049990,0.001000,0.001000,0.001000,0.001000,0.001000
1034.403846,-0.050000,0.001000,0.001000,0.001000,0.001000,0.001000
1034.423077,-0.049989,0.001000,0.001000,0.001000,0.001000,0.001000
1034.442308,-0.049957,0.001000,0.001000,0.001000,0.001000,0.001000
1034.461538,-0.049904,0.001000,0.001000,0.001000,0.001000,0.001000
1034.480769,-0.049829,0.001000,0.001000,0.001000,0.001000,0.001000
1034.500000,-0.049734,0.001000,0.001000,0.001000,0.001000,0.001000
1034.519231,-0.049617,0.001000,0.001000,0.001000,0.001000,0.001000
1034.538462,-0.049480,0.001000,0.001000,0.001000,0.001000,0.001000
1034.557692,-0.049321,0.001000,0.001000,0.001000,0.001000,0.001000
1034.576923,-0.049142,0.001000,0.001000,0.001000,0.001000,0.001000
1034.596154,-0.048941,0.001000,0.001000,0.001000,0.001000,0.001000
1034.615385,-0.048720,0.001000,0.001000,0.001000,0.001000,0.001000
1034.634615,-0.048479,0.001000,0.001000,0.001000,0.001000,0.001000
1034.653846,-0.048217,0.001000,0.001000,0.001000,0.001000,0.001000
1034.673077,-0.047934,0.001000,0.001000,0.001000,0.001000,0.001000
