timestamp,ax,ay,az,gx,gy,gz
1000.000000,0.000000,0.001000,0.001000,0.001000,0.001000,0.001000
1000.019231,0.001177,0.001000,0.001000,0.001000,0.001000,0.001000
1000.038462,0.002354,0.001000,0.001000,0.001000,0.001000,0.001000
1000.057692,0.003529,0.001000,0.001000,0.001000,0.001000,0.001000
1000.076923,0.004703,0.001000,0.001000,0.001000,0.001000,0.001000
1000.096154,0.005873,0.001000,0.001000,0.001000,0.001000,0.001000
1000.115385,0.007041,0.001000,0.001000,0.001000,0.001000,0.001000
1000.134615,0.008205,0.001000,0.001000,0.001000,0.001000,0.001000
1000.153846,0.009364,0.001000,0.001000,0.001000,0.001000,0.001000
1000.173077,0.010518,0.001000,0.001000,0.001000,0.001000,0.001000
1000.192308,0.011666,0.001000,0.001000,0.001000,0.001000,0.001000
1000.211538,0.012807,0.001000,0.001000,0.001000,0.001000,0.001000
1000.230769,0.013942,0.001000,0.001000,0.001000,0.001000,0.001000
1000.250000,0.015068,0.001000,0.001000,0.001000,0.001000,0.001000
1000.269231,0.016187,0.001000,0.001000,0.001000,0.001000,0.001000
1000.288462,0.017296,0.001000,0.001000,0.001000,0.001000,0.001000
1000.307692,0.018396,0.001000,0.001000,0.001000,0.001000,0.001000
1000.326923,0.019486,0.001000,0.001000,0.001000,0.001000,0.001000
1000.346154,0.020565,0.001000,0.001000,0.001000,0.001000,0.001000
1000.365385,0.021632,0.001000,0.001000,0.001000,0.001000,0.001000
1000.384615,0.022687,0.001000,0.001000,0.001000,0.001000,0.001000
1000.403846,0.023730,0.001000,0.001000,0.001000,0.001000,0.001000
1000.423077,0.024760,0.001000,0.001000,0.001000,0.001000,0.001000
1000.442308,0.025776,0.001000,0.001000,0.001000,0.001000,0.001000
1000.461538,0.026777,0.001000,0.001000,0.001000,0.001000,0.001000
1000.480769,0.027764,0.001000,0.001000,0.001000,0.001000,0.001000
1000.500000,0.028736,0.001000,0.001000,0.001000,0.001000,0.001000
1000.519231,0.029691,0.001000,0.001000,0.001000,0.001000,0.001000
1000.538462,0.030630,0.001000,0.001000,0.001000,0.001000,0.001000
1000.557692,0.031552,0.001000,0.001000,0.001000,0.001000,0.001000
1000.576923,0.032457,0.001000,0.001000,0.001000,0.001000,0.001000
1000.596154,0.033343,0.001000,0.001000,0.001000,0.001000,0.001000
1000.615385,0.034211,0.001000,0.001000,0.001000,0.001000,0.001000
1000.634615,0.035061,0.001000,0.001000,0.001000,0.001000,0.001000
1000.653846,0.035890,0.001000,0.001000,0.001000,0.001000,0.001000
1000.673077,0.036700,0.001000,0.001000,0.001000,0.001000,0.001000
1000.692308,0.037489,0.001000,0.001000,0.001000,0.001000,0.001000
1000.711538,0.038258,0.001000,0.001000,0.001000,0.001000,0.001000
1000.730769,0.039005,0.001000,0.001000,0.001000,0.001000,0.001000
1000.750000,0.039731,0.001000,0.001000,0.001000,0.001000,0.001000
1000.769231,0.040435,0.001000,0.001000,0.001000,0.001000,0.001000
1000.788462,0.041116,0.001000,0.001000,0.001000,0.001000,0.001000
1000.807692,0.041775,0.001000,0.001000,0.001000,0.001000,0.001000
1000.826923,0.042410,0.001000,0.001000,0.001000,0.001000,0.001000
1000.846154,0.043022,0.001000,0.001000,0.001000,0.001000,0.001000
1000.865385,0.043610,0.001000,0.001000,0.001000,0.001000,0.001000
1000.884615,0.044174,0.001000,0.001000,0.001000,0.001000,0.001000
1000.903846,0.044713,0.001000,0.001000,0.001000,0.001000,0.001000
1000.923077,0.045227,0.001000,0.001000,0.001000,0.001000,0.001000
1000.942308,0.045717,0.001000,0.001000,0.001000,0.001000,0.001000
1000.961538,0.046181,0.001000,0.001000,0.001000,0.001000,0.001000
1000.980769,0.046619,0.001000,0.001000,0.001000,0.001000,0.001000
1001.000000,0.047032,0.001000,0.001000,0.001000,0.001000,0.001000
1001.019231,0.047419,0.001000,0.001000,0.001000,0.001000,0.001000
1001.038462,0.047779,0.001000,0.001000,0.001000,0.001000,0.001000
1001.057692,0.048113,0.001000,0.001000,0.001000,0.001000,0.001000
1001.076923,0.048420,0.001000,0.001000,0.001000,0.001000,0.001000
1001.096154,0.048700,0.001000,0.001000,0.001000,0.001000,0.001000
1001.115385,0.048953,0.001000,0.001000,0.001000,0.001000,0.001000
1001.134615,0.049179,0.001000,0.001000,0.001000,0.001000,0.001000
1001.153846,0.049378,0.001000,0.001000,0.001000,0.001000,0.001000
1001.173077,0.049549,0.001000,0.001000,0.001000,0.001000,0.001000
1001.192308,0.049693,0.001000,0.001000,0.001000,0.001000,0.001000
1001.211538,0.049810,0.001000,0.001000,0.001000,0.001000,0.001000
1001.230769,0.049899,0.001000,0.001000,0.001000,0.001000,0.001000
1001.250000,0.049960,0.001000,0.001000,0.001000,0.001000,0.001000
1001.269231,0.049993,0.001000,0.001000,0.001000,0.001000,0.001000
1001.288462,0.049999,0.001000,0.001000,0.001000,0.001000,0.001000
1001.307692,0.049977,0.001000,0.001000,0.001000,0.001000,0.001000
1001.326923,0.049927,0.001000,0.001000,0.001000,0.001000,0.001000
1001.346154,0.049850,0.001000,0.001000,0.001000,0.001000,0.001000
1001.365385,0.049745,0.001000,0.001000,0.001000,0.001000,0.001000
1001.384615,0.049612,0.001000,0.001000,0.001000,0.001000,0.001000
1001.403846,0.049452,0.001000,0.001000,0.001000,0.001000,0.001000
1001.423077,0.049264,0.001000,0.001000,0.001000,0.001000,0.001000
1001.442308,0.049049,0.001000,0.001000,0.001000,0.001000,0.001000
1001.461538,0.048807,0.001000,0.001000,0.001000,0.001000,0.001000
1001.480769,0.048538,0.001000,0.001000,0.001000,0.001000,0.001000
1001.500000,0.048242,0.001000,0.001000,0.001000,0.001000,0.001000
1001.519231,0.047919,0.001000,0.001000,0.001000,0.001000,0.001000
1001.538462,0.047570,0.001000,0.001000,0.001000,0.001000,0.001000
1001.557692,0.047194,0.001000,0.001000,0.001000,0.001000,0.001000
1001.576923,0.046792,0.001000,0.001000,0.001000,0.001000,0.001000
1001.596154,0.046364,0.001000,0.001000,0.001000,0.001000,0.001000
1001.615385,0.045910,0.001000,0.001000,0.001000,0.001000,0.001000
1001.634615,0.045431,0.001000,0.001000,0.001000,0.001000,0.001000
1001.653846,0.044927,0.001000,0.001000,0.001000,0.001000,0.001000
1001.673077,0.044398,0.001000,0.001000,0.001000,0.001000,0.001000
1001.692308,0.043844,0.001000,0.001000,0.001000,0.001000,0.001000
1001.711538,0.043266,0.001000,0.001000,0.001000,0.001000,0.001000
1001.730769,0.042664,0.001000,0.001000,0.001000,0.001000,0.001000
1001.750000,0.042038,0.001000,0.001000,0.001000,0.001000,0.001000
1001.769231,0.041389,0.001000,0.001000,0.001000,0.001000,0.001000
1001.788462,0.040717,0.001000,0.001000,0.001000,0.001000,0.001000
1001.807692,0.040023,0.001000,0.001000,0.001000,0.001000,0.001000
1001.826923,0.039306,0.001000,0.001000,0.001000,0.001000,0.001000
1001.846154,0.038567,0.001000,0.001000,0.001000,0.001000,0.001000
1001.865385,0.037807,0.001000,0.001000,0.001000,0.001000,0.001000
1001.884615,0.037027,0.001000,0.001000,0.001000,0.001000,0.001000
1001.903846,0.036225,0.001000,0.001000,0.001000,0.001000,0.001000
1001.923077,0.035404,0.001000,0.001000,0.001000,0.001000,0.001000
1001.942308,0.034562,0.001000,0.001000,0.001000,0.001000,0.001000
1001.961538,0.033702,0.001000,0.001000,0.001000,0.001000,0.001000
1001.980769,0.032823,0.001000,0.001000,0.001000,0.001000,0.001000
1002.000000,0.031926,0.001000,0.001000,0.001000,0.001000,0.001000
1002.019231,0.031011,0.001000,0.001000,0.001000,0.001000,0.001000
1002.038462,0.030079,0.001000,0.001000,0.001000,0.001000,0.001000
1002.057692,0.029130,0.001000,0.001000,0.001000,0.001000,0.001000
1002.076923,0.028165,0.001000,0.001000,0.001000,0.001000,0.001000
1002.096154,0.027185,0.001000,0.001000,0.001000,0.001000,0.001000
1002.115385,0.026189,0.001000,0.001000,0.001000,0.001000,0.001000
1002.134615,0.025179,0.001000,0.001000,0.001000,0.001000,0.001000
1002.153846,0.024155,0.001000,0.001000,0.001000,0.001000,0.001000
1002.173077,0.023117,0.001000,0.001000,0.001000,0.001000,0.001000
1002.192308,0.022067,0.001000,0.001000,0.001000,0.001000,0.001000
1002.211538,0.021004,0.001000,0.001000,0.001000,0.001000,0.001000
1002.230769,0.019930,0.001000,0.001000,0.001000,0.001000,0.001000
1002.250000,0.018845,0.001000,0.001000,0.001000,0.001000,0.001000
1002.269231,0.017749,0.001000,0.001000,0.001000,0.001000,0.001000
1002.288462,0.016644,0.001000,0.001000,0.001000,0.001000,0.001000
1002.307692,0.015529,0.001000,0.001000,0.001000,0.001000,0.001000
1002.326923,0.014405,0.001000,0.001000,0.001000,0.001000,0.001000
1002.346154,0.013274,0.001000,0.001000,0.001000,0.001000,0.001000
1002.365385,0.012135,0.001000,0.001000,0.001000,0.001000,0.001000
1002.384615,0.010990,0.001000,0.001000,0.001000,0.001000,0.001000
1002.403846,0.009838,0.001000,0.001000,0.001000,0.001000,0.001000
1002.423077,0.008681,0.001000,0.001000,0.001000,0.001000,0.001000
1002.442308,0.007519,0.001000,0.001000,0.001000,0.001000,0.001000
1002.461538,0.006353,0.001000,0.001000,0.001000,0.001000,0.001000
1002.480769,0.005184,0.001000,0.001000,0.001000,0.001000,0.001000
1002.500000,0.004011,0.001000,0.001000,0.001000,0.001000,0.001000
1002.519231,0.002837,0.001000,0.001000,0.001000,0.001000,0.001000
1002.538462,0.001661,0.001000,0.001000,0.001000,0.001000,0.001000
1002.557692,0.000484,0.001000,0.001000,0.001000,0.001000,0.001000
1002.576923,-0.000694,0.001000,0.001000,0.001000,0.001000,0.001000
1002.596154,-0.001871,0.001000,0.001000,0.001000,0.001000,0.001000
1002.615385,-0.003047,0.001000,0.001000,0.001000,0.001000,0.001000
1002.634615,-0.004221,0.001000,0.001000,0.001000,0.001000,0.001000
1002.653846,-0.005393,0.001000,0.001000,0.001000,0.001000,0.001000
1002.673077,-0.006562,0.001000,0.001000,0.001000,0.001000,0.001000
1002.692308,-0.007727,0.001000,0.001000,0.001000,0.001000,0.001000
1002.711538,-0.008888,0.001000,0.001000,0.001000,0.001000,0.001000
1002.730769,-0.010044,0.001000,0.001000,0.001000,0.001000,0.001000
1002.750000,-0.011195,0.001000,0.001000,0.001000,0.001000,0.001000
1002.769231,-0.012339,0.001000,0.001000,0.001000,0.001000,0.001000
1002.788462,-0.013477,0.001000,0.001000,0.001000,0.001000,0.001000
1002.807692,-0.014607,0.001000,0.001000,0.001000,0.001000,0.001000
1002.826923,-0.015729,0.001000,0.001000,0.001000,0.001000,0.001000
1002.846154,-0.016842,0.001000,0.001000,0.001000,0.001000,0.001000
1002.865385,-0.017946,0.001000,0.001000,0.001000,0.001000,0.001000
1002.884615,-0.019039,0.001000,0.001000,0.001000,0.001000,0.001000
1002.903846,-0.020123,0.001000,0.001000,0.001000,0.001000,0.001000
1002.923077,-0.021195,0.001000,0.001000,0.001000,0.001000,0.001000
1002.942308,-0.022255,0.001000,0.001000,0.001000,0.001000,0.001000
1002.961538,-0.023303,0.001000,0.001000,0.001000,0.001000,0.001000
1002.980769,-0.024339,0.001000,0.001000,0.001000,0.001000,0.001000
1003.000000,-0.025360,0.001000,0.001000,0.001000,0.001000,0.001000
1003.019231,-0.026368,0.001000,0.001000,0.001000,0.001000,0.001000
1003.038462,-0.027361,0.001000,0.001000,0.001000,0.001000,0.001000
1003.057692,-0.028339,0.001000,0.001000,0.001000,0.001000,0.001000
1003.076923,-0.029301,0.001000,0.001000,0.001000,0.001000,0.001000
1003.096154,-0.030247,0.001000,0.001000,0.001000,0.001000,0.001000
1003.115385,-0.031176,0.001000,0.001000,0.001000,0.001000,0.001000
1003.134615,-0.032087,0.001000,0.001000,0.001000,0.001000,0.001000
1003.153846,-0.032981,0.001000,0.001000,0.001000,0.001000,0.001000
1003.173077,-0.033857,0.001000,0.001000,0.001000,0.001000,0.001000
1003.192308,-0.034714,0.001000,0.001000,0.001000,0.001000,0.001000
1003.211538,-0.035552,0.001000,0.001000,0.001000,0.001000,0.001000
1003.230769,-0.036370,0.001000,0.001000,0.001000,0.001000,0.001000
1003.250000,-0.037168,0.001000,0.001000,0.001000,0.001000,0.001000
1003.269231,-0.037945,0.001000,0.001000,0.001000,0.001000,0.001000
1003.288462,-0.038701,0.001000,0.001000,0.001000,0.001000,0.001000
1003.307692,-0.039436,0.001000,0.001000,0.001000,0.001000,0.001000
1003.326923,-0.040148,0.001000,0.001000,0.001000,0.001000,0.001000
1003.346154,-0.040839,0.001000,0.001000,0.001000,0.001000,0.001000
1003.365385,-0.041507,0.001000,0.001000,0.001000,0.001000,0.001000
1003.384615,-0.042152,0.001000,0.001000,0.001000,0.001000,0.001000
1003.403846,-0.042773,0.001000,0.001000,0.001000,0.001000,0.001000
1003.423077,-0.043371,0.001000,0.001000,0.001000,0.001000,0.001000
1003.442308,-0.043945,0.001000,0.001000,0.001000,0.001000,0.001000
1003.461538,-0.044494,0.001000,0.001000,0.001000,0.001000,0.001000
1003.480769,-0.045019,0.001000,0.001000,0.001000,0.001000,0.001000
1003.500000,-0.045519,0.001000,0.001000,0.001000,0.001000,0.001000
1003.519231,-0.045993,0.001000,0.001000,0.001000,0.001000,0.001000
1003.538462,-0.046442,0.001000,0.001000,0.001000,0.001000,0.001000
1003.557692,-0.046866,0.001000,0.001000,0.001000,0.001000,0.001000
1003.576923,-0.047263,0.001000,0.001000,0.001000,0.001000,0.001000
1003.596154,-0.047634,0.001000,0.001000,0.001000,0.001000,0.001000
1003.615385,-0.047979,0.001000,0.001000,0.001000,0.001000,0.001000
1003.634615,-0.048297,0.001000,0.001000,0.001000,0.001000,0.001000
1003.653846,-0.048588,0.001000,0.001000,0.001000,0.001000,0.001000
1003.673077,-0.048852,0.001000,0.001000,0.001000,0.001000,0.001000
1003.692308,-0.049090,0.001000,0.001000,0.001000,0.001000,0.001000
1003.711538,-0.049300,0.001000,0.001000,0.001000,0.001000,0.001000
1003.730769,-0.049482,0.001000,0.001000,0.001000,0.001000,0.001000
1003.750000,-0.049638,0.001000,0.001000,0.001000,0.001000,0.001000
1003.769231,-0.049765,0.001000,0.001000,0.001000,0.001000,0.001000
1003.788462,-0.049865,0.001000,0.001000,0.001000,0.001000,0.001000
1003.807692,-0.049938,0.001000,0.001000,0.001000,0.001000,0.001000
1003.826923,-0.049983,0.001000,0.001000,0.001000,0.001000,0.001000
1003.846154,-0.050000,0.001000,0.001000,0.001000,0.001000,0.001000
1003.865385,-0.049989,0.001000,0.001000,0.001000,0.001000,0.001000
1003.884615,-0.049951,0.001000,0.001000,0.001000,0.001000,0.001000
1003.903846,-0.049885,0.001000,0.001000,0.001000,0.001000,0.001000
1003.923077,-0.049791,0.001000,0.001000,0.001000,0.001000,0.001000
1003.942308,-0.049670,0.001000,0.001000,0.001000,0.001000,0.001000
1003.961538,-0.049521,0.001000,0.001000,0.001000,0.001000,0.001000
1003.980769,-0.049344,0.001000,0.001000,0.001000,0.001000,0.001000
1004.000000,-0.049141,0.001000,0.001000,0.001000,0.001000,0.001000
1004.019231,-0.048910,0.001000,0.001000,0.001000,0.001000,0.001000
1004.038462,-0.048652,0.001000,0.001000,0.001000,0.001000,0.001000
1004.057692,-0.048367,0.001000,0.001000,0.001000,0.001000,0.001000
1004.076923,-0.048055,0.001000,0.001000,0.001000,0.001000,0.001000
1004.096154,-0.047716,0.001000,0.001000,0.001000,0.001000,0.001000
1004.115385,-0.047351,0.001000,0.001000,0.001000,0.001000,0.001000
1004.134615,-0.046960,0.001000,0.001000,0.001000,0.001000,0.001000
1004.153846,-0.046543,0.001000,0.001000,0.001000,0.001000,0.001000
1004.173077,-0.046100,0.001000,0.001000,0.001000,0.001000,0.001000
1004.192308,-0.045631,0.001000,0.001000,0.001000,0.001000,0.001000
1004.211538,-0.045137,0.001000,0.001000,0.001000,0.001000,0.001000
1004.230769,-0.044618,0.001000,0.001000,0.001000,0.001000,0.001000
1004.250000,-0.044075,0.001000,0.001000,0.001000,0.001000,0.001000
1004.269231,-0.043506,0.001000,0.001000,0.001000,0.001000,0.001000
1004.288462,-0.042914,0.001000,0.001000,0.001000,0.001000,0.001000
1004.307692,-0.042298,0.001000,0.001000,0.001000,0.001000,0.001000
1004.326923,-0.041659,0.001000,0.001000,0.001000,0.001000,0.001000
1004.346154,-0.040996,0.001000,0.001000,0.001000,0.001000,0.001000
1004.365385,-0.040311,0.001000,0.001000,0.001000,0.001000,0.001000
1004.384615,-0.039603,0.001000,0.001000,0.001000,0.001000,0.001000
1004.403846,-0.038873,0.001000,0.001000,0.001000,0.001000,0.001000
1004.423077,-0.038122,0.001000,0.001000,0.001000,0.001000,0.001000
1004.442308,-0.037350,0.001000,0.001000,0.001000,0.001000,0.001000
1004.461538,-0.036557,0.001000,0.001000,0.001000,0.001000,0.001000
1004.480769,-0.035743,0.001000,0.001000,0.001000,0.001000,0.001000
1004.500000,-0.034910,0.001000,0.001000,0.001000,0.001000,0.001000
1004.519231,-0.034058,0.001000,0.001000,0.001000,0.001000,0.001000
1004.538462,-0.033186,0.001000,0.001000,0.001000,0.001000,0.001000
1004.557692,-0.032297,0.001000,0.001000,0.001000,0.001000,0.001000
1004.576923,-0.031389,0.001000,0.001000,0.001000,0.001000,0.001000
1004.596154,-0.030464,0.001000,0.001000,0.001000,0.001000,0.001000
1004.615385,-0.029522,0.001000,0.001000,0.001000,0.001000,0.001000
1004.634615,-0.028563,0.001000,0.001000,0.001000,0.001000,0.001000
1004.653846,-0.027589,0.001000,0.001000,0.001000,0.001000,0.001000
1004.673077,-0.026600,0.001000,0.001000,0.001000,0.001000,0.001000
1004.692308,-0.025595,0.001000,0.001000,0.001000,0.001000,0.001000
1004.711538,-0.024577,0.001000,0.001000,0.001000,0.001000,0.001000
1004.730769,-0.023545,0.001000,0.001000,0.001000,0.001000,0.001000
1004.750000,-0.022500,0.001000,0.001000,0.001000,0.001000,0.001000
1004.769231,-0.021442,0.001000,0.001000,0.001000,0.001000,0.001000
1004.788462,-0.020373,0.001000,0.001000,0.001000,0.001000,0.001000
1004.807692,-0.019292,0.001000,0.001000,0.001000,0.001000,0.001000
1004.826923,-0.018200,0.001000,0.001000,0.001000,0.001000,0.001000
1004.846154,-0.017099,0.001000,0.001000,0.001000,0.001000,0.001000
1004.865385,-0.015988,0.001000,0.001000,0.001000,0.001000,0.001000
1004.884615,-0.014868,0.001000,0.001000,0.001000,0.001000,0.001000
1004.903846,-0.013740,0.001000,0.001000,0.001000,0.001000,0.001000
1004.923077,-0.012604,0.001000,0.001000,0.001000,0.001000,0.001000
1004.942308,-0.011461,0.001000,0.001000,0.001000,0.001000,0.001000
1004.961538,-0.010312,0.001000,0.001000,0.001000,0.001000,0.001000
1004.980769,-0.009157,0.001000,0.001000,0.001000,0.001000,0.001000
1005.000000,-0.007997,0.001000,0.001000,0.001000,0.001000,0.001000
1005.019231,-0.006833,0.001000,0.001000,0.001000,0.001000,0.001000
1005.038462,-0.005665,0.001000,0.001000,0.001000,0.001000,0.001000
1005.057692,-0.004493,0.001000,0.001000,0.001000,0.001000,0.001000
1005.076923,-0.003319,0.001000,0.001000,0.001000,0.001000,0.001000
1005.096154,-0.002144,0.001000,0.001000,0.001000,0.001000,0.001000
1005.115385,-0.000967,0.001000,0.001000,0.001000,0.001000,0.001000
1005.134615,0.000210,0.001000,0.001000,0.001000,0.001000,0.001000
1005.153846,0.001388,0.001000,0.001000,0.001000,0.001000,0.001000
1005.173077,0.002564,0.001000,0.001000,0.001000,0.001000,0.001000
1005.192308,0.003739,0.001000,0.001000,0.001000,0.001000,0.001000
1005.211538,0.004912,0.001000,0.001000,0.001000,0.001000,0.001000
1005.230769,0.006082,0.001000,0.001000,0.001000,0.001000,0.001000
1005.250000,0.007249,0.001000,0.001000,0.001000,0.001000,0.001000
1005.269231,0.008412,0.001000,0.001000,0.001000,0.001000,0.001000
1005.288462,0.009570,0.001000,0.001000,0.001000,0.001000,0.001000
1005.307692,0.010723,0.001000,0.001000,0.001000,0.001000,0.001000
1005.326923,0.011870,0.001000,0.001000,0.001000,0.001000,0.001000
1005.346154,0.013010,0.001000,0.001000,0.001000,0.001000,0.001000
1005.365385,0.014144,0.001000,0.001000,0.001000,0.001000,0.001000
1005.384615,0.015269,0.001000,0.001000,0.001000,0.001000,0.001000
1005.403846,0.016386,0.001000,0.001000,0.001000,0.001000,0.001000
1005.423077,0.017493,0.001000,0.001000,0.001000,0.001000,0.001000
1005.442308,0.018591,0.001000,0.001000,0.001000,0.001000,0.001000
1005.461538,0.019679,0.001000,0.001000,0.001000,0.001000,0.001000
1005.480769,0.020756,0.001000,0.001000,0.001000,0.001000,0.001000
1005.500000,0.021821,0.001000,0.001000,0.001000,0.001000,0.001000
1005.519231,0.022875,0.001000,0.001000,0.001000,0.001000,0.001000
1005.538462,0.023915,0.001000,0.001000,0.001000,0.001000,0.001000
1005.557692,0.024942,0.001000,0.001000,0.001000,0.001000,0.001000
1005.576923,0.025956,0.001000,0.001000,0.001000,0.001000,0.001000
1005.596154,0.026955,0.001000,0.001000,0.001000,0.001000,0.001000
1005.615385,0.027939,0.001000,0.001000,0.001000,0.001000,0.001000
1005.634615,0.028908,0.001000,0.001000,0.001000,0.001000,0.001000
1005.653846,0.029860,0.001000,0.001000,0.001000,0.001000,0.001000
1005.673077,0.030796,0.001000,0.001000,0.001000,0.001000,0.001000
1005.692308,0.031715,0.001000,0.001000,0.001000,0.001000,0.001000
1005.711538,0.032617,0.001000,0.001000,0.001000,0.001000,0.001000
1005.730769,0.033500,0.001000,0.001000,0.001000,0.001000,0.001000
1005.750000,0.034365,0.001000,0.001000,0.001000,0.001000,0.001000
1005.769231,0.035210,0.001000,0.001000,0.001000,0.001000,0.001000
1005.788462,0.036036,0.001000,0.001000,0.001000,0.001000,0.001000
1005.807692,0.036842,0.001000,0.001000,0.001000,0.001000,0.001000
1005.826923,0.037628,0.001000,0.001000,0.001000,0.001000,0.001000
1005.846154,0.038393,0.001000,0.001000,0.001000,0.001000,0.001000
1005.865385,0.039137,0.001000,0.001000,0.001000,0.001000,0.001000
1005.884615,0.039858,0.001000,0.001000,0.001000,0.001000,0.001000
1005.903846,0.040558,0.001000,0.001000,0.001000,0.001000,0.001000
1005.923077,0.041235,0.001000,0.001000,0.001000,0.001000,0.001000
1005.942308,0.041890,0.001000,0.001000,0.001000,0.001000,0.001000
1005.961538,0.042521,0.001000,0.001000,0.001000,0.001000,0.001000
1005.980769,0.043129,0.001000,0.001000,0.001000,0.001000,0.001000
1006.000000,0.043712,0.001000,0.001000,0.001000,0.001000,0.001000
1006.019231,0.044272,0.001000,0.001000,0.001000,0.001000,0.001000
1006.038462,0.044807,0.001000,0.001000,0.001000,0.001000,0.001000
1006.057692,0.045317,0.001000,0.001000,0.001000,0.001000,0.001000
1006.076923,0.045802,0.001000,0.001000,0.001000,0.001000,0.001000
1006.096154,0.046261,0.001000,0.001000,0.001000,0.001000,0.001000
1006.115385,0.046695,0.001000,0.001000,0.001000,0.001000,0.001000
1006.134615,0.047103,0.001000,0.001000,0.001000,0.001000,0.001000
1006.153846,0.047485,0.001000,0.001000,0.001000,0.001000,0.001000
1006.173077,0.047840,0.001000,0.001000,0.001000,0.001000,0.001000
1006.192308,0.048169,0.001000,0.001000,0.001000,0.001000,0.001000
1006.211538,0.048472,0.001000,0.001000,0.001000,0.001000,0.001000
1006.230769,0.048747,0.001000,0.001000,0.001000,0.001000,0.001000
1006.250000,0.048995,0.001000,0.001000,0.001000,0.001000,0.001000
1006.269231,0.049217,0.001000,0.001000,0.001000,0.001000,0.001000
1006.288462,0.049411,0.001000,0.001000,0.001000,0.001000,0.001000
1006.307692,0.049577,0.001000,0.001000,0.001000,0.001000,0.001000
1006.326923,0.049716,0.001000,0.001000,0.001000,0.001000,0.001000
1006.346154,0.049828,0.001000,0.001000,0.001000,0.001000,0.001000
1006.365385,0.049912,0.001000,0.001000,0.001000,0.001000,0.001000
1006.384615,0.049968,0.001000,0.001000,0.001000,0.001000,0.001000
1006.403846,0.049996,0.001000,0.001000,0.001000,0.001000,0.001000
1006.423077,0.049997,0.001000,0.001000,0.001000,0.001000,0.001000
1006.442308,0.049970,0.001000,0.001000,0.001000,0.001000,0.001000
1006.461538,0.049915,0.001000,0.001000,0.001000,0.001000,0.001000
1006.480769,0.049833,0.001000,0.001000,0.001000,0.001000,0.001000
1006.500000,0.049723,0.001000,0.001000,0.001000,0.001000,0.001000
1006.519231,0.049585,0.001000,0.001000,0.001000,0.001000,0.001000
1006.538462,0.049420,0.001000,0.001000,0.001000,0.001000,0.001000
1006.557692,0.049228,0.001000,0.001000,0.001000,0.001000,0.001000
1006.576923,0.049008,0.001000,0.001000,0.001000,0.001000,0.001000
1006.596154,0.048761,0.001000,0.001000,0.001000,0.001000,0.001000
1006.615385,0.048487,0.001000,0.001000,0.001000,0.001000,0.001000
1006.634615,0.048186,0.001000,0.001000,0.001000,0.001000,0.001000
1006.653846,0.047859,0.001000,0.001000,0.001000,0.001000,0.001000
1006.673077,0.047504,0.001000,0.001000,0.001000,0.001000,0.001000
1006.692308,0.047124,0.001000,0.001000,0.001000,0.001000,0.001000
1006.711538,0.046717,0.001000,0.001000,0.001000,0.001000,0.001000
1006.730769,0.046285,0.001000,0.001000,0.001000,0.001000,0.001000
1006.750000,0.045827,0.001000,0.001000,0.001000,0.001000,0.001000
1006.769231,0.045343,0.001000,0.001000,0.001000,0.001000,0.001000
1006.788462,0.044834,0.001000,0.001000,0.001000,0.001000,0.001000
1006.807692,0.044301,0.001000,0.001000,0.001000,0.001000,0.001000
1006.826923,0.043743,0.001000,0.001000,0.001000,0.001000,0.001000
1006.846154,0.043160,0.001000,0.001000,0.001000,0.001000,0.001000
1006.865385,0.042554,0.001000,0.001000,0.001000,0.001000,0.001000
1006.884615,0.041924,0.001000,0.001000,0.001000,0.001000,0.001000
1006.903846,0.041271,0.001000,0.001000,0.001000,0.001000,0.001000
1006.923077,0.040595,0.001000,0.001000,0.001000,0.001000,0.001000
1006.942308,0.039896,0.001000,0.001000,0.001000,0.001000,0.001000
1006.961538,0.039176,0.001000,0.001000,0.001000,0.001000,0.001000
1006.980769,0.038433,0.001000,0.001000,0.001000,0.001000,0.001000
1007.000000,0.037669,0.001000,0.001000,0.001000,0.001000,0.001000
1007.019231,0.036885,0.001000,0.001000,0.001000,0.001000,0.001000
1007.038462,0.036080,0.001000,0.001000,0.001000,0.001000,0.001000
1007.057692,0.035255,0.001000,0.001000,0.001000,0.001000,0.001000
1007.076923,0.034410,0.001000,0.001000,0.001000,0.001000,0.001000
1007.096154,0.033546,0.001000,0.001000,0.001000,0.001000,0.001000
1007.115385,0.032664,0.001000,0.001000,0.001000,0.001000,0.001000
1007.134615,0.031764,0.001000,0.001000,0.001000,0.001000,0.001000
1007.153846,0.030846,0.001000,0.001000,0.001000,0.001000,0.001000
1007.173077,0.029911,0.001000,0.001000,0.001000,0.001000,0.001000
1007.192308,0.028959,0.001000,0.001000,0.001000,0.001000,0.001000
1007.211538,0.027991,0.001000,0.001000,0.001000,0.001000,0.001000
1007.230769,0.027008,0.001000,0.001000,0.001000,0.001000,0.001000
1007.250000,0.026010,0.001000,0.001000,0.001000,0.001000,0.001000
1007.269231,0.024997,0.001000,0.001000,0.001000,0.001000,0.001000
1007.288462,0.023970,0.001000,0.001000,0.001000,0.001000,0.001000
1007.307692,0.022930,0.001000,0.001000,0.001000,0.001000,0.001000
1007.326923,0.021878,0.001000,0.001000,0.001000,0.001000,0.001000
1007.346154,0.020813,0.001000,0.001000,0.001000,0.001000,0.001000
1007.365385,0.019737,0.001000,0.001000,0.001000,0.001000,0.001000
1007.384615,0.018650,0.001000,0.001000,0.001000,0.001000,0.001000
1007.403846,0.017552,0.001000,0.001000,0.001000,0.001000,0.001000
1007.423077,0.016445,0.001000,0.001000,0.001000,0.001000,0.001000
1007.442308,0.015329,0.001000,0.001000,0.001000,0.001000,0.001000
1007.461538,0.014204,0.001000,0.001000,0.001000,0.001000,0.001000
1007.480769,0.013071,0.001000,0.001000,0.001000,0.001000,0.001000
1007.500000,0.011931,0.001000,0.001000,0.001000,0.001000,0.001000
1007.519231,0.010784,0.001000,0.001000,0.001000,0.001000,0.001000
1007.538462,0.009632,0.001000,0.001000,0.001000,0.001000,0.001000
1007.557692,0.008474,0.001000,0.001000,0.001000,0.001000,0.001000
1007.576923,0.007311,0.001000,0.001000,0.001000,0.001000,0.001000
1007.596154,0.006145,0.001000,0.001000,0.001000,0.001000,0.001000
1007.615385,0.004975,0.001000,0.001000,0.001000,0.001000,0.001000
1007.634615,0.003802,0.001000,0.001000,0.001000,0.001000,0.001000
1007.653846,0.002627,0.001000,0.001000,0.001000,0.001000,0.001000
1007.673077,0.001450,0.001000,0.001000,0.001000,0.001000,0.001000
1007.692308,0.000273,0.001000,0.001000,0.001000,0.001000,0.001000
1007.711538,-0.000904,0.001000,0.001000,0.001000,0.001000,0.001000
1007.730769,-0.002081,0.001000,0.001000,0.001000,0.001000,0.001000
1007.750000,-0.003257,0.001000,0.001000,0.001000,0.001000,0.001000
1007.769231,-0.004431,0.001000,0.001000,0.001000,0.001000,0.001000
1007.788462,-0.005602,0.001000,0.001000,0.001000,0.001000,0.001000
1007.807692,-0.006770,0.001000,0.001000,0.001000,0.001000,0.001000
1007.826923,-0.007935,0.001000,0.001000,0.001000,0.001000,0.001000
1007.846154,-0.009095,0.001000,0.001000,0.001000,0.001000,0.001000
1007.865385,-0.010250,0.001000,0.001000,0.001000,0.001000,0.001000
1007.884615,-0.011400,0.001000,0.001000,0.001000,0.001000,0.001000
1007.903846,-0.012543,0.001000,0.001000,0.001000,0.001000,0.001000
1007.923077,-0.013679,0.001000,0.001000,0.001000,0.001000,0.001000
1007.942308,-0.014808,0.001000,0.001000,0.001000,0.001000,0.001000
1007.961538,-0.015928,0.001000,0.001000,0.001000,0.001000,0.001000
1007.980769,-0.017040,0.001000,0.001000,0.001000,0.001000,0.001000
1008.000000,-0.018142,0.001000,0.001000,0.001000,0.001000,0.001000
1008.019231,-0.019234,0.001000,0.001000,0.001000,0.001000,0.001000
1008.038462,-0.020315,0.001000,0.001000,0.001000,0.001000,0.001000
1008.057692,-0.021385,0.001000,0.001000,0.001000,0.001000,0.001000
1008.076923,-0.022444,0.001000,0.001000,0.001000,0.001000,0.001000
1008.096154,-0.023489,0.001000,0.001000,0.001000,0.001000,0.001000
1008.115385,-0.024522,0.001000,0.001000,0.001000,0.001000,0.001000
1008.134615,-0.025541,0.001000,0.001000,0.001000,0.001000,0.001000
1008.153846,-0.026546,0.001000,0.001000,0.001000,0.001000,0.001000
1008.173077,-0.027537,0.001000,0.001000,0.001000,0.001000,0.001000
1008.192308,-0.028512,0.001000,0.001000,0.001000,0.001000,0.001000
1008.211538,-0.029471,0.001000,0.001000,0.001000,0.001000,0.001000
1008.230769,-0.030414,0.001000,0.001000,0.001000,0.001000,0.001000
1008.250000,-0.031340,0.001000,0.001000,0.001000,0.001000,0.001000
1008.269231,-0.032249,0.001000,0.001000,0.001000,0.001000,0.001000
1008.288462,-0.033139,0.001000,0.001000,0.001000,0.001000,0.001000
1008.307692,-0.034012,0.001000,0.001000,0.001000,0.001000,0.001000
1008.326923,-0.034865,0.001000,0.001000,0.001000,0.001000,0.001000
1008.346154,-0.035699,0.001000,0.001000,0.001000,0.001000,0.001000
1008.365385,-0.036514,0.001000,0.001000,0.001000,0.001000,0.001000
1008.384615,-0.037308,0.001000,0.001000,0.001000,0.001000,0.001000
1008.403846,-0.038081,0.001000,0.001000,0.001000,0.001000,0.001000
1008.423077,-0.038834,0.001000,0.001000,0.001000,0.001000,0.001000
1008.442308,-0.039565,0.001000,0.001000,0.001000,0.001000,0.001000
1008.461538,-0.040273,0.001000,0.001000,0.001000,0.001000,0.001000
1008.480769,-0.040960,0.001000,0.001000,0.001000,0.001000,0.001000
1008.500000,-0.041624,0.001000,0.001000,0.001000,0.001000,0.001000
1008.519231,-0.042265,0.001000,0.001000,0.001000,0.001000,0.001000
1008.538462,-0.042882,0.001000,0.001000,0.001000,0.001000,0.001000
1008.557692,-0.043475,0.001000,0.001000,0.001000,0.001000,0.001000
1008.576923,-0.044045,0.001000,0.001000,0.001000,0.001000,0.001000
1008.596154,-0.044590,0.001000,0.001000,0.001000,0.001000,0.001000
1008.615385,-0.045110,0.001000,0.001000,0.001000,0.001000,0.001000
1008.634615,-0.045606,0.001000,0.001000,0.001000,0.001000,0.001000
1008.653846,-0.046075,0.001000,0.001000,0.001000,0.001000,0.001000
1008.673077,-0.046520,0.001000,0.001000,0.001000,0.001000,0.001000
1008.692308,-0.046939,0.001000,0.001000,0.001000,0.001000,0.001000
1008.711538,-0.047331,0.001000,0.001000,0.001000,0.001000,0.001000
1008.730769,-0.047698,0.001000,0.001000,0.001000,0.001000,0.001000
1008.750000,-0.048037,0.001000,0.001000,0.001000,0.001000,0.001000
1008.769231,-0.048351,0.001000,0.001000,0.001000,0.001000,0.001000
1008.788462,-0.048637,0.001000,0.001000,0.001000,0.001000,0.001000
1008.807692,-0.048897,0.001000,0.001000,0.001000,0.001000,0.001000
1008.826923,-0.049129,0.001000,0.001000,0.001000,0.001000,0.001000
1008.846154,-0.049334,0.001000,0.001000,0.001000,0.001000,0.001000
1008.865385,-0.049512,0.001000,0.001000,0.001000,0.001000,0.001000
1008.884615,-0.049662,0.001000,0.001000,0.001000,0.001000,0.001000
1008.903846,-0.049785,0.001000,0.001000,0.001000,0.001000,0.001000
1008.923077,-0.049880,0.001000,0.001000,0.001000,0.001000,0.001000
1008.942308,-0.049948,0.001000,0.001000,0.001000,0.001000,0.001000
1008.961538,-0.049988,0.001000,0.001000,0.001000,0.001000,0.001000
1008.980769,-0.050000,0.001000,0.001000,0.001000,0.001000,0.001000
1009.000000,-0.049984,0.001000,0.001000,0.001000,0.001000,0.001000
1009.019231,-0.049941,0.001000,0.001000,0.001000,0.001000,0.001000
1009.038462,-0.049870,0.001000,0.001000,0.001000,0.001000,0.001000
1009.057692,-0.049771,0.001000,0.001000,0.001000,0.001000,0.001000
1009.076923,-0.049645,0.001000,0.001000,0.001000,0.001000,0.001000
1009.096154,-0.049491,0.001000,0.001000,0.001000,0.001000,0.001000
1009.115385,-0.049310,0.001000,0.001000,0.001000,0.001000,0.001000
1009.134615,-0.049102,0.001000,0.001000,0.001000,0.001000,0.001000
1009.153846,-0.048866,0.001000,0.001000,0.001000,0.001000,0.001000
1009.173077,-0.048603,0.001000,0.001000,0.001000,0.001000,0.001000
1009.192308,-0.048313,0.001000,0.001000,0.001000,0.001000,0.001000
1009.211538,-0.047996,0.001000,0.001000,0.001000,0.001000,0.001000
1009.230769,-0.047653,0.001000,0.001000,0.001000,0.001000,0.001000
1009.250000,-0.047283,0.001000,0.001000,0.001000,0.001000,0.001000
1009.269231,-0.046888,0.001000,0.001000,0.001000,0.001000,0.001000
1009.288462,-0.046466,0.001000,0.001000,0.001000,0.001000,0.001000
1009.307692,-0.046018,0.001000,0.001000,0.001000,0.001000,0.001000
1009.326923,-0.045545,0.001000,0.001000,0.001000,0.001000,0.001000
1009.346154,-0.045046,0.001000,0.001000,0.001000,0.001000,0.001000
1009.365385,-0.044523,0.001000,0.001000,0.001000,0.001000,0.001000
1009.384615,-0.043975,0.001000,0.001000,0.001000,0.001000,0.001000
1009.403846,-0.043402,0.001000,0.001000,0.001000,0.001000,0.001000
1009.423077,-0.042806,0.001000,0.001000,0.001000,0.001000,0.001000
1009.442308,-0.042186,0.001000,0.001000,0.001000,0.001000,0.001000
1009.461538,-0.041542,0.001000,0.001000,0.001000,0.001000,0.001000
1009.480769,-0.040875,0.001000,0.001000,0.001000,0.001000,0.001000
1009.500000,-0.040186,0.001000,0.001000,0.001000,0.001000,0.001000
1009.519231,-0.039474,0.001000,0.001000,0.001000,0.001000,0.001000
1009.538462,-0.038741,0.001000,0.001000,0.001000,0.001000,0.001000
1009.557692,-0.037986,0.001000,0.001000,0.001000,0.001000,0.001000
1009.576923,-0.037210,0.001000,0.001000,0.001000,0.001000,0.001000
1009.596154,-0.036413,0.001000,0.001000,0.001000,0.001000,0.001000
1009.615385,-0.035596,0.001000,0.001000,0.001000,0.001000,0.001000
1009.634615,-0.034759,0.001000,0.001000,0.001000,0.001000,0.001000
1009.653846,-0.033903,0.001000,0.001000,0.001000,0.001000,0.001000
1009.673077,-0.033029,0.001000,0.001000,0.001000,0.001000,0.001000
1009.692308,-0.032136,0.001000,0.001000,0.001000,0.001000,0.001000
1009.711538,-0.031225,0.001000,0.001000,0.001000,0.001000,0.001000
1009.730769,-0.030297,0.001000,0.001000,0.001000,0.001000,0.001000
1009.750000,-0.029352,0.001000,0.001000,0.001000,0.001000,0.001000
1009.769231,-0.028390,0.001000,0.001000,0.001000,0.001000,0.001000
1009.788462,-0.027413,0.001000,0.001000,0.001000,0.001000,0.001000
1009.807692,-0.026421,0.001000,0.001000,0.001000,0.001000,0.001000
1009.826923,-0.025414,0.001000,0.001000,0.001000,0.001000,0.001000
1009.846154,-0.024394,0.001000,0.001000,0.001000,0.001000,0.001000
1009.865385,-0.023359,0.001000,0.001000,0.001000,0.001000,0.001000
1009.884615,-0.022312,0.001000,0.001000,0.001000,0.001000,0.001000
1009.903846,-0.021252,0.001000,0.001000,0.001000,0.001000,0.001000
1009.923077,-0.020180,0.001000,0.001000,0.001000,0.001000,0.001000
1009.942308,-0.019098,0.001000,0.001000,0.001000,0.001000,0.001000
1009.961538,-0.018004,0.001000,0.001000,0.001000,0.001000,0.001000
1009.980769,-0.016901,0.001000,0.001000,0.001000,0.001000,0.001000
1010.000000,-0.015788,0.001000,0.001000,0.001000,0.001000,0.001000
1010.019231,-0.014667,0.001000,0.001000,0.001000,0.001000,0.001000
1010.038462,-0.013537,0.001000,0.001000,0.001000,0.001000,0.001000
1010.057692,-0.012400,0.001000,0.001000,0.001000,0.001000,0.001000
1010.076923,-0.011256,0.001000,0.001000,0.001000,0.001000,0.001000
1010.096154,-0.010106,0.001000,0.001000,0.001000,0.001000,0.001000
1010.115385,-0.008950,0.001000,0.001000,0.001000,0.001000,0.001000
1010.134615,-0.007789,0.001000,0.001000,0.001000,0.001000,0.001000
1010.153846,-0.006624,0.001000,0.001000,0.001000,0.001000,0.001000
1010.173077,-0.005455,0.001000,0.001000,0.001000,0.001000,0.001000
1010.192308,-0.004284,0.001000,0.001000,0.001000,0.001000,0.001000
1010.211538,-0.003110,0.001000,0.001000,0.001000,0.001000,0.001000
1010.230769,-0.001934,0.001000,0.001000,0.001000,0.001000,0.001000
1010.250000,-0.000757,0.001000,0.001000,0.001000,0.001000,0.001000
1010.269231,0.000421,0.001000,0.001000,0.001000,0.001000,0.001000
1010.288462,0.001598,0.001000,0.001000,0.001000,0.001000,0.001000
1010.307692,0.002774,0.001000,0.001000,0.001000,0.001000,0.001000
1010.326923,0.003949,0.001000,0.001000,0.001000,0.001000,0.001000
1010.346154,0.005121,0.001000,0.001000,0.001000,0.001000,0.001000
1010.365385,0.006291,0.001000,0.001000,0.001000,0.001000,0.001000
1010.384615,0.007457,0.001000,0.001000,0.001000,0.001000,0.001000
1010.403846,0.008619,0.001000,0.001000,0.001000,0.001000,0.001000
1010.423077,0.009777,0.001000,0.001000,0.001000,0.001000,0.001000
1010.442308,0.010928,0.001000,0.001000,0.001000,0.001000,0.001000
1010.461538,0.012074,0.001000,0.001000,0.001000,0.001000,0.001000
1010.480769,0.013213,0.001000,0.001000,0.001000,0.001000,0.001000
1010.500000,0.014345,0.001000,0.001000,0.001000,0.001000,0.001000
1010.519231,0.015469,0.001000,0.001000,0.001000,0.001000,0.001000
1010.538462,0.016584,0.001000,0.001000,0.001000,0.001000,0.001000
1010.557692,0.017690,0.001000,0.001000,0.001000,0.001000,0.001000
1010.576923,0.018787,0.001000,0.001000,0.001000,0.001000,0.001000
1010.596154,0.019872,0.001000,0.001000,0.001000,0.001000,0.001000
1010.615385,0.020947,0.001000,0.001000,0.001000,0.001000,0.001000
1010.634615,0.022010,0.001000,0.001000,0.001000,0.001000,0.001000
1010.653846,0.023061,0.001000,0.001000,0.001000,0.001000,0.001000
1010.673077,0.024100,0.001000,0.001000,0.001000,0.001000,0.001000
1010.692308,0.025124,0.001000,0.001000,0.001000,0.001000,0.001000
1010.711538,0.026135,0.001000,0.001000,0.001000,0.001000,0.001000
1010.730769,0.027132,0.001000,0.001000,0.001000,0.001000,0.001000
1010.750000,0.028113,0.001000,0.001000,0.001000,0.001000,0.001000
1010.769231,0.029079,0.001000,0.001000,0.001000,0.001000,0.001000
1010.788462,0.030029,0.001000,0.001000,0.001000,0.001000,0.001000
1010.807692,0.030962,0.001000,0.001000,0.001000,0.001000,0.001000
1010.826923,0.031878,0.001000,0.001000,0.001000,0.001000,0.001000
1010.846154,0.032776,0.001000,0.001000,0.001000,0.001000,0.001000
1010.865385,0.033656,0.001000,0.001000,0.001000,0.001000,0.001000
1010.884615,0.034517,0.001000,0.001000,0.001000,0.001000,0.001000
1010.903846,0.035359,0.001000,0.001000,0.001000,0.001000,0.001000
1010.923077,0.036182,0.001000,0.001000,0.001000,0.001000,0.001000
1010.942308,0.036984,0.001000,0.001000,0.001000,0.001000,0.001000
1010.961538,0.037766,0.001000,0.001000,0.001000,0.001000,0.001000
1010.980769,0.038527,0.001000,0.001000,0.001000,0.001000,0.001000
1011.000000,0.039267,0.001000,0.001000,0.001000,0.001000,0.001000
1011.019231,0.039985,0.001000,0.001000,0.001000,0.001000,0.001000
1011.038462,0.040681,0.001000,0.001000,0.001000,0.001000,0.001000
1011.057692,0.041354,0.001000,0.001000,0.001000,0.001000,0.001000
1011.076923,0.042004,0.001000,0.001000,0.001000,0.001000,0.001000
1011.096154,0.042631,0.001000,0.001000,0.001000,0.001000,0.001000
1011.115385,0.043235,0.001000,0.001000,0.001000,0.001000,0.001000
1011.134615,0.043814,0.001000,0.001000,0.001000,0.001000,0.001000
1011.153846,0.044369,0.001000,0.001000,0.001000,0.001000,0.001000
1011.173077,0.044900,0.001000,0.001000,0.001000,0.001000,0.001000
1011.192308,0.045405,0.001000,0.001000,0.001000,0.001000,0.001000
1011.211538,0.045886,0.001000,0.001000,0.001000,0.001000,0.001000
1011.230769,0.046341,0.001000,0.001000,0.001000,0.001000,0.001000
1011.250000,0.046770,0.001000,0.001000,0.001000,0.001000,0.001000
1011.269231,0.047173,0.001000,0.001000,0.001000,0.001000,0.001000
1011.288462,0.047550,0.001000,0.001000,0.001000,0.001000,0.001000
1011.307692,0.047901,0.001000,0.001000,0.001000,0.001000,0.001000
1011.326923,0.048225,0.001000,0.001000,0.001000,0.001000,0.001000
1011.346154,0.048523,0.001000,0.001000,0.001000,0.001000,0.001000
1011.365385,0.048793,0.001000,0.001000,0.001000,0.001000,0.001000
1011.384615,0.049037,0.001000,0.001000,0.001000,0.001000,0.001000
1011.403846,0.049253,0.001000,0.001000,0.001000,0.001000,0.001000
1011.423077,0.049442,0.001000,0.001000,0.001000,0.001000,0.001000
1011.442308,0.049604,0.001000,0.001000,0.001000,0.001000,0.001000
1011.461538,0.049738,0.001000,0.001000,0.001000,0.001000,0.001000
1011.480769,0.049845,0.001000,0.001000,0.001000,0.001000,0.001000
1011.500000,0.049924,0.001000,0.001000,0.001000,0.001000,0.001000
1011.519231,0.049975,0.001000,0.001000,0.001000,0.001000,0.001000
1011.538462,0.049998,0.001000,0.001000,0.001000,0.001000,0.001000
1011.557692,0.049994,0.001000,0.001000,0.001000,0.001000,0.001000
1011.576923,0.049962,0.001000,0.001000,0.001000,0.001000,0.001000
1011.596154,0.049903,0.001000,0.001000,0.001000,0.001000,0.001000
1011.615385,0.049815,0.001000,0.001000,0.001000,0.001000,0.001000
1011.634615,0.049700,0.001000,0.001000,0.001000,0.001000,0.001000
1011.653846,0.049558,0.001000,0.001000,0.001000,0.001000,0.001000
1011.673077,0.049388,0.001000,0.001000,0.001000,0.001000,0.001000
1011.692308,0.049190,0.001000,0.001000,0.001000,0.001000,0.001000
1011.711538,0.048966,0.001000,0.001000,0.001000,0.001000,0.001000
1011.730769,0.048714,0.001000,0.001000,0.001000,0.001000,0.001000
1011.750000,0.048435,0.001000,0.001000,0.001000,0.001000,0.001000
1011.769231,0.048130,0.001000,0.001000,0.001000,0.001000,0.001000
1011.788462,0.047797,0.001000,0.001000,0.001000,0.001000,0.001000
1011.807692,0.047438,0.001000,0.001000,0.001000,0.001000,0.001000
1011.826923,0.047053,0.001000,0.001000,0.001000,0.001000,0.001000
1011.846154,0.046642,0.001000,0.001000,0.001000,0.001000,0.001000
1011.865385,0.046205,0.001000,0.001000,0.001000,0.001000,0.001000
1011.884615,0.045742,0.001000,0.001000,0.001000,0.001000,0.001000
1011.903846,0.045254,0.001000,0.001000,0.001000,0.001000,0.001000
1011.923077,0.044741,0.001000,0.001000,0.001000,0.001000,0.001000
1011.942308,0.044203,0.001000,0.001000,0.001000,0.001000,0.001000
1011.961538,0.043640,0.001000,0.001000,0.001000,0.001000,0.001000
1011.980769,0.043054,0.001000,0.001000,0.001000,0.001000,0.001000
1012.000000,0.042443,0.001000,0.001000,0.001000,0.001000,0.001000
1012.019231,0.041809,0.001000,0.001000,0.001000,0.001000,0.001000
1012.038462,0.041152,0.001000,0.001000,0.001000,0.001000,0.001000
1012.057692,0.040472,0.001000,0.001000,0.001000,0.001000,0.001000
1012.076923,0.039769,0.001000,0.001000,0.001000,0.001000,0.001000
1012.096154,0.039045,0.001000,0.001000,0.001000,0.001000,0.001000
1012.115385,0.038298,0.001000,0.001000,0.001000,0.001000,0.001000
1012.134615,0.037531,0.001000,0.001000,0.001000,0.001000,0.001000
1012.153846,0.036743,0.001000,0.001000,0.001000,0.001000,0.001000
1012.173077,0.035934,0.001000,0.001000,0.001000,0.001000,0.001000
1012.192308,0.035105,0.001000,0.001000,0.001000,0.001000,0.001000
1012.211538,0.034257,0.001000,0.001000,0.001000,0.001000,0.001000
1012.230769,0.033390,0.001000,0.001000,0.001000,0.001000,0.001000
1012.250000,0.032505,0.001000,0.001000,0.001000,0.001000,0.001000
1012.269231,0.031601,0.001000,0.001000,0.001000,0.001000,0.001000
1012.288462,0.030680,0.001000,0.001000,0.001000,0.001000,0.001000
1012.307692,0.029742,0.001000,0.001000,0.001000,0.001000,0.001000
1012.326923,0.028787,0.001000,0.001000,0.001000,0.001000,0.001000
1012.346154,0.027817,0.001000,0.001000,0.001000,0.001000,0.001000
1012.365385,0.026831,0.001000,0.001000,0.001000,0.001000,0.001000
1012.384615,0.025830,0.001000,0.001000,0.001000,0.001000,0.001000
1012.403846,0.024814,0.001000,0.001000,0.001000,0.001000,0.001000
1012.423077,0.023785,0.001000,0.001000,0.001000,0.001000,0.001000
1012.442308,0.022743,0.001000,0.001000,0.001000,0.001000,0.001000
1012.461538,0.021689,0.001000,0.001000,0.001000,0.001000,0.001000
1012.480769,0.020622,0.001000,0.001000,0.001000,0.001000,0.001000
1012.500000,0.019544,0.001000,0.001000,0.001000,0.001000,0.001000
1012.519231,0.018454,0.001000,0.001000,0.001000,0.001000,0.001000
1012.538462,0.017355,0.001000,0.001000,0.001000,0.001000,0.001000
1012.557692,0.016246,0.001000,0.001000,0.001000,0.001000,0.001000
1012.576923,0.015128,0.001000,0.001000,0.001000,0.001000,0.001000
1012.596154,0.014002,0.001000,0.001000,0.001000,0.001000,0.001000
1012.615385,0.012868,0.001000,0.001000,0.001000,0.001000,0.001000
1012.634615,0.011727,0.001000,0.001000,0.001000,0.001000,0.001000
1012.653846,0.010579,0.001000,0.001000,0.001000,0.001000,0.001000
1012.673077,0.009425,0.001000,0.001000,0.001000,0.001000,0.001000
1012.692308,0.008267,0.001000,0.001000,0.001000,0.001000,0.001000
1012.711538,0.007103,0.001000,0.001000,0.001000,0.001000,0.001000
1012.730769,0.005936,0.001000,0.001000,0.001000,0.001000,0.001000
1012.750000,0.004765,0.001000,0.001000,0.001000,0.001000,0.001000
1012.769231,0.003592,0.001000,0.001000,0.001000,0.001000,0.001000
1012.788462,0.002417,0.001000,0.001000,0.001000,0.001000,0.001000
1012.807692,0.001240,0.001000,0.001000,0.001000,0.001000,0.001000
1012.826923,0.000063,0.001000,0.001000,0.001000,0.001000,0.001000
1012.846154,-0.001114,0.001000,0.001000,0.001000,0.001000,0.001000
1012.865385,-0.002291,0.001000,0.001000,0.001000,0.001000,0.001000
1012.884615,-0.003467,0.001000,0.001000,0.001000,0.001000,0.001000
1012.903846,-0.004640,0.001000,0.001000,0.001000,0.001000,0.001000
1012.923077,-0.005811,0.001000,0.001000,0.001000,0.001000,0.001000
1012.942308,-0.006979,0.001000,0.001000,0.001000,0.001000,0.001000
1012.961538,-0.008143,0.001000,0.001000,0.001000,0.001000,0.001000
1012.980769,-0.009302,0.001000,0.001000,0.001000,0.001000,0.001000
1013.000000,-0.010456,0.001000,0.001000,0.001000,0.001000,0.001000
1013.019231,-0.011605,0.001000,0.001000,0.001000,0.001000,0.001000
1013.038462,-0.012746,0.001000,0.001000,0.001000,0.001000,0.001000
1013.057692,-0.013881,0.001000,0.001000,0.001000,0.001000,0.001000
1013.076923,-0.015009,0.001000,0.001000,0.001000,0.001000,0.001000
1013.096154,-0.016127,0.001000,0.001000,0.001000,0.001000,0.001000
1013.115385,-0.017237,0.001000,0.001000,0.001000,0.001000,0.001000
1013.134615,-0.018338,0.001000,0.001000,0.001000,0.001000,0.001000
1013.153846,-0.019428,0.001000,0.001000,0.001000,0.001000,0.001000
1013.173077,-0.020507,0.001000,0.001000,0.001000,0.001000,0.001000
1013.192308,-0.021575,0.001000,0.001000,0.001000,0.001000,0.001000
1013.211538,-0.022631,0.001000,0.001000,0.001000,0.001000,0.001000
1013.230769,-0.023675,0.001000,0.001000,0.001000,0.001000,0.001000
1013.250000,-0.024705,0.001000,0.001000,0.001000,0.001000,0.001000
1013.269231,-0.025722,0.001000,0.001000,0.001000,0.001000,0.001000
1013.288462,-0.026724,0.001000,0.001000,0.001000,0.001000,0.001000
1013.307692,-0.027712,0.001000,0.001000,0.001000,0.001000,0.001000
1013.326923,-0.028684,0.001000,0.001000,0.001000,0.001000,0.001000
1013.346154,-0.029641,0.001000,0.001000,0.001000,0.001000,0.001000
1013.365385,-0.030581,0.001000,0.001000,0.001000,0.001000,0.001000
1013.384615,-0.031504,0.001000,0.001000,0.001000,0.001000,0.001000
1013.403846,-0.032409,0.001000,0.001000,0.001000,0.001000,0.001000
1013.423077,-0.033297,0.001000,0.001000,0.001000,0.001000,0.001000
1013.442308,-0.034166,0.001000,0.001000,0.001000,0.001000,0.001000
1013.461538,-0.035016,0.001000,0.001000,0.001000,0.001000,0.001000
1013.480769,-0.035846,0.001000,0.001000,0.001000,0.001000,0.001000
1013.500000,-0.036657,0.001000,0.001000,0.001000,0.001000,0.001000
1013.519231,-0.037448,0.001000,0.001000,0.001000,0.001000,0.001000
1013.538462,-0.038217,0.001000,0.001000,0.001000,0.001000,0.001000
1013.557692,-0.038966,0.001000,0.001000,0.001000,0.001000,0.001000
1013.576923,-0.039693,0.001000,0.001000,0.001000,0.001000,0.001000
1013.596154,-0.040398,0.001000,0.001000,0.001000,0.001000,0.001000
1013.615385,-0.041080,0.001000,0.001000,0.001000,0.001000,0.001000
1013.634615,-0.041740,0.001000,0.001000,0.001000,0.001000,0.001000
1013.653846,-0.042377,0.001000,0.001000,0.001000,0.001000,0.001000
1013.673077,-0.042990,0.001000,0.001000,0.001000,0.001000,0.001000
1013.692308,-0.043579,0.001000,0.001000,0.001000,0.001000,0.001000
1013.711538,-0.044144,0.001000,0.001000,0.001000,0.001000,0.001000
1013.730769,-0.044685,0.001000,0.001000,0.001000,0.001000,0.001000
1013.750000,-0.045201,0.001000,0.001000,0.001000,0.001000,0.001000
1013.769231,-0.045691,0.001000,0.001000,0.001000,0.001000,0.001000
1013.788462,-0.046157,0.001000,0.001000,0.001000,0.001000,0.001000
1013.807692,-0.046597,0.001000,0.001000,0.001000,0.001000,0.001000
1013.826923,-0.047011,0.001000,0.001000,0.001000,0.001000,0.001000
1013.846154,-0.047399,0.001000,0.001000,0.001000,0.001000,0.001000
1013.865385,-0.047760,0.001000,0.001000,0.001000,0.001000,0.001000
1013.884615,-0.048095,0.001000,0.001000,0.001000,0.001000,0.001000
1013.903846,-0.048404,0.001000,0.001000,0.001000,0.001000,0.001000
1013.923077,-0.048686,0.001000,0.001000,0.001000,0.001000,0.001000
1013.942308,-0.048940,0.001000,0.001000,0.001000,0.001000,0.001000
1013.961538,-0.049168,0.001000,0.001000,0.001000,0.001000,0.001000
1013.980769,-0.049368,0.001000,0.001000,0.001000,0.001000,0.001000
1014.000000,-0.049541,0.001000,0.001000,0.001000,0.001000,0.001000
1014.019231,-0.049686,0.001000,0.001000,0.001000,0.001000,0.001000
1014.038462,-0.049804,0.001000,0.001000,0.001000,0.001000,0.001000
1014.057692,-0.049895,0.001000,0.001000,0.001000,0.001000,0.001000
1014.076923,-0.049957,0.001000,0.001000,0.001000,0.001000,0.001000
1014.096154,-0.049992,0.001000,0.001000,0.001000,0.001000,0.001000
1014.115385,-0.049999,0.001000,0.001000,0.001000,0.001000,0.001000
1014.134615,-0.049979,0.001000,0.001000,0.001000,0.001000,0.001000
1014.153846,-0.049930,0.001000,0.001000,0.001000,0.001000,0.001000
1014.173077,-0.049854,0.001000,0.001000,0.001000,0.001000,0.001000
1014.192308,-0.049751,0.001000,0.001000,0.001000,0.001000,0.001000
1014.211538,-0.049620,0.001000,0.001000,0.001000,0.001000,0.001000
1014.230769,-0.049461,0.001000,0.001000,0.001000,0.001000,0.001000
1014.250000,-0.049275,0.001000,0.001000,0.001000,0.001000,0.001000
1014.269231,-0.049061,0.001000,0.001000,0.001000,0.001000,0.001000
1014.288462,-0.048821,0.001000,0.001000,0.001000,0.001000,0.001000
1014.307692,-0.048553,0.001000,0.001000,0.001000,0.001000,0.001000
1014.326923,-0.048258,0.001000,0.001000,0.001000,0.001000,0.001000
1014.346154,-0.047937,0.001000,0.001000,0.001000,0.001000,0.001000
1014.365385,-0.047589,0.001000,0.001000,0.001000,0.001000,0.001000
1014.384615,-0.047215,0.001000,0.001000,0.001000,0.001000,0.001000
1014.403846,-0.046814,0.001000,0.001000,0.001000,0.001000,0.001000
1014.423077,-0.046388,0.001000,0.001000,0.001000,0.001000,0.001000
1014.442308,-0.045935,0.001000,0.001000,0.001000,0.001000,0.001000
1014.461538,-0.045458,0.001000,0.001000,0.001000,0.001000,0.001000
1014.480769,-0.044955,0.001000,0.001000,0.001000,0.001000,0.001000
1014.500000,-0.044427,0.001000,0.001000,0.001000,0.001000,0.001000
1014.519231,-0.043874,0.001000,0.001000,0.001000,0.001000,0.001000
1014.538462,-0.043298,0.001000,0.001000,0.001000,0.001000,0.001000
1014.557692,-0.042697,0.001000,0.001000,0.001000,0.001000,0.001000
1014.576923,-0.042072,0.001000,0.001000,0.001000,0.001000,0.001000
1014.596154,-0.041425,0.001000,0.001000,0.001000,0.001000,0.001000
1014.615385,-0.040754,0.001000,0.001000,0.001000,0.001000,0.001000
1014.634615,-0.040060,0.001000,0.001000,0.001000,0.001000,0.001000
1014.653846,-0.039345,0.001000,0.001000,0.001000,0.001000,0.001000
1014.673077,-0.038607,0.001000,0.001000,0.001000,0.001000,0.001000
1014.692308,-0.037849,0.001000,0.001000,0.001000,0.001000,0.001000
1014.711538,-0.037069,0.001000,0.001000,0.001000,0.001000,0.001000
1014.730769,-0.036268,0.001000,0.001000,0.001000,0.001000,0.001000
1014.750000,-0.035448,0.001000,0.001000,0.001000,0.001000,0.001000
1014.769231,-0.034608,0.001000,0.001000,0.001000,0.001000,0.001000
1014.788462,-0.033749,0.001000,0.001000,0.001000,0.001000,0.001000
1014.807692,-0.032870,0.001000,0.001000,0.001000,0.001000,0.001000
1014.826923,-0.031974,0.001000,0.001000,0.001000,0.001000,0.001000
1014.846154,-0.031060,0.001000,0.001000,0.001000,0.001000,0.001000
1014.865385,-0.030129,0.001000,0.001000,0.001000,0.001000,0.001000
1014.884615,-0.029181,0.001000,0.001000,0.001000,0.001000,0.001000
1014.903846,-0.028217,0.001000,0.001000,0.001000,0.001000,0.001000
1014.923077,-0.027237,0.001000,0.001000,0.001000,0.001000,0.001000
1014.942308,-0.026242,0.001000,0.001000,0.001000,0.001000,0.001000
1014.961538,-0.025233,0.001000,0.001000,0.001000,0.001000,0.001000
1014.980769,-0.024210,0.001000,0.001000,0.001000,0.001000,0.001000
1015.000000,-0.023173,0.001000,0.001000,0.001000,0.001000,0.001000
1015.019231,-0.022123,0.001000,0.001000,0.001000,0.001000,0.001000
1015.038462,-0.021061,0.001000,0.001000,0.001000,0.001000,0.001000
1015.057692,-0.019988,0.001000,0.001000,0.001000,0.001000,0.001000
1015.076923,-0.018903,0.001000,0.001000,0.001000,0.001000,0.001000
1015.096154,-0.017808,0.001000,0.001000,0.001000,0.001000,0.001000
1015.115385,-0.016703,0.001000,0.001000,0.001000,0.001000,0.001000
1015.134615,-0.015588,0.001000,0.001000,0.001000,0.001000,0.001000
1015.153846,-0.014466,0.001000,0.001000,0.001000,0.001000,0.001000
1015.173077,-0.013335,0.001000,0.001000,0.001000,0.001000,0.001000
1015.192308,-0.012196,0.001000,0.001000,0.001000,0.001000,0.001000
1015.211538,-0.011051,0.001000,0.001000,0.001000,0.001000,0.001000
1015.230769,-0.009900,0.001000,0.001000,0.001000,0.001000,0.001000
1015.250000,-0.008743,0.001000,0.001000,0.001000,0.001000,0.001000
1015.269231,-0.007581,0.001000,0.001000,0.001000,0.001000,0.001000
1015.288462,-0.006416,0.001000,0.001000,0.001000,0.001000,0.001000
1015.307692,-0.005246,0.001000,0.001000,0.001000,0.001000,0.001000
1015.326923,-0.004074,0.001000,0.001000,0.001000,0.001000,0.001000
1015.346154,-0.002900,0.001000,0.001000,0.001000,0.001000,0.001000
1015.365385,-0.001723,0.001000,0.001000,0.001000,0.001000,0.001000
1015.384615,-0.000546,0.001000,0.001000,0.001000,0.001000,0.001000
1015.403846,0.000631,0.001000,0.001000,0.001000,0.001000,0.001000
1015.423077,0.001808,0.001000,0.001000,0.001000,0.001000,0.001000
1015.442308,0.002984,0.001000,0.001000,0.001000,0.001000,0.001000
1015.461538,0.004158,0.001000,0.001000,0.001000,0.001000,0.001000
1015.480769,0.005331,0.001000,0.001000,0.001000,0.001000,0.001000
1015.500000,0.006500,0.001000,0.001000,0.001000,0.001000,0.001000
1015.519231,0.007665,0.001000,0.001000,0.001000,0.001000,0.001000
1015.538462,0.008826,0.001000,0.001000,0.001000,0.001000,0.001000
1015.557692,0.009983,0.001000,0.001000,0.001000,0.001000,0.001000
1015.576923,0.011134,0.001000,0.001000,0.001000,0.001000,0.001000
1015.596154,0.012278,0.001000,0.001000,0.001000,0.001000,0.001000
1015.615385,0.013416,0.001000,0.001000,0.001000,0.001000,0.001000
1015.634615,0.014547,0.001000,0.001000,0.001000,0.001000,0.001000
1015.653846,0.015669,0.001000,0.001000,0.001000,0.001000,0.001000
1015.673077,0.016783,0.001000,0.001000,0.001000,0.001000,0.001000
1015.692308,0.017887,0.001000,0.001000,0.001000,0.001000,0.001000
1015.711538,0.018981,0.001000,0.001000,0.001000,0.001000,0.001000
1015.730769,0.020065,0.001000,0.001000,0.001000,0.001000,0.001000
1015.750000,0.021138,0.001000,0.001000,0.001000,0.001000,0.001000
1015.769231,0.022199,0.001000,0.001000,0.001000,0.001000,0.001000
1015.788462,0.023248,0.001000,0.001000,0.001000,0.001000,0.001000
1015.807692,0.024284,0.001000,0.001000,0.001000,0.001000,0.001000
1015.826923,0.025306,0.001000,0.001000,0.001000,0.001000,0.001000
1015.846154,0.026314,0.001000,0.001000,0.001000,0.001000,0.001000
1015.865385,0.027308,0.001000,0.001000,0.001000,0.001000,0.001000
1015.884615,0.028287,0.001000,0.001000,0.001000,0.001000,0.001000
1015.903846,0.029250,0.001000,0.001000,0.001000,0.001000,0.001000
1015.923077,0.030197,0.001000,0.001000,0.001000,0.001000,0.001000
1015.942308,0.031127,0.001000,0.001000,0.001000,0.001000,0.001000
1015.961538,0.032039,0.001000,0.001000,0.001000,0.001000,0.001000
1015.980769,0.032934,0.001000,0.001000,0.001000,0.001000,0.001000
1016.000000,0.033811,0.001000,0.001000,0.001000,0.001000,0.001000
1016.019231,0.034669,0.001000,0.001000,0.001000,0.001000,0.001000
1016.038462,0.035508,0.001000,0.001000,0.001000,0.001000,0.001000
1016.057692,0.036327,0.001000,0.001000,0.001000,0.001000,0.001000
1016.076923,0.037126,0.001000,0.001000,0.001000,0.001000,0.001000
1016.096154,0.037904,0.001000,0.001000,0.001000,0.001000,0.001000
1016.115385,0.038661,0.001000,0.001000,0.001000,0.001000,0.001000
1016.134615,0.039397,0.001000,0.001000,0.001000,0.001000,0.001000
1016.153846,0.040111,0.001000,0.001000,0.001000,0.001000,0.001000
1016.173077,0.040803,0.001000,0.001000,0.001000,0.001000,0.001000
1016.192308,0.041472,0.001000,0.001000,0.001000,0.001000,0.001000
1016.211538,0.042118,0.001000,0.001000,0.001000,0.001000,0.001000
1016.230769,0.042741,0.001000,0.001000,0.001000,0.001000,0.001000
1016.250000,0.043340,0.001000,0.001000,0.001000,0.001000,0.001000
1016.269231,0.043915,0.001000,0.001000,0.001000,0.001000,0.001000
1016.288462,0.044466,0.001000,0.001000,0.001000,0.001000,0.001000
1016.307692,0.044992,0.001000,0.001000,0.001000,0.001000,0.001000
1016.326923,0.045493,0.001000,0.001000,0.001000,0.001000,0.001000
1016.346154,0.045969,0.001000,0.001000,0.001000,0.001000,0.001000
1016.365385,0.046419,0.001000,0.001000,0.001000,0.001000,0.001000
1016.384615,0.046844,0.001000,0.001000,0.001000,0.001000,0.001000
1016.403846,0.047242,0.001000,0.001000,0.001000,0.001000,0.001000
1016.423077,0.047615,0.001000,0.001000,0.001000,0.001000,0.001000
1016.442308,0.047961,0.001000,0.001000,0.001000,0.001000,0.001000
1016.461538,0.048280,0.001000,0.001000,0.001000,0.001000,0.001000
1016.480769,0.048573,0.001000,0.001000,0.001000,0.001000,0.001000
1016.500000,0.048839,0.001000,0.001000,0.001000,0.001000,0.001000
1016.519231,0.049078,0.001000,0.001000,0.001000,0.001000,0.001000
1016.538462,0.049289,0.001000,0.001000,0.001000,0.001000,0.001000
1016.557692,0.049473,0.001000,0.001000,0.001000,0.001000,0.001000
1016.576923,0.049630,0.001000,0.001000,0.001000,0.001000,0.001000
1016.596154,0.049759,0.001000,0.001000,0.001000,0.001000,0.001000
1016.615385,0.049861,0.001000,0.001000,0.001000,0.001000,0.001000
1016.634615,0.049935,0.001000,0.001000,0.001000,0.001000,0.001000
1016.653846,0.049981,0.001000,0.001000,0.001000,0.001000,0.001000
1016.673077,0.050000,0.001000,0.001000,0.001000,0.001000,0.001000
1016.692308,0.049990,0.001000,0.001000,0.001000,0.001000,0.001000
1016.711538,0.049954,0.001000,0.001000,0.001000,0.001000,0.001000
1016.730769,0.049889,0.001000,0.001000,0.001000,0.001000,0.001000
1016.750000,0.049797,0.001000,0.001000,0.001000,0.001000,0.001000
1016.769231,0.049677,0.001000,0.001000,0.001000,0.001000,0.001000
1016.788462,0.049529,0.001000,0.001000,0.001000,0.001000,0.001000
1016.807692,0.049355,0.001000,0.001000,0.001000,0.001000,0.001000
1016.826923,0.049152,0.001000,0.001000,0.001000,0.001000,0.001000
1016.846154,0.048923,0.001000,0.001000,0.001000,0.001000,0.001000
1016.865385,0.048666,0.001000,0.001000,0.001000,0.001000,0.001000
1016.884615,0.048383,0.001000,0.001000,0.001000,0.001000,0.001000
1016.903846,0.048072,0.001000,0.001000,0.001000,0.001000,0.001000
1016.923077,0.047735,0.001000,0.001000,0.001000,0.001000,0.001000
1016.942308,0.047372,0.001000,0.001000,0.001000,0.001000,0.001000
1016.961538,0.046982,0.001000,0.001000,0.001000,0.001000,0.001000
1016.980769,0.046566,0.001000,0.001000,0.001000,0.001000,0.001000
1017.000000,0.046124,0.001000,0.001000,0.001000,0.001000,0.001000
1017.019231,0.045657,0.001000,0.001000,0.001000,0.001000,0.001000
1017.038462,0.045164,0.001000,0.001000,0.001000,0.001000,0.001000
1017.057692,0.044647,0.001000,0.001000,0.001000,0.001000,0.001000
1017.076923,0.044104,0.001000,0.001000,0.001000,0.001000,0.001000
1017.096154,0.043537,0.001000,0.001000,0.001000,0.001000,0.001000
1017.115385,0.042946,0.001000,0.001000,0.001000,0.001000,0.001000
1017.134615,0.042332,0.001000,0.001000,0.001000,0.001000,0.001000
1017.153846,0.041693,0.001000,0.001000,0.001000,0.001000,0.001000
1017.173077,0.041032,0.001000,0.001000,0.001000,0.001000,0.001000
1017.192308,0.040348,0.001000,0.001000,0.001000,0.001000,0.001000
1017.211538,0.039641,0.001000,0.001000,0.001000,0.001000,0.001000
1017.230769,0.038913,0.001000,0.001000,0.001000,0.001000,0.001000
1017.250000,0.038163,0.001000,0.001000,0.001000,0.001000,0.001000
1017.269231,0.037392,0.001000,0.001000,0.001000,0.001000,0.001000
1017.288462,0.036600,0.001000,0.001000,0.001000,0.001000,0.001000
1017.307692,0.035787,0.001000,0.001000,0.001000,0.001000,0.001000
1017.326923,0.034955,0.001000,0.001000,0.001000,0.001000,0.001000
1017.346154,0.034104,0.001000,0.001000,0.001000,0.001000,0.001000
1017.365385,0.033233,0.001000,0.001000,0.001000,0.001000,0.001000
1017.384615,0.032344,0.001000,0.001000,0.001000,0.001000,0.001000
1017.403846,0.031438,0.001000,0.001000,0.001000,0.001000,0.001000
1017.423077,0.030514,0.001000,0.001000,0.001000,0.001000,0.001000
1017.442308,0.029572,0.001000,0.001000,0.001000,0.001000,0.001000
1017.461538,0.028615,0.001000,0.001000,0.001000,0.001000,0.001000
1017.480769,0.027642,0.001000,0.001000,0.001000,0.001000,0.001000
1017.500000,0.026653,0.001000,0.001000,0.001000,0.001000,0.001000
1017.519231,0.025649,0.001000,0.001000,0.001000,0.001000,0.001000
1017.538462,0.024632,0.001000,0.001000,0.001000,0.001000,0.001000
1017.557692,0.023600,0.001000,0.001000,0.001000,0.001000,0.001000
1017.576923,0.022556,0.001000,0.001000,0.001000,0.001000,0.001000
1017.596154,0.021499,0.001000,0.001000,0.001000,0.001000,0.001000
1017.615385,0.020430,0.001000,0.001000,0.001000,0.001000,0.001000
1017.634615,0.019350,0.001000,0.001000,0.001000,0.001000,0.001000
1017.653846,0.018259,0.001000,0.001000,0.001000,0.001000,0.001000
1017.673077,0.017158,0.001000,0.001000,0.001000,0.001000,0.001000
1017.692308,0.016047,0.001000,0.001000,0.001000,0.001000,0.001000
1017.711538,0.014928,0.001000,0.001000,0.001000,0.001000,0.001000
1017.730769,0.013800,0.001000,0.001000,0.001000,0.001000,0.001000
1017.750000,0.012665,0.001000,0.001000,0.001000,0.001000,0.001000
1017.769231,0.011522,0.001000,0.001000,0.001000,0.001000,0.001000
1017.788462,0.010373,0.001000,0.001000,0.001000,0.001000,0.001000
1017.807692,0.009219,0.001000,0.001000,0.001000,0.001000,0.001000
1017.826923,0.008059,0.001000,0.001000,0.001000,0.001000,0.001000
1017.846154,0.006895,0.001000,0.001000,0.001000,0.001000,0.001000
1017.865385,0.005727,0.001000,0.001000,0.001000,0.001000,0.001000
1017.884615,0.004556,0.001000,0.001000,0.001000,0.001000,0.001000
1017.903846,0.003382,0.001000,0.001000,0.001000,0.001000,0.001000
1017.923077,0.002207,0.001000,0.001000,0.001000,0.001000,0.001000
1017.942308,0.001030,0.001000,0.001000,0.001000,0.001000,0.001000
1017.961538,-0.000148,0.001000,0.001000,0.001000,0.001000,0.001000
1017.980769,-0.001325,0.001000,0.001000,0.001000,0.001000,0.001000
1018.000000,-0.002501,0.001000,0.001000,0.001000,0.001000,0.001000
1018.019231,-0.003676,0.001000,0.001000,0.001000,0.001000,0.001000
1018.038462,-0.004850,0.001000,0.001000,0.001000,0.001000,0.001000
1018.057692,-0.006020,0.001000,0.001000,0.001000,0.001000,0.001000
1018.076923,-0.007187,0.001000,0.001000,0.001000,0.001000,0.001000
1018.096154,-0.008350,0.001000,0.001000,0.001000,0.001000,0.001000
1018.115385,-0.009509,0.001000,0.001000,0.001000,0.001000,0.001000
1018.134615,-0.010662,0.001000,0.001000,0.001000,0.001000,0.001000
1018.153846,-0.011809,0.001000,0.001000,0.001000,0.001000,0.001000
1018.173077,-0.012950,0.001000,0.001000,0.001000,0.001000,0.001000
1018.192308,-0.014083,0.001000,0.001000,0.001000,0.001000,0.001000
1018.211538,-0.015209,0.001000,0.001000,0.001000,0.001000,0.001000
1018.230769,-0.016326,0.001000,0.001000,0.001000,0.001000,0.001000
1018.250000,-0.017435,0.001000,0.001000,0.001000,0.001000,0.001000
1018.269231,-0.018533,0.001000,0.001000,0.001000,0.001000,0.001000
1018.288462,-0.019621,0.001000,0.001000,0.001000,0.001000,0.001000
1018.307692,-0.020699,0.001000,0.001000,0.001000,0.001000,0.001000
1018.326923,-0.021765,0.001000,0.001000,0.001000,0.001000,0.001000
1018.346154,-0.022819,0.001000,0.001000,0.001000,0.001000,0.001000
1018.365385,-0.023860,0.001000,0.001000,0.001000,0.001000,0.001000
1018.384615,-0.024888,0.001000,0.001000,0.001000,0.001000,0.001000
1018.403846,-0.025902,0.001000,0.001000,0.001000,0.001000,0.001000
1018.423077,-0.026902,0.001000,0.001000,0.001000,0.001000,0.001000
1018.442308,-0.027887,0.001000,0.001000,0.001000,0.001000,0.001000
1018.461538,-0.028856,0.001000,0.001000,0.001000,0.001000,0.001000
1018.480769,-0.029810,0.001000,0.001000,0.001000,0.001000,0.001000
1018.500000,-0.030747,0.001000,0.001000,0.001000,0.001000,0.001000
1018.519231,-0.031667,0.001000,0.001000,0.001000,0.001000,0.001000
1018.538462,-0.032569,0.001000,0.001000,0.001000,0.001000,0.001000
1018.557692,-0.033453,0.001000,0.001000,0.001000,0.001000,0.001000
1018.576923,-0.034319,0.001000,0.001000,0.001000,0.001000,0.001000
1018.596154,-0.035166,0.001000,0.001000,0.001000,0.001000,0.001000
1018.615385,-0.035993,0.001000,0.001000,0.001000,0.001000,0.001000
1018.634615,-0.036800,0.001000,0.001000,0.001000,0.001000,0.001000
1018.653846,-0.037587,0.001000,0.001000,0.001000,0.001000,0.001000
1018.673077,-0.038353,0.001000,0.001000,0.001000,0.001000,0.001000
1018.692308,-0.039097,0.001000,0.001000,0.001000,0.001000,0.001000
1018.711538,-0.039820,0.001000,0.001000,0.001000,0.001000,0.001000
1018.730769,-0.040521,0.001000,0.001000,0.001000,0.001000,0.001000
1018.750000,-0.041200,0.001000,0.001000,0.001000,0.001000,0.001000
1018.769231,-0.041855,0.001000,0.001000,0.001000,0.001000,0.001000
1018.788462,-0.042488,0.001000,0.001000,0.001000,0.001000,0.001000
1018.807692,-0.043097,0.001000,0.001000,0.001000,0.001000,0.001000
1018.826923,-0.043682,0.001000,0.001000,0.001000,0.001000,0.001000
1018.846154,-0.044242,0.001000,0.001000,0.001000,0.001000,0.001000
1018.865385,-0.044779,0.001000,0.001000,0.001000,0.001000,0.001000
1018.884615,-0.045290,0.001000,0.001000,0.001000,0.001000,0.001000
1018.903846,-0.045776,0.001000,0.001000,0.001000,0.001000,0.001000
1018.923077,-0.046237,0.001000,0.001000,0.001000,0.001000,0.001000
1018.942308,-0.046672,0.001000,0.001000,0.001000,0.001000,0.001000
1018.961538,-0.047082,0.001000,0.001000,0.001000,0.001000,0.001000
1018.980769,-0.047465,0.001000,0.001000,0.001000,0.001000,0.001000
1019.000000,-0.047822,0.001000,0.001000,0.001000,0.001000,0.001000
1019.019231,-0.048152,0.001000,0.001000,0.001000,0.001000,0.001000
1019.038462,-0.048456,0.001000,0.001000,0.001000,0.001000,0.001000
1019.057692,-0.048733,0.001000,0.001000,0.001000,0.001000,0.001000
1019.076923,-0.048983,0.001000,0.001000,0.001000,0.001000,0.001000
1019.096154,-0.049206,0.001000,0.001000,0.001000,0.001000,0.001000
1019.115385,-0.049401,0.001000,0.001000,0.001000,0.001000,0.001000
1019.134615,-0.049569,0.001000,0.001000,0.001000,0.001000,0.001000
1019.153846,-0.049709,0.001000,0.001000,0.001000,0.001000,0.001000
1019.173077,-0.049822,0.001000,0.001000,0.001000,0.001000,0.001000
1019.192308,-0.049908,0.001000,0.001000,0.001000,0.001000,0.001000
1019.211538,-0.049965,0.001000,0.001000,0.001000,0.001000,0.001000
1019.230769,-0.049995,0.001000,0.001000,0.001000,0.001000,0.001000
1019.250000,-0.049998,0.001000,0.001000,0.001000,0.001000,0.001000
1019.269231,-0.049972,0.001000,0.001000,0.001000,0.001000,0.001000
1019.288462,-0.049919,0.001000,0.001000,0.001000,0.001000,0.001000
1019.307692,-0.049838,0.001000,0.001000,0.001000,0.001000,0.001000
1019.326923,-0.049729,0.001000,0.001000,0.001000,0.001000,0.001000
1019.346154,-0.049593,0.001000,0.001000,0.001000,0.001000,0.001000
1019.365385,-0.049430,0.001000,0.001000,0.001000,0.001000,0.001000
1019.384615,-0.049239,0.001000,0.001000,0.001000,0.001000,0.001000
1019.403846,-0.049020,0.001000,0.001000,0.001000,0.001000,0.001000
1019.423077,-0.048775,0.001000,0.001000,0.001000,0.001000,0.001000
1019.442308,-0.048502,0.001000,0.001000,0.001000,0.001000,0.001000
1019.461538,-0.048203,0.001000,0.001000,0.001000,0.001000,0.001000
1019.480769,-0.047877,0.001000,0.001000,0.001000,0.001000,0.001000
1019.500000,-0.047524,0.001000,0.001000,0.001000,0.001000,0.001000
1019.519231,-0.047145,0.001000,0.001000,0.001000,0.001000,0.001000
1019.538462,-0.046740,0.001000,0.001000,0.001000,0.001000,0.001000
1019.557692,-0.046309,0.001000,0.001000,0.001000,0.001000,0.001000
1019.576923,-0.045852,0.001000,0.001000,0.001000,0.001000,0.001000
1019.596154,-0.045370,0.001000,0.001000,0.001000,0.001000,0.001000
1019.615385,-0.044862,0.001000,0.001000,0.001000,0.001000,0.001000
1019.634615,-0.044330,0.001000,0.001000,0.001000,0.001000,0.001000
1019.653846,-0.043773,0.001000,0.001000,0.001000,0.001000,0.001000
1019.673077,-0.043192,0.001000,0.001000,0.001000,0.001000,0.001000
1019.692308,-0.042587,0.001000,0.001000,0.001000,0.001000,0.001000
1019.711538,-0.041958,0.001000,0.001000,0.001000,0.001000,0.001000
1019.730769,-0.041306,0.001000,0.001000,0.001000,0.001000,0.001000
1019.750000,-0.040632,0.001000,0.001000,0.001000,0.001000,0.001000
1019.769231,-0.039934,0.001000,0.001000,0.001000,0.001000,0.001000
1019.788462,-0.039215,0.001000,0.001000,0.001000,0.001000,0.001000
1019.807692,-0.038473,0.001000,0.001000,0.001000,0.001000,0.001000
1019.826923,-0.037711,0.001000,0.001000,0.001000,0.001000,0.001000
1019.846154,-0.036927,0.001000,0.001000,0.001000,0.001000,0.001000
1019.865385,-0.036123,0.001000,0.001000,0.001000,0.001000,0.001000
1019.884615,-0.035299,0.001000,0.001000,0.001000,0.001000,0.001000
1019.903846,-0.034456,0.001000,0.001000,0.001000,0.001000,0.001000
1019.923077,-0.033593,0.001000,0.001000,0.001000,0.001000,0.001000
1019.942308,-0.032712,0.001000,0.001000,0.001000,0.001000,0.001000
1019.961538,-0.031812,0.001000,0.001000,0.001000,0.001000,0.001000
1019.980769,-0.030895,0.001000,0.001000,0.001000,0.001000,0.001000
1020.000000,-0.029961,0.001000,0.001000,0.001000,0.001000,0.001000
1020.019231,-0.029010,0.001000,0.001000,0.001000,0.001000,0.001000
1020.038462,-0.028043,0.001000,0.001000,0.001000,0.001000,0.001000
1020.057692,-0.027061,0.001000,0.001000,0.001000,0.001000,0.001000
1020.076923,-0.026063,0.001000,0.001000,0.001000,0.001000,0.001000
1020.096154,-0.025051,0.001000,0.001000,0.001000,0.001000,0.001000
1020.115385,-0.024025,0.001000,0.001000,0.001000,0.001000,0.001000
1020.134615,-0.022986,0.001000,0.001000,0.001000,0.001000,0.001000
1020.153846,-0.021934,0.001000,0.001000,0.001000,0.001000,0.001000
1020.173077,-0.020870,0.001000,0.001000,0.001000,0.001000,0.001000
1020.192308,-0.019795,0.001000,0.001000,0.001000,0.001000,0.001000
1020.211538,-0.018708,0.001000,0.001000,0.001000,0.001000,0.001000
1020.230769,-0.017611,0.001000,0.001000,0.001000,0.001000,0.001000
1020.250000,-0.016504,0.001000,0.001000,0.001000,0.001000,0.001000
1020.269231,-0.015388,0.001000,0.001000,0.001000,0.001000,0.001000
1020.288462,-0.014264,0.001000,0.001000,0.001000,0.001000,0.001000
1020.307692,-0.013132,0.001000,0.001000,0.001000,0.001000,0.001000
1020.326923,-0.011992,0.001000,0.001000,0.001000,0.001000,0.001000
1020.346154,-0.010846,0.001000,0.001000,0.001000,0.001000,0.001000
1020.365385,-0.009694,0.001000,0.001000,0.001000,0.001000,0.001000
1020.384615,-0.008536,0.001000,0.001000,0.001000,0.001000,0.001000
1020.403846,-0.007374,0.001000,0.001000,0.001000,0.001000,0.001000
1020.423077,-0.006207,0.001000,0.001000,0.001000,0.001000,0.001000
1020.442308,-0.005037,0.001000,0.001000,0.001000,0.001000,0.001000
1020.461538,-0.003864,0.001000,0.001000,0.001000,0.001000,0.001000
1020.480769,-0.002690,0.001000,0.001000,0.001000,0.001000,0.001000
1020.500000,-0.001513,0.001000,0.001000,0.001000,0.001000,0.001000
1020.519231,-0.000336,0.001000,0.001000,0.001000,0.001000,0.001000
1020.538462,0.000841,0.001000,0.001000,0.001000,0.001000,0.001000
1020.557692,0.002018,0.001000,0.001000,0.001000,0.001000,0.001000
1020.576923,0.003194,0.001000,0.001000,0.001000,0.001000,0.001000
1020.596154,0.004368,0.001000,0.001000,0.001000,0.001000,0.001000
1020.615385,0.005540,0.001000,0.001000,0.001000,0.001000,0.001000
1020.634615,0.006708,0.001000,0.001000,0.001000,0.001000,0.001000
1020.653846,0.007873,0.001000,0.001000,0.001000,0.001000,0.001000
1020.673077,0.009033,0.001000,0.001000,0.001000,0.001000,0.001000
1020.692308,0.010189,0.001000,0.001000,0.001000,0.001000,0.001000
1020.711538,0.011339,0.001000,0.001000,0.001000,0.001000,0.001000
1020.730769,0.012482,0.001000,0.001000,0.001000,0.001000,0.001000
1020.750000,0.013619,0.001000,0.001000,0.001000,0.001000,0.001000
1020.769231,0.014748,0.001000,0.001000,0.001000,0.001000,0.001000
1020.788462,0.015869,0.001000,0.001000,0.001000,0.001000,0.001000
1020.807692,0.016981,0.001000,0.001000,0.001000,0.001000,0.001000
1020.826923,0.018083,0.001000,0.001000,0.001000,0.001000,0.001000
1020.846154,0.019176,0.001000,0.001000,0.001000,0.001000,0.001000
1020.865385,0.020258,0.001000,0.001000,0.001000,0.001000,0.001000
1020.884615,0.021328,0.001000,0.001000,0.001000,0.001000,0.001000
1020.903846,0.022387,0.001000,0.001000,0.001000,0.001000,0.001000
1020.923077,0.023434,0.001000,0.001000,0.001000,0.001000,0.001000
1020.942308,0.024467,0.001000,0.001000,0.001000,0.001000,0.001000
1020.961538,0.025487,0.001000,0.001000,0.001000,0.001000,0.001000
1020.980769,0.026493,0.001000,0.001000,0.001000,0.001000,0.001000
1021.000000,0.027484,0.001000,0.001000,0.001000,0.001000,0.001000
1021.019231,0.028460,0.001000,0.001000,0.001000,0.001000,0.001000
1021.038462,0.029420,0.001000,0.001000,0.001000,0.001000,0.001000
1021.057692,0.030364,0.001000,0.001000,0.001000,0.001000,0.001000
1021.076923,0.031291,0.001000,0.001000,0.001000,0.001000,0.001000
1021.096154,0.032200,0.001000,0.001000,0.001000,0.001000,0.001000
1021.115385,0.033092,0.001000,0.001000,0.001000,0.001000,0.001000
1021.134615,0.033966,0.001000,0.001000,0.001000,0.001000,0.001000
1021.153846,0.034820,0.001000,0.001000,0.001000,0.001000,0.001000
1021.173077,0.035655,0.001000,0.001000,0.001000,0.001000,0.001000
1021.192308,0.036471,0.001000,0.001000,0.001000,0.001000,0.001000
1021.211538,0.037266,0.001000,0.001000,0.001000,0.001000,0.001000
1021.230769,0.038041,0.001000,0.001000,0.001000,0.001000,0.001000
1021.250000,0.038794,0.001000,0.001000,0.001000,0.001000,0.001000
1021.269231,0.039526,0.001000,0.001000,0.001000,0.001000,0.001000
1021.288462,0.040236,0.001000,0.001000,0.001000,0.001000,0.001000
1021.307692,0.040924,0.001000,0.001000,0.001000,0.001000,0.001000
1021.326923,0.041589,0.001000,0.001000,0.001000,0.001000,0.001000
1021.346154,0.042231,0.001000,0.001000,0.001000,0.001000,0.001000
1021.365385,0.042850,0.001000,0.001000,0.001000,0.001000,0.001000
1021.384615,0.043444,0.001000,0.001000,0.001000,0.001000,0.001000
1021.403846,0.044015,0.001000,0.001000,0.001000,0.001000,0.001000
1021.423077,0.044561,0.001000,0.001000,0.001000,0.001000,0.001000
1021.442308,0.045083,0.001000,0.001000,0.001000,0.001000,0.001000
1021.461538,0.045580,0.001000,0.001000,0.001000,0.001000,0.001000
1021.480769,0.046051,0.001000,0.001000,0.001000,0.001000,0.001000
1021.500000,0.046497,0.001000,0.001000,0.001000,0.001000,0.001000
1021.519231,0.046917,0.001000,0.001000,0.001000,0.001000,0.001000
1021.538462,0.047311,0.001000,0.001000,0.001000,0.001000,0.001000
1021.557692,0.047679,0.001000,0.001000,0.001000,0.001000,0.001000
1021.576923,0.048020,0.001000,0.001000,0.001000,0.001000,0.001000
1021.596154,0.048335,0.001000,0.001000,0.001000,0.001000,0.001000
1021.615385,0.048623,0.001000,0.001000,0.001000,0.001000,0.001000
1021.634615,0.048884,0.001000,0.001000,0.001000,0.001000,0.001000
1021.653846,0.049117,0.001000,0.001000,0.001000,0.001000,0.001000
1021.673077,0.049324,0.001000,0.001000,0.001000,0.001000,0.001000
1021.692308,0.049503,0.001000,0.001000,0.001000,0.001000,0.001000
1021.711538,0.049655,0.001000,0.001000,0.001000,0.001000,0.001000
1021.730769,0.049779,0.001000,0.001000,0.001000,0.001000,0.001000
1021.750000,0.049876,0.001000,0.001000,0.001000,0.001000,0.001000
1021.769231,0.049945,0.001000,0.001000,0.001000,0.001000,0.001000
1021.788462,0.049986,0.001000,0.001000,0.001000,0.001000,0.001000
1021.807692,0.050000,0.001000,0.001000,0.001000,0.001000,0.001000
1021.826923,0.049986,0.001000,0.001000,0.001000,0.001000,0.001000
1021.846154,0.049944,0.001000,0.001000,0.001000,0.001000,0.001000
1021.865385,0.049875,0.001000,0.001000,0.001000,0.001000,0.001000
1021.884615,0.049777,0.001000,0.001000,0.001000,0.001000,0.001000
1021.903846,0.049653,0.001000,0.001000,0.001000,0.001000,0.001000
1021.923077,0.049500,0.001000,0.001000,0.001000,0.001000,0.001000
1021.942308,0.049320,0.001000,0.001000,0.001000,0.001000,0.001000
1021.961538,0.049113,0.001000,0.001000,0.001000,0.001000,0.001000
1021.980769,0.048879,0.001000,0.001000,0.001000,0.001000,0.001000
1022.000000,0.048618,0.001000,0.001000,0.001000,0.001000,0.001000
1022.019231,0.048329,0.001000,0.001000,0.001000,0.001000,0.001000
1022.038462,0.048014,0.001000,0.001000,0.001000,0.001000,0.001000
1022.057692,0.047672,0.001000,0.001000,0.001000,0.001000,0.001000
1022.076923,0.047304,0.001000,0.001000,0.001000,0.001000,0.001000
1022.096154,0.046909,0.001000,0.001000,0.001000,0.001000,0.001000
1022.115385,0.046489,0.001000,0.001000,0.001000,0.001000,0.001000
1022.134615,0.046043,0.001000,0.001000,0.001000,0.001000,0.001000
1022.153846,0.045571,0.001000,0.001000,0.001000,0.001000,0.001000
1022.173077,0.045074,0.001000,0.001000,0.001000,0.001000,0.001000
1022.192308,0.044552,0.001000,0.001000,0.001000,0.001000,0.001000
1022.211538,0.044005,0.001000,0.001000,0.001000,0.001000,0.001000
1022.230769,0.043434,0.001000,0.001000,0.001000,0.001000,0.001000
1022.250000,0.042838,0.001000,0.001000,0.001000,0.001000,0.001000
1022.269231,0.042219,0.001000,0.001000,0.001000,0.001000,0.001000
1022.288462,0.041577,0.001000,0.001000,0.001000,0.001000,0.001000
1022.307692,0.040911,0.001000,0.001000,0.001000,0.001000,0.001000
1022.326923,0.040223,0.001000,0.001000,0.001000,0.001000,0.001000
1022.346154,0.039513,0.001000,0.001000,0.001000,0.001000,0.001000
1022.365385,0.038780,0.001000,0.001000,0.001000,0.001000,0.001000
1022.384615,0.038027,0.001000,0.001000,0.001000,0.001000,0.001000
1022.403846,0.037252,0.001000,0.001000,0.001000,0.001000,0.001000
1022.423077,0.036456,0.001000,0.001000,0.001000,0.001000,0.001000
1022.442308,0.035640,0.001000,0.001000,0.001000,0.001000,0.001000
1022.461538,0.034804,0.001000,0.001000,0.001000,0.001000,0.001000
1022.480769,0.033950,0.001000,0.001000,0.001000,0.001000,0.001000
1022.500000,0.033076,0.001000,0.001000,0.001000,0.001000,0.001000
1022.519231,0.032184,0.001000,0.001000,0.001000,0.001000,0.001000
1022.538462,0.031274,0.001000,0.001000,0.001000,0.001000,0.001000
1022.557692,0.030347,0.001000,0.001000,0.001000,0.001000,0.001000
1022.576923,0.029403,0.001000,0.001000,0.001000,0.001000,0.001000
1022.596154,0.028442,0.001000,0.001000,0.001000,0.001000,0.001000
1022.615385,0.027466,0.001000,0.001000,0.001000,0.001000,0.001000
1022.634615,0.026475,0.001000,0.001000,0.001000,0.001000,0.001000
1022.653846,0.025469,0.001000,0.001000,0.001000,0.001000,0.001000
1022.673077,0.024448,0.001000,0.001000,0.001000,0.001000,0.001000
1022.692308,0.023415,0.001000,0.001000,0.001000,0.001000,0.001000
1022.711538,0.022368,0.001000,0.001000,0.001000,0.001000,0.001000
1022.730769,0.021309,0.001000,0.001000,0.001000,0.001000,0.001000
1022.750000,0.020238,0.001000,0.001000,0.001000,0.001000,0.001000
1022.769231,0.019156,0.001000,0.001000,0.001000,0.001000,0.001000
1022.788462,0.018063,0.001000,0.001000,0.001000,0.001000,0.001000
1022.807692,0.016960,0.001000,0.001000,0.001000,0.001000,0.001000
1022.826923,0.015848,0.001000,0.001000,0.001000,0.001000,0.001000
1022.846154,0.014727,0.001000,0.001000,0.001000,0.001000,0.001000
1022.865385,0.013598,0.001000,0.001000,0.001000,0.001000,0.001000
1022.884615,0.012461,0.001000,0.001000,0.001000,0.001000,0.001000
1022.903846,0.011317,0.001000,0.001000,0.001000,0.001000,0.001000
1022.923077,0.010167,0.001000,0.001000,0.001000,0.001000,0.001000
1022.942308,0.009012,0.001000,0.001000,0.001000,0.001000,0.001000
1022.961538,0.007851,0.001000,0.001000,0.001000,0.001000,0.001000
1022.980769,0.006687,0.001000,0.001000,0.001000,0.001000,0.001000
1023.000000,0.005518,0.001000,0.001000,0.001000,0.001000,0.001000
1023.019231,0.004346,0.001000,0.001000,0.001000,0.001000,0.001000
1023.038462,0.003172,0.001000,0.001000,0.001000,0.001000,0.001000
1023.057692,0.001996,0.001000,0.001000,0.001000,0.001000,0.001000
1023.076923,0.000820,0.001000,0.001000,0.001000,0.001000,0.001000
1023.096154,-0.000358,0.001000,0.001000,0.001000,0.001000,0.001000
1023.115385,-0.001535,0.001000,0.001000,0.001000,0.001000,0.001000
1023.134615,-0.002711,0.001000,0.001000,0.001000,0.001000,0.001000
1023.153846,-0.003886,0.001000,0.001000,0.001000,0.001000,0.001000
1023.173077,-0.005059,0.001000,0.001000,0.001000,0.001000,0.001000
1023.192308,-0.006229,0.001000,0.001000,0.001000,0.001000,0.001000
1023.211538,-0.007395,0.001000,0.001000,0.001000,0.001000,0.001000
1023.230769,-0.008557,0.001000,0.001000,0.001000,0.001000,0.001000
1023.250000,-0.009715,0.001000,0.001000,0.001000,0.001000,0.001000
1023.269231,-0.010867,0.001000,0.001000,0.001000,0.001000,0.001000
1023.288462,-0.012013,0.001000,0.001000,0.001000,0.001000,0.001000
1023.307692,-0.013153,0.001000,0.001000,0.001000,0.001000,0.001000
1023.326923,-0.014285,0.001000,0.001000,0.001000,0.001000,0.001000
1023.346154,-0.015409,0.001000,0.001000,0.001000,0.001000,0.001000
1023.365385,-0.016525,0.001000,0.001000,0.001000,0.001000,0.001000
1023.384615,-0.017632,0.001000,0.001000,0.001000,0.001000,0.001000
1023.403846,-0.018728,0.001000,0.001000,0.001000,0.001000,0.001000
1023.423077,-0.019815,0.001000,0.001000,0.001000,0.001000,0.001000
1023.442308,-0.020890,0.001000,0.001000,0.001000,0.001000,0.001000
1023.461538,-0.021954,0.001000,0.001000,0.001000,0.001000,0.001000
1023.480769,-0.023006,0.001000,0.001000,0.001000,0.001000,0.001000
1023.500000,-0.024045,0.001000,0.001000,0.001000,0.001000,0.001000
1023.519231,-0.025070,0.001000,0.001000,0.001000,0.001000,0.001000
1023.538462,-0.026082,0.001000,0.001000,0.001000,0.001000,0.001000
1023.557692,-0.027079,0.001000,0.001000,0.001000,0.001000,0.001000
1023.576923,-0.028061,0.001000,0.001000,0.001000,0.001000,0.001000
1023.596154,-0.029028,0.001000,0.001000,0.001000,0.001000,0.001000
1023.615385,-0.029978,0.001000,0.001000,0.001000,0.001000,0.001000
1023.634615,-0.030912,0.001000,0.001000,0.001000,0.001000,0.001000
1023.653846,-0.031829,0.001000,0.001000,0.001000,0.001000,0.001000
1023.673077,-0.032728,0.001000,0.001000,0.001000,0.001000,0.001000
1023.692308,-0.033609,0.001000,0.001000,0.001000,0.001000,0.001000
1023.711538,-0.034472,0.001000,0.001000,0.001000,0.001000,0.001000
1023.730769,-0.035315,0.001000,0.001000,0.001000,0.001000,0.001000
1023.750000,-0.036138,0.001000,0.001000,0.001000,0.001000,0.001000
1023.769231,-0.036942,0.001000,0.001000,0.001000,0.001000,0.001000
1023.788462,-0.037725,0.001000,0.001000,0.001000,0.001000,0.001000
1023.807692,-0.038487,0.001000,0.001000,0.001000,0.001000,0.001000
1023.826923,-0.039228,0.001000,0.001000,0.001000,0.001000,0.001000
1023.846154,-0.039947,0.001000,0.001000,0.001000,0.001000,0.001000
1023.865385,-0.040644,0.001000,0.001000,0.001000,0.001000,0.001000
1023.884615,-0.041319,0.001000,0.001000,0.001000,0.001000,0.001000
1023.903846,-0.041970,0.001000,0.001000,0.001000,0.001000,0.001000
1023.923077,-0.042598,0.001000,0.001000,0.001000,0.001000,0.001000
1023.942308,-0.043203,0.001000,0.001000,0.001000,0.001000,0.001000
1023.961538,-0.043784,0.001000,0.001000,0.001000,0.001000,0.001000
1023.980769,-0.044340,0.001000,0.001000,0.001000,0.001000,0.001000
1024.000000,-0.044872,0.001000,0.001000,0.001000,0.001000,0.001000
1024.019231,-0.045379,0.001000,0.001000,0.001000,0.001000,0.001000
1024.038462,-0.045861,0.001000,0.001000,0.001000,0.001000,0.001000
1024.057692,-0.046317,0.001000,0.001000,0.001000,0.001000,0.001000
1024.076923,-0.046748,0.001000,0.001000,0.001000,0.001000,0.001000
1024.096154,-0.047152,0.001000,0.001000,0.001000,0.001000,0.001000
1024.115385,-0.047531,0.001000,0.001000,0.001000,0.001000,0.001000
1024.134615,-0.047883,0.001000,0.001000,0.001000,0.001000,0.001000
1024.153846,-0.048209,0.001000,0.001000,0.001000,0.001000,0.001000
1024.173077,-0.048508,0.001000,0.001000,0.001000,0.001000,0.001000
1024.192308,-0.048780,0.001000,0.001000,0.001000,0.001000,0.001000
1024.211538,-0.049025,0.001000,0.001000,0.001000,0.001000,0.001000
1024.230769,-0.049242,0.001000,0.001000,0.001000,0.001000,0.001000
1024.250000,-0.049433,0.001000,0.001000,0.001000,0.001000,0.001000
1024.269231,-0.049596,0.001000,0.001000,0.001000,0.001000,0.001000
1024.288462,-0.049732,0.001000,0.001000,0.001000,0.001000,0.001000
1024.307692,-0.049840,0.001000,0.001000,0.001000,0.001000,0.001000
1024.326923,-0.049920,0.001000,0.001000,0.001000,0.001000,0.001000
1024.346154,-0.049973,0.001000,0.001000,0.001000,0.001000,0.001000
1024.365385,-0.049998,0.001000,0.001000,0.001000,0.001000,0.001000
1024.384615,-0.049995,0.001000,0.001000,0.001000,0.001000,0.001000
1024.403846,-0.049965,0.001000,0.001000,0.001000,0.001000,0.001000
1024.423077,-0.049906,0.001000,0.001000,0.001000,0.001000,0.001000
1024.442308,-0.049821,0.001000,0.001000,0.001000,0.001000,0.001000
1024.461538,-0.049707,0.001000,0.001000,0.001000,0.001000,0.001000
1024.480769,-0.049566,0.001000,0.001000,0.001000,0.001000,0.001000
1024.500000,-0.049398,0.001000,0.001000,0.001000,0.001000,0.001000
1024.519231,-0.049202,0.001000,0.001000,0.001000,0.001000,0.001000
1024.538462,-0.048979,0.001000,0.001000,0.001000,0.001000,0.001000
1024.557692,-0.048728,0.001000,0.001000,0.001000,0.001000,0.001000
1024.576923,-0.048451,0.001000,0.001000,0.001000,0.001000,0.001000
1024.596154,-0.048147,0.001000,0.001000,0.001000,0.001000,0.001000
1024.615385,-0.047816,0.001000,0.001000,0.001000,0.001000,0.001000
1024.634615,-0.047458,0.001000,0.001000,0.001000,0.001000,0.001000
1024.653846,-0.047075,0.001000,0.001000,0.001000,0.001000,0.001000
1024.673077,-0.046665,0.001000,0.001000,0.001000,0.001000,0.001000
1024.692308,-0.046229,0.001000,0.001000,0.001000,0.001000,0.001000
1024.711538,-0.045768,0.001000,0.001000,0.001000,0.001000,0.001000
1024.730769,-0.045281,0.001000,0.001000,0.001000,0.001000,0.001000
1024.750000,-0.044769,0.001000,0.001000,0.001000,0.001000,0.001000
1024.769231,-0.044232,0.001000,0.001000,0.001000,0.001000,0.001000
1024.788462,-0.043671,0.001000,0.001000,0.001000,0.001000,0.001000
1024.807692,-0.043086,0.001000,0.001000,0.001000,0.001000,0.001000
1024.826923,-0.042476,0.001000,0.001000,0.001000,0.001000,0.001000
1024.846154,-0.041844,0.001000,0.001000,0.001000,0.001000,0.001000
1024.865385,-0.041187,0.001000,0.001000,0.001000,0.001000,0.001000
1024.884615,-0.040509,0.001000,0.001000,0.001000,0.001000,0.001000
1024.903846,-0.039807,0.001000,0.001000,0.001000,0.001000,0.001000
1024.923077,-0.039084,0.001000,0.001000,0.001000,0.001000,0.001000
1024.942308,-0.038339,0.001000,0.001000,0.001000,0.001000,0.001000
1024.961538,-0.037572,0.001000,0.001000,0.001000,0.001000,0.001000
1024.980769,-0.036785,0.001000,0.001000,0.001000,0.001000,0.001000
1025.000000,-0.035978,0.001000,0.001000,0.001000,0.001000,0.001000
1025.019231,-0.035150,0.001000,0.001000,0.001000,0.001000,0.001000
1025.038462,-0.034303,0.001000,0.001000,0.001000,0.001000,0.001000
1025.057692,-0.033437,0.001000,0.001000,0.001000,0.001000,0.001000
1025.076923,-0.032552,0.001000,0.001000,0.001000,0.001000,0.001000
1025.096154,-0.031650,0.001000,0.001000,0.001000,0.001000,0.001000
1025.115385,-0.030729,0.001000,0.001000,0.001000,0.001000,0.001000
1025.134615,-0.029792,0.001000,0.001000,0.001000,0.001000,0.001000
1025.153846,-0.028838,0.001000,0.001000,0.001000,0.001000,0.001000
1025.173077,-0.027869,0.001000,0.001000,0.001000,0.001000,0.001000
1025.192308,-0.026884,0.001000,0.001000,0.001000,0.001000,0.001000
1025.211538,-0.025883,0.001000,0.001000,0.001000,0.001000,0.001000
1025.230769,-0.024869,0.001000,0.001000,0.001000,0.001000,0.001000
1025.250000,-0.023841,0.001000,0.001000,0.001000,0.001000,0.001000
1025.269231,-0.022799,0.001000,0.001000,0.001000,0.001000,0.001000
1025.288462,-0.021745,0.001000,0.001000,0.001000,0.001000,0.001000
1025.307692,-0.020679,0.001000,0.001000,0.001000,0.001000,0.001000
1025.326923,-0.019601,0.001000,0.001000,0.001000,0.001000,0.001000
1025.346154,-0.018513,0.001000,0.001000,0.001000,0.001000,0.001000
1025.365385,-0.017414,0.001000,0.001000,0.001000,0.001000,0.001000
1025.384615,-0.016306,0.001000,0.001000,0.001000,0.001000,0.001000
1025.403846,-0.015188,0.001000,0.001000,0.001000,0.001000,0.001000
1025.423077,-0.014062,0.001000,0.001000,0.001000,0.001000,0.001000
1025.442308,-0.012929,0.001000,0.001000,0.001000,0.001000,0.001000
1025.461538,-0.011788,0.001000,0.001000,0.001000,0.001000,0.001000
1025.480769,-0.010640,0.001000,0.001000,0.001000,0.001000,0.001000
1025.500000,-0.009487,0.001000,0.001000,0.001000,0.001000,0.001000
1025.519231,-0.008329,0.001000,0.001000,0.001000,0.001000,0.001000
1025.538462,-0.007165,0.001000,0.001000,0.001000,0.001000,0.001000
1025.557692,-0.005998,0.001000,0.001000,0.001000,0.001000,0.001000
1025.576923,-0.004828,0.001000,0.001000,0.001000,0.001000,0.001000
1025.596154,-0.003655,0.001000,0.001000,0.001000,0.001000,0.001000
1025.615385,-0.002479,0.001000,0.001000,0.001000,0.001000,0.001000
1025.634615,-0.001303,0.001000,0.001000,0.001000,0.001000,0.001000
1025.653846,-0.000126,0.001000,0.001000,0.001000,0.001000,0.001000
1025.673077,0.001052,0.001000,0.001000,0.001000,0.001000,0.001000
1025.692308,0.002228,0.001000,0.001000,0.001000,0.001000,0.001000
1025.711538,0.003404,0.001000,0.001000,0.001000,0.001000,0.001000
1025.730769,0.004578,0.001000,0.001000,0.001000,0.001000,0.001000
1025.750000,0.005749,0.001000,0.001000,0.001000,0.001000,0.001000
1025.769231,0.006917,0.001000,0.001000,0.001000,0.001000,0.001000
1025.788462,0.008081,0.001000,0.001000,0.001000,0.001000,0.001000
1025.807692,0.009240,0.001000,0.001000,0.001000,0.001000,0.001000
1025.826923,0.010395,0.001000,0.001000,0.001000,0.001000,0.001000
1025.846154,0.011543,0.001000,0.001000,0.001000,0.001000,0.001000
1025.865385,0.012686,0.001000,0.001000,0.001000,0.001000,0.001000
1025.884615,0.013821,0.001000,0.001000,0.001000,0.001000,0.001000
1025.903846,0.014949,0.001000,0.001000,0.001000,0.001000,0.001000
1025.923077,0.016068,0.001000,0.001000,0.001000,0.001000,0.001000
1025.942308,0.017178,0.001000,0.001000,0.001000,0.001000,0.001000
1025.961538,0.018279,0.001000,0.001000,0.001000,0.001000,0.001000
1025.980769,0.019370,0.001000,0.001000,0.001000,0.001000,0.001000
1026.000000,0.020450,0.001000,0.001000,0.001000,0.001000,0.001000
1026.019231,0.021519,0.001000,0.001000,0.001000,0.001000,0.001000
1026.038462,0.022575,0.001000,0.001000,0.001000,0.001000,0.001000
1026.057692,0.023620,0.001000,0.001000,0.001000,0.001000,0.001000
1026.076923,0.024651,0.001000,0.001000,0.001000,0.001000,0.001000
1026.096154,0.025668,0.001000,0.001000,0.001000,0.001000,0.001000
1026.115385,0.026671,0.001000,0.001000,0.001000,0.001000,0.001000
1026.134615,0.027660,0.001000,0.001000,0.001000,0.001000,0.001000
1026.153846,0.028633,0.001000,0.001000,0.001000,0.001000,0.001000
1026.173077,0.029590,0.001000,0.001000,0.001000,0.001000,0.001000
1026.192308,0.030531,0.001000,0.001000,0.001000,0.001000,0.001000
1026.211538,0.031455,0.001000,0.001000,0.001000,0.001000,0.001000
1026.230769,0.032361,0.001000,0.001000,0.001000,0.001000,0.001000
1026.250000,0.033250,0.001000,0.001000,0.001000,0.001000,0.001000
1026.269231,0.034120,0.001000,0.001000,0.001000,0.001000,0.001000
1026.288462,0.034971,0.001000,0.001000,0.001000,0.001000,0.001000
1026.307692,0.035803,0.001000,0.001000,0.001000,0.001000,0.001000
1026.326923,0.036614,0.001000,0.001000,0.001000,0.001000,0.001000
1026.346154,0.037406,0.001000,0.001000,0.001000,0.001000,0.001000
1026.365385,0.038177,0.001000,0.001000,0.001000,0.001000,0.001000
1026.384615,0.038927,0.001000,0.001000,0.001000,0.001000,0.001000
1026.403846,0.039655,0.001000,0.001000,0.001000,0.001000,0.001000
1026.423077,0.040361,0.001000,0.001000,0.001000,0.001000,0.001000
1026.442308,0.041044,0.001000,0.001000,0.001000,0.001000,0.001000
1026.461538,0.041705,0.001000,0.001000,0.001000,0.001000,0.001000
1026.480769,0.042343,0.001000,0.001000,0.001000,0.001000,0.001000
1026.500000,0.042958,0.001000,0.001000,0.001000,0.001000,0.001000
1026.519231,0.043548,0.001000,0.001000,0.001000,0.001000,0.001000
1026.538462,0.044115,0.001000,0.001000,0.001000,0.001000,0.001000
1026.557692,0.044656,0.001000,0.001000,0.001000,0.001000,0.001000
1026.576923,0.045174,0.001000,0.001000,0.001000,0.001000,0.001000
1026.596154,0.045666,0.001000,0.001000,0.001000,0.001000,0.001000
1026.615385,0.046133,0.001000,0.001000,0.001000,0.001000,0.001000
1026.634615,0.046574,0.001000,0.001000,0.001000,0.001000,0.001000
1026.653846,0.046989,0.001000,0.001000,0.001000,0.001000,0.001000
1026.673077,0.047379,0.001000,0.001000,0.001000,0.001000,0.001000
1026.692308,0.047742,0.001000,0.001000,0.001000,0.001000,0.001000
1026.711538,0.048078,0.001000,0.001000,0.001000,0.001000,0.001000
1026.730769,0.048388,0.001000,0.001000,0.001000,0.001000,0.001000
1026.750000,0.048671,0.001000,0.001000,0.001000,0.001000,0.001000
1026.769231,0.048927,0.001000,0.001000,0.001000,0.001000,0.001000
1026.788462,0.049156,0.001000,0.001000,0.001000,0.001000,0.001000
1026.807692,0.049358,0.001000,0.001000,0.001000,0.001000,0.001000
1026.826923,0.049532,0.001000,0.001000,0.001000,0.001000,0.001000
1026.846154,0.049679,0.001000,0.001000,0.001000,0.001000,0.001000
1026.865385,0.049799,0.001000,0.001000,0.001000,0.001000,0.001000
1026.884615,0.049890,0.001000,0.001000,0.001000,0.001000,0.001000
1026.903846,0.049954,0.001000,0.001000,0.001000,0.001000,0.001000
1026.923077,0.049991,0.001000,0.001000,0.001000,0.001000,0.001000
1026.942308,0.050000,0.001000,0.001000,0.001000,0.001000,0.001000
1026.961538,0.049980,0.001000,0.001000,0.001000,0.001000,0.001000
1026.980769,0.049934,0.001000,0.001000,0.001000,0.001000,0.001000
1027.000000,0.049859,0.001000,0.001000,0.001000,0.001000,0.001000
1027.019231,0.049757,0.001000,0.001000,0.001000,0.001000,0.001000
1027.038462,0.049627,0.001000,0.001000,0.001000,0.001000,0.001000
1027.057692,0.049470,0.001000,0.001000,0.001000,0.001000,0.001000
1027.076923,0.049285,0.001000,0.001000,0.001000,0.001000,0.001000
1027.096154,0.049073,0.001000,0.001000,0.001000,0.001000,0.001000
1027.115385,0.048834,0.001000,0.001000,0.001000,0.001000,0.001000
1027.134615,0.048568,0.001000,0.001000,0.001000,0.001000,0.001000
1027.153846,0.048275,0.001000,0.001000,0.001000,0.001000,0.001000
1027.173077,0.047955,0.001000,0.001000,0.001000,0.001000,0.001000
1027.192308,0.047608,0.001000,0.001000,0.001000,0.001000,0.001000
1027.211538,0.047235,0.001000,0.001000,0.001000,0.001000,0.001000
1027.230769,0.046836,0.001000,0.001000,0.001000,0.001000,0.001000
1027.250000,0.046411,0.001000,0.001000,0.001000,0.001000,0.001000
1027.269231,0.045960,0.001000,0.001000,0.001000,0.001000,0.001000
1027.288462,0.045484,0.001000,0.001000,0.001000,0.001000,0.001000
1027.307692,0.044982,0.001000,0.001000,0.001000,0.001000,0.001000
1027.326923,0.044456,0.001000,0.001000,0.001000,0.001000,0.001000
1027.346154,0.043905,0.001000,0.001000,0.001000,0.001000,0.001000
1027.365385,0.043329,0.001000,0.001000,0.001000,0.001000,0.001000
1027.384615,0.042729,0.001000,0.001000,0.001000,0.001000,0.001000
1027.403846,0.042106,0.001000,0.001000,0.001000,0.001000,0.001000
1027.423077,0.041460,0.001000,0.001000,0.001000,0.001000,0.001000
1027.442308,0.040790,0.001000,0.001000,0.001000,0.001000,0.001000
1027.461538,0.040098,0.001000,0.001000,0.001000,0.001000,0.001000
1027.480769,0.039384,0.001000,0.001000,0.001000,0.001000,0.001000
1027.500000,0.038647,0.001000,0.001000,0.001000,0.001000,0.001000
1027.519231,0.037890,0.001000,0.001000,0.001000,0.001000,0.001000
1027.538462,0.037111,0.001000,0.001000,0.001000,0.001000,0.001000
1027.557692,0.036312,0.001000,0.001000,0.001000,0.001000,0.001000
1027.576923,0.035492,0.001000,0.001000,0.001000,0.001000,0.001000
1027.596154,0.034653,0.001000,0.001000,0.001000,0.001000,0.001000
1027.615385,0.033795,0.001000,0.001000,0.001000,0.001000,0.001000
1027.634615,0.032918,0.001000,0.001000,0.001000,0.001000,0.001000
1027.653846,0.032023,0.001000,0.001000,0.001000,0.001000,0.001000
1027.673077,0.031109,0.001000,0.001000,0.001000,0.001000,0.001000
1027.692308,0.030179,0.001000,0.001000,0.001000,0.001000,0.001000
1027.711538,0.029232,0.001000,0.001000,0.001000,0.001000,0.001000
1027.730769,0.028269,0.001000,0.001000,0.001000,0.001000,0.001000
1027.750000,0.027290,0.001000,0.001000,0.001000,0.001000,0.001000
1027.769231,0.026296,0.001000,0.001000,0.001000,0.001000,0.001000
1027.788462,0.025287,0.001000,0.001000,0.001000,0.001000,0.001000
1027.807692,0.024265,0.001000,0.001000,0.001000,0.001000,0.001000
1027.826923,0.023229,0.001000,0.001000,0.001000,0.001000,0.001000
1027.846154,0.022180,0.001000,0.001000,0.001000,0.001000,0.001000
1027.865385,0.021118,0.001000,0.001000,0.001000,0.001000,0.001000
1027.884615,0.020045,0.001000,0.001000,0.001000,0.001000,0.001000
1027.903846,0.018961,0.001000,0.001000,0.001000,0.001000,0.001000
1027.923077,0.017867,0.001000,0.001000,0.001000,0.001000,0.001000
1027.942308,0.016762,0.001000,0.001000,0.001000,0.001000,0.001000
1027.961538,0.015648,0.001000,0.001000,0.001000,0.001000,0.001000
1027.980769,0.014526,0.001000,0.001000,0.001000,0.001000,0.001000
1028.000000,0.013395,0.001000,0.001000,0.001000,0.001000,0.001000
1028.019231,0.012257,0.001000,0.001000,0.001000,0.001000,0.001000
1028.038462,0.011112,0.001000,0.001000,0.001000,0.001000,0.001000
1028.057692,0.009961,0.001000,0.001000,0.001000,0.001000,0.001000
1028.076923,0.008805,0.001000,0.001000,0.001000,0.001000,0.001000
1028.096154,0.007644,0.001000,0.001000,0.001000,0.001000,0.001000
1028.115385,0.006478,0.001000,0.001000,0.001000,0.001000,0.001000
1028.134615,0.005309,0.001000,0.001000,0.001000,0.001000,0.001000
1028.153846,0.004137,0.001000,0.001000,0.001000,0.001000,0.001000
1028.173077,0.002962,0.001000,0.001000,0.001000,0.001000,0.001000
1028.192308,0.001786,0.001000,0.001000,0.001000,0.001000,0.001000
1028.211538,0.000609,0.001000,0.001000,0.001000,0.001000,0.001000
1028.230769,-0.000568,0.001000,0.001000,0.001000,0.001000,0.001000
1028.250000,-0.001745,0.001000,0.001000,0.001000,0.001000,0.001000
1028.269231,-0.002921,0.001000,0.001000,0.001000,0.001000,0.001000
1028.288462,-0.004096,0.001000,0.001000,0.001000,0.001000,0.001000
1028.307692,-0.005268,0.001000,0.001000,0.001000,0.001000,0.001000
1028.326923,-0.006437,0.001000,0.001000,0.001000,0.001000,0.001000
1028.346154,-0.007603,0.001000,0.001000,0.001000,0.001000,0.001000
1028.365385,-0.008765,0.001000,0.001000,0.001000,0.001000,0.001000
1028.384615,-0.009921,0.001000,0.001000,0.001000,0.001000,0.001000
1028.403846,-0.011072,0.001000,0.001000,0.001000,0.001000,0.001000
1028.423077,-0.012217,0.001000,0.001000,0.001000,0.001000,0.001000
1028.442308,-0.013356,0.001000,0.001000,0.001000,0.001000,0.001000
1028.461538,-0.014486,0.001000,0.001000,0.001000,0.001000,0.001000
1028.480769,-0.015609,0.001000,0.001000,0.001000,0.001000,0.001000
1028.500000,-0.016723,0.001000,0.001000,0.001000,0.001000,0.001000
1028.519231,-0.017828,0.001000,0.001000,0.001000,0.001000,0.001000
1028.538462,-0.018923,0.001000,0.001000,0.001000,0.001000,0.001000
1028.557692,-0.020008,0.001000,0.001000,0.001000,0.001000,0.001000
1028.576923,-0.021081,0.001000,0.001000,0.001000,0.001000,0.001000
1028.596154,-0.022143,0.001000,0.001000,0.001000,0.001000,0.001000
1028.615385,-0.023192,0.001000,0.001000,0.001000,0.001000,0.001000
1028.634615,-0.024229,0.001000,0.001000,0.001000,0.001000,0.001000
1028.653846,-0.025252,0.001000,0.001000,0.001000,0.001000,0.001000
1028.673077,-0.026261,0.001000,0.001000,0.001000,0.001000,0.001000
1028.692308,-0.027256,0.001000,0.001000,0.001000,0.001000,0.001000
1028.711538,-0.028235,0.001000,0.001000,0.001000,0.001000,0.001000
1028.730769,-0.029199,0.001000,0.001000,0.001000,0.001000,0.001000
1028.750000,-0.030146,0.001000,0.001000,0.001000,0.001000,0.001000
1028.769231,-0.031077,0.001000,0.001000,0.001000,0.001000,0.001000
1028.788462,-0.031991,0.001000,0.001000,0.001000,0.001000,0.001000
1028.807692,-0.032887,0.001000,0.001000,0.001000,0.001000,0.001000
1028.826923,-0.033765,0.001000,0.001000,0.001000,0.001000,0.001000
1028.846154,-0.034624,0.001000,0.001000,0.001000,0.001000,0.001000
1028.865385,-0.035463,0.001000,0.001000,0.001000,0.001000,0.001000
1028.884615,-0.036283,0.001000,0.001000,0.001000,0.001000,0.001000
1028.903846,-0.037083,0.001000,0.001000,0.001000,0.001000,0.001000
1028.923077,-0.037863,0.001000,0.001000,0.001000,0.001000,0.001000
1028.942308,-0.038621,0.001000,0.001000,0.001000,0.001000,0.001000
1028.961538,-0.039358,0.001000,0.001000,0.001000,0.001000,0.001000
1028.980769,-0.040073,0.001000,0.001000,0.001000,0.001000,0.001000
1029.000000,-0.040766,0.001000,0.001000,0.001000,0.001000,0.001000
1029.019231,-0.041437,0.001000,0.001000,0.001000,0.001000,0.001000
1029.038462,-0.042084,0.001000,0.001000,0.001000,0.001000,0.001000
1029.057692,-0.042708,0.001000,0.001000,0.001000,0.001000,0.001000
1029.076923,-0.043309,0.001000,0.001000,0.001000,0.001000,0.001000
1029.096154,-0.043885,0.001000,0.001000,0.001000,0.001000,0.001000
1029.115385,-0.044437,0.001000,0.001000,0.001000,0.001000,0.001000
1029.134615,-0.044964,0.001000,0.001000,0.001000,0.001000,0.001000
1029.153846,-0.045467,0.001000,0.001000,0.001000,0.001000,0.001000
1029.173077,-0.045944,0.001000,0.001000,0.001000,0.001000,0.001000
1029.192308,-0.046396,0.001000,0.001000,0.001000,0.001000,0.001000
1029.211538,-0.046822,0.001000,0.001000,0.001000,0.001000,0.001000
1029.230769,-0.047222,0.001000,0.001000,0.001000,0.001000,0.001000
1029.250000,-0.047596,0.001000,0.001000,0.001000,0.001000,0.001000
1029.269231,-0.047943,0.001000,0.001000,0.001000,0.001000,0.001000
1029.288462,-0.048264,0.001000,0.001000,0.001000,0.001000,0.001000
1029.307692,-0.048558,0.001000,0.001000,0.001000,0.001000,0.001000
1029.326923,-0.048825,0.001000,0.001000,0.001000,0.001000,0.001000
1029.346154,-0.049066,0.001000,0.001000,0.001000,0.001000,0.001000
1029.365385,-0.049279,0.001000,0.001000,0.001000,0.001000,0.001000
1029.384615,-0.049464,0.001000,0.001000,0.001000,0.001000,0.001000
1029.403846,-0.049622,0.001000,0.001000,0.001000,0.001000,0.001000
1029.423077,-0.049753,0.001000,0.001000,0.001000,0.001000,0.001000
1029.442308,-0.049856,0.001000,0.001000,0.001000,0.001000,0.001000
1029.461538,-0.049932,0.001000,0.001000,0.001000,0.001000,0.001000
1029.480769,-0.049979,0.001000,0.001000,0.001000,0.001000,0.001000
1029.500000,-0.049999,0.001000,0.001000,0.001000,0.001000,0.001000
1029.519231,-0.049992,0.001000,0.001000,0.001000,0.001000,0.001000
1029.538462,-0.049956,0.001000,0.001000,0.001000,0.001000,0.001000
1029.557692,-0.049893,0.001000,0.001000,0.001000,0.001000,0.001000
1029.576923,-0.049802,0.001000,0.001000,0.001000,0.001000,0.001000
1029.596154,-0.049684,0.001000,0.001000,0.001000,0.001000,0.001000
1029.615385,-0.049538,0.001000,0.001000,0.001000,0.001000,0.001000
1029.634615,-0.049365,0.001000,0.001000,0.001000,0.001000,0.001000
1029.653846,-0.049164,0.001000,0.001000,0.001000,0.001000,0.001000
1029.673077,-0.048936,0.001000,0.001000,0.001000,0.001000,0.001000
1029.692308,-0.048681,0.001000,0.001000,0.001000,0.001000,0.001000
1029.711538,-0.048398,0.001000,0.001000,0.001000,0.001000,0.001000
1029.730769,-0.048089,0.001000,0.001000,0.001000,0.001000,0.001000
1029.750000,-0.047754,0.001000,0.001000,0.001000,0.001000,0.001000
1029.769231,-0.047392,0.001000,0.001000,0.001000,0.001000,0.001000
1029.788462,-0.047003,0.001000,0.001000,0.001000,0.001000,0.001000
1029.807692,-0.046589,0.001000,0.001000,0.001000,0.001000,0.001000
1029.826923,-0.046148,0.001000,0.001000,0.001000,0.001000,0.001000
1029.846154,-0.045682,0.001000,0.001000,0.001000,0.001000,0.001000
1029.865385,-0.045191,0.001000,0.001000,0.001000,0.001000,0.001000
1029.884615,-0.044675,0.001000,0.001000,0.001000,0.001000,0.001000
1029.903846,-0.044134,0.001000,0.001000,0.001000,0.001000,0.001000
1029.923077,-0.043568,0.001000,0.001000,0.001000,0.001000,0.001000
1029.942308,-0.042979,0.001000,0.001000,0.001000,0.001000,0.001000
1029.961538,-0.042365,0.001000,0.001000,0.001000,0.001000,0.001000
1029.980769,-0.041728,0.001000,0.001000,0.001000,0.001000,0.001000
1030.000000,0.000000,0.001000,0.001000,0.001000,0.001000,0.001000
1030.019231,0.001211,0.001000,0.001000,0.001000,0.001000,0.001000
1030.038462,0.002421,0.001000,0.001000,0.001000,0.001000,0.001000
1030.057692,0.003630,0.001000,0.001000,0.001000,0.001000,0.001000
1030.076923,0.004837,0.001000,0.001000,0.001000,0.001000,0.001000
1030.096154,0.006041,0.001000,0.001000,0.001000,0.001000,0.001000
1030.115385,0.007242,0.001000,0.001000,0.001000,0.001000,0.001000
1030.134615,0.008438,0.001000,0.001000,0.001000,0.001000,0.001000
1030.153846,0.009629,0.001000,0.001000,0.001000,0.001000,0.001000
1030.173077,0.010815,0.001000,0.001000,0.001000,0.001000,0.001000
1030.192308,0.011994,0.001000,0.001000,0.001000,0.001000,0.001000
1030.211538,0.013166,0.001000,0.001000,0.001000,0.001000,0.001000
1030.230769,0.014331,0.001000,0.001000,0.001000,0.001000,0.001000
1030.250000,0.015487,0.001000,0.001000,0.001000,0.001000,0.001000
1030.269231,0.016634,0.001000,0.001000,0.001000,0.001000,0.001000
1030.288462,0.017771,0.001000,0.001000,0.001000,0.001000,0.001000
1030.307692,0.018898,0.001000,0.001000,0.001000,0.001000,0.001000
1030.326923,0.020013,0.001000,0.001000,0.001000,0.001000,0.001000
1030.346154,0.021117,0.001000,0.001000,0.001000,0.001000,0.001000
1030.365385,0.022209,0.001000,0.001000,0.001000,0.001000,0.001000
1030.384615,0.023288,0.001000,0.001000,0.001000,0.001000,0.001000
1030.403846,0.024352,0.001000,0.001000,0.001000,0.001000,0.001000
1030.423077,0.025403,0.001000,0.001000,0.001000,0.001000,0.001000
1030.442308,0.026439,0.001000,0.001000,0.001000,0.001000,0.001000
1030.461538,0.027459,0.001000,0.001000,0.001000,0.001000,0.001000
1030.480769,0.028463,0.001000,0.001000,0.001000,0.001000,0.001000
1030.500000,0.029450,0.001000,0.001000,0.001000,0.001000,0.001000
1030.519231,0.030420,0.001000,0.001000,0.001000,0.001000,0.001000
1030.538462,0.031373,0.001000,0.001000,0.001000,0.001000,0.001000
1030.557692,0.032306,0.001000,0.001000,0.001000,0.001000,0.001000
1030.576923,0.033221,0.001000,0.001000,0.001000,0.001000,0.001000
1030.596154,0.034117,0.001000,0.001000,0.001000,0.001000,0.001000
1030.615385,0.034992,0.001000,0.001000,0.001000,0.001000,0.001000
1030.634615,0.035847,0.001000,0.001000,0.001000,0.001000,0.001000
1030.653846,0.036681,0.001000,0.001000,0.001000,0.001000,0.001000
1030.673077,0.037493,0.001000,0.001000,0.001000,0.001000,0.001000
1030.692308,0.038283,0.001000,0.001000,0.001000,0.001000,0.001000
1030.711538,0.039051,0.001000,0.001000,0.001000,0.001000,0.001000
1030.730769,0.039796,0.001000,0.001000,0.001000,0.001000,0.001000
1030.750000,0.040517,0.001000,0.001000,0.001000,0.001000,0.001000
1030.769231,0.041215,0.001000,0.001000,0.001000,0.001000,0.001000
1030.788462,0.041889,0.001000,0.001000,0.001000,0.001000,0.001000
1030.807692,0.042538,0.001000,0.001000,0.001000,0.001000,0.001000
1030.826923,0.043162,0.001000,0.001000,0.001000,0.001000,0.001000
1030.846154,0.043760,0.001000,0.001000,0.001000,0.001000,0.001000
1030.865385,0.044333,0.001000,0.001000,0.001000,0.001000,0.001000
1030.884615,0.044880,0.001000,0.001000,0.001000,0.001000,0.001000
1030.903846,0.045401,0.001000,0.001000,0.001000,0.001000,0.001000
1030.923077,0.045895,0.001000,0.001000,0.001000,0.001000,0.001000
1030.942308,0.046362,0.001000,0.001000,0.001000,0.001000,0.001000
1030.961538,0.046802,0.001000,0.001000,0.001000,0.001000,0.001000
1030.980769,0.047215,0.001000,0.001000,0.001000,0.001000,0.001000
1031.000000,0.047599,0.001000,0.001000,0.001000,0.001000,0.001000
1031.019231,0.047956,0.001000,0.001000,0.001000,0.001000,0.001000
1031.038462,0.048285,0.001000,0.001000,0.001000,0.001000,0.001000
1031.057692,0.048585,0.001000,0.001000,0.001000,0.001000,0.001000
1031.076923,0.048857,0.001000,0.001000,0.001000,0.001000,0.001000
1031.096154,0.049100,0.001000,0.001000,0.001000,0.001000,0.001000
1031.115385,0.049314,0.001000,0.001000,0.001000,0.001000,0.001000
1031.134615,0.049500,0.001000,0.001000,0.001000,0.001000,0.001000
1031.153846,0.049656,0.001000,0.001000,0.001000,0.001000,0.001000
1031.173077,0.049783,0.001000,0.001000,0.001000,0.001000,0.001000
1031.192308,0.049881,0.001000,0.001000,0.001000,0.001000,0.001000
1031.211538,0.049950,0.001000,0.001000,0.001000,0.001000,0.001000
1031.230769,0.049990,0.001000,0.001000,0.001000,0.001000,0.001000
1031.250000,0.050000,0.001000,0.001000,0.001000,0.001000,0.001000
1031.269231,0.049980,0.001000,0.001000,0.001000,0.001000,0.001000
1031.288462,0.049932,0.001000,0.001000,0.001000,0.001000,0.001000
1031.307692,0.049854,0.001000,0.001000,0.001000,0.001000,0.001000
1031.326923,0.049747,0.001000,0.001000,0.001000,0.001000,0.001000
1031.346154,0.049611,0.001000,0.001000,0.001000,0.001000,0.001000
1031.365385,0.049445,0.001000,0.001000,0.001000,0.001000,0.001000
1031.384615,0.049251,0.001000,0.001000,0.001000,0.001000,0.001000
1031.403846,0.049027,0.001000,0.001000,0.001000,0.001000,0.001000
1031.423077,0.048775,0.001000,0.001000,0.001000,0.001000,0.001000
1031.442308,0.048495,0.001000,0.001000,0.001000,0.001000,0.001000
1031.461538,0.048185,0.001000,0.001000,0.001000,0.001000,0.001000
1031.480769,0.047848,0.001000,0.001000,0.001000,0.001000,0.001000
1031.500000,0.047482,0.001000,0.001000,0.001000,0.001000,0.001000
1031.519231,0.047089,0.001000,0.001000,0.001000,0.001000,0.001000
1031.538462,0.046668,0.001000,0.001000,0.001000,0.001000,0.001000
1031.557692,0.046220,0.001000,0.001000,0.001000,0.001000,0.001000
1031.576923,0.045744,0.001000,0.001000,0.001000,0.001000,0.001000
1031.596154,0.045242,0.001000,0.001000,0.001000,0.001000,0.001000
1031.615385,0.044713,0.001000,0.001000,0.001000,0.001000,0.001000
1031.634615,0.044158,0.001000,0.001000,0.001000,0.001000,0.001000
1031.653846,0.043577,0.001000,0.001000,0.001000,0.001000,0.001000
1031.673077,0.042970,0.001000,0.001000,0.001000,0.001000,0.001000
1031.692308,0.042338,0.001000,0.001000,0.001000,0.001000,0.001000
1031.711538,0.041681,0.001000,0.001000,0.001000,0.001000,0.001000
1031.730769,0.041000,0.001000,0.001000,0.001000,0.001000,0.001000
1031.750000,0.040295,0.001000,0.001000,0.001000,0.001000,0.001000
1031.769231,0.039566,0.001000,0.001000,0.001000,0.001000,0.001000
1031.788462,0.038814,0.001000,0.001000,0.001000,0.001000,0.001000
1031.807692,0.038039,0.001000,0.001000,0.001000,0.001000,0.001000
1031.826923,0.037242,0.001000,0.001000,0.001000,0.001000,0.001000
1031.846154,0.036423,0.001000,0.001000,0.001000,0.001000,0.001000
1031.865385,0.035583,0.001000,0.001000,0.001000,0.001000,0.001000
1031.884615,0.034721,0.001000,0.001000,0.001000,0.001000,0.001000
1031.903846,0.033840,0.001000,0.001000,0.001000,0.001000,0.001000
1031.923077,0.032938,0.001000,0.001000,0.001000,0.001000,0.001000
1031.942308,0.032017,0.001000,0.001000,0.001000,0.001000,0.001000
1031.961538,0.031078,0.001000,0.001000,0.001000,0.001000,0.001000
1031.980769,0.030120,0.001000,0.001000,0.001000,0.001000,0.001000
1032.000000,0.029145,0.001000,0.001000,0.001000,0.001000,0.001000
1032.019231,0.028152,0.001000,0.001000,0.001000,0.001000,0.001000
1032.038462,0.027143,0.001000,0.001000,0.001000,0.001000,0.001000
1032.057692,0.026118,0.001000,0.001000,0.001000,0.001000,0.001000
1032.076923,0.025077,0.001000,0.001000,0.001000,0.001000,0.001000
1032.096154,0.024022,0.001000,0.001000,0.001000,0.001000,0.001000
1032.115385,0.022953,0.001000,0.001000,0.001000,0.001000,0.001000
1032.134615,0.021870,0.001000,0.001000,0.001000,0.001000,0.001000
1032.153846,0.020775,0.001000,0.001000,0.001000,0.001000,0.001000
1032.173077,0.019667,0.001000,0.001000,0.001000,0.001000,0.001000
1032.192308,0.018548,0.001000,0.001000,0.001000,0.001000,0.001000
1032.211538,0.017418,0.001000,0.001000,0.001000,0.001000,0.001000
1032.230769,0.016277,0.001000,0.001000,0.001000,0.001000,0.001000
1032.250000,0.015128,0.001000,0.001000,0.001000,0.001000,0.001000
1032.269231,0.013969,0.001000,0.001000,0.001000,0.001000,0.001000
1032.288462,0.012802,0.001000,0.001000,0.001000,0.001000,0.001000
1032.307692,0.011627,0.001000,0.001000,0.001000,0.001000,0.001000
1032.326923,0.010446,0.001000,0.001000,0.001000,0.001000,0.001000
1032.346154,0.009259,0.001000,0.001000,0.001000,0.001000,0.001000
1032.365385,0.008066,0.001000,0.001000,0.001000,0.001000,0.001000
1032.384615,0.006868,0.001000,0.001000,0.001000,0.001000,0.001000
1032.403846,0.005667,0.001000,0.001000,0.001000,0.001000,0.001000
1032.423077,0.004462,0.001000,0.001000,0.001000,0.001000,0.001000
1032.442308,0.003254,0.001000,0.001000,0.001000,0.001000,0.001000
1032.461538,0.002045,0.001000,0.001000,0.001000,0.001000,0.001000
1032.480769,0.000834,0.001000,0.001000,0.001000,0.001000,0.001000
1032.500000,-0.000377,0.001000,0.001000,0.001000,0.001000,0.001000
1032.519231,-0.001588,0.001000,0.001000,0.001000,0.001000,0.001000
1032.538462,-0.002798,0.001000,0.001000,0.001000,0.001000,0.001000
1032.557692,-0.004007,0.001000,0.001000,0.001000,0.001000,0.001000
1032.576923,-0.005213,0.001000,0.001000,0.001000,0.001000,0.001000
1032.596154,-0.006416,0.001000,0.001000,0.001000,0.001000,0.001000
1032.615385,-0.007615,0.001000,0.001000,0.001000,0.001000,0.001000
1032.634615,-0.008810,0.001000,0.001000,0.001000,0.001000,0.001000
1032.653846,-0.009999,0.001000,0.001000,0.001000,0.001000,0.001000
1032.673077,-0.011183,0.001000,0.001000,0.001000,0.001000,0.001000
1032.692308,-0.012360,0.001000,0.001000,0.001000,0.001000,0.001000
1032.711538,-0.013530,0.001000,0.001000,0.001000,0.001000,0.001000
1032.730769,-0.014692,0.001000,0.001000,0.001000,0.001000,0.001000
1032.750000,-0.015845,0.001000,0.001000,0.001000,0.001000,0.001000
1032.769231,-0.016989,0.001000,0.001000,0.001000,0.001000,0.001000
1032.788462,-0.018123,0.001000,0.001000,0.001000,0.001000,0.001000
1032.807692,-0.019247,0.001000,0.001000,0.001000,0.001000,0.001000
1032.826923,-0.020359,0.001000,0.001000,0.001000,0.001000,0.001000
1032.846154,-0.021459,0.001000,0.001000,0.001000,0.001000,0.001000
1032.865385,-0.022546,0.001000,0.001000,0.001000,0.001000,0.001000
1032.884615,-0.023621,0.001000,0.001000,0.001000,0.001000,0.001000
1032.903846,-0.024681,0.001000,0.001000,0.001000,0.001000,0.001000
1032.923077,-0.025727,0.001000,0.001000,0.001000,0.001000,0.001000
1032.942308,-0.026758,0.001000,0.001000,0.001000,0.001000,0.001000
1032.961538,-0.027773,0.001000,0.001000,0.001000,0.001000,0.001000
1032.980769,-0.028772,0.001000,0.001000,0.001000,0.001000,0.001000
1033.000000,-0.029754,0.001000,0.001000,0.001000,0.001000,0.001000
1033.019231,-0.030719,0.001000,0.001000,0.001000,0.001000,0.001000
1033.038462,-0.031665,0.001000,0.001000,0.001000,0.001000,0.001000
1033.057692,-0.032593,0.001000,0.001000,0.001000,0.001000,0.001000
1033.076923,-0.033502,0.001000,0.001000,0.001000,0.001000,0.001000
1033.096154,-0.034391,0.001000,0.001000,0.001000,0.001000,0.001000
1033.115385,-0.035260,0.001000,0.001000,0.001000,0.001000,0.001000
1033.134615,-0.036109,0.001000,0.001000,0.001000,0.001000,0.001000
1033.153846,-0.036936,0.001000,0.001000,0.001000,0.001000,0.001000
1033.173077,-0.037741,0.001000,0.001000,0.001000,0.001000,0.001000
1033.192308,-0.038525,0.001000,0.001000,0.001000,0.001000,0.001000
1033.211538,-0.039285,0.001000,0.001000,0.001000,0.001000,0.001000
1033.230769,-0.040023,0.001000,0.001000,0.001000,0.001000,0.001000
1033.250000,-0.040737,0.001000,0.001000,0.001000,0.001000,0.001000
1033.269231,-0.041427,0.001000,0.001000,0.001000,0.001000,0.001000
1033.288462,-0.042093,0.001000,0.001000,0.001000,0.001000,0.001000
1033.307692,-0.042735,0.001000,0.001000,0.001000,0.001000,0.001000
1033.326923,-0.043351,0.001000,0.001000,0.001000,0.001000,0.001000
1033.346154,-0.043942,0.001000,0.001000,0.001000,0.001000,0.001000
1033.365385,-0.044507,0.001000,0.001000,0.001000,0.001000,0.001000
1033.384615,-0.045045,0.001000,0.001000,0.001000,0.001000,0.001000
1033.403846,-0.045558,0.001000,0.001000,0.001000,0.001000,0.001000
1033.423077,-0.046043,0.001000,0.001000,0.001000,0.001000,0.001000
1033.442308,-0.046502,0.001000,0.001000,0.001000,0.001000,0.001000
1033.461538,-0.046934,0.001000,0.001000,0.001000,0.001000,0.001000
1033.480769,-0.047337,0.001000,0.001000,0.001000,0.001000,0.001000
1033.500000,-0.047713,0.001000,0.001000,0.001000,0.001000,0.001000
1033.519231,-0.048061,0.001000,0.001000,0.001000,0.001000,0.001000
1033.538462,-0.048381,0.001000,0.001000,0.001000,0.001000,0.001000
1033.557692,-0.048673,0.001000,0.001000,0.001000,0.001000,0.001000
1033.576923,-0.048936,0.001000,0.001000,0.001000,0.001000,0.001000
1033.596154,-0.049170,0.001000,0.001000,0.001000,0.001000,0.001000
1033.615385,-0.049375,0.001000,0.001000,0.001000,0.001000,0.001000
1033.634615,-0.049552,0.001000,0.001000,0.001000,0.001000,0.001000
1033.653846,-0.049699,0.001000,0.001000,0.001000,0.001000,0.001000
1033.673077,-0.049817,0.001000,0.001000,0.001000,0.001000,0.001000
1033.692308,-0.049906,0.001000,0.001000,0.001000,0.001000,0.001000
1033.711538,-0.049966,0.001000,0.001000,0.001000,0.001000,0.001000
1033.730769,-0.049996,0.001000,0.001000,0.001000,0.001000,0.001000
1033.750000,-0.049997,0.001000,0.001000,0.001000,0.001000,0.001000
1033.769231,-0.049968,0.001000,0.001000,0.001000,0.001000,0.001000
1033.788462,-0.049911,0.001000,0.001000,0.001000,0.001000,0.001000
1033.807692,-0.049824,0.001000,0.001000,0.001000,0.001000,0.001000
1033.826923,-0.049708,0.001000,0.001000,0.001000,0.001000,0.001000
1033.846154,-0.049562,0.001000,0.001000,0.001000,0.001000,0.001000
1033.865385,-0.049388,0.001000,0.001000,0.001000,0.001000,0.001000
1033.884615,-0.049184,0.001000,0.001000,0.001000,0.001000,0.001000
1033.903846,-0.048952,0.001000,0.001000,0.001000,0.001000,0.001000
1033.923077,-0.048691,0.001000,0.001000,0.001000,0.001000,0.001000
1033.942308,-0.048401,0.001000,0.001000,0.001000,0.001000,0.001000
1033.961538,-0.048083,0.001000,0.001000,0.001000,0.001000,0.001000
1033.980769,-0.047737,0.001000,0.001000,0.001000,0.001000,0.001000
1034.000000,-0.047363,0.001000,0.001000,0.001000,0.001000,0.001000
1034.019231,-0.046961,0.001000,0.001000,0.001000,0.001000,0.001000
1034.038462,-0.046531,0.001000,0.001000,0.001000,0.001000,0.001000
1034.057692,-0.046074,0.001000,0.001000,0.001000,0.001000,0.001000
1034.076923,-0.045590,0.001000,0.001000,0.001000,0.001000,0.001000
1034.096154,-0.045080,0.001000,0.001000,0.001000,0.001000,0.001000
1034.115385,-0.044543,0.001000,0.001000,0.001000,0.001000,0.001000
1034.134615,-0.043979,0.001000,0.001000,0.001000,0.001000,0.001000
1034.153846,-0.043390,0.001000,0.001000,0.001000,0.001000,0.001000
1034.173077,-0.042776,0.001000,0.001000,0.001000,0.001000,0.001000
1034.192308,-0.042136,0.001000,0.001000,0.001000,0.001000,0.001000
1034.211538,-0.041472,0.001000,0.001000,0.001000,0.001000,0.001000
1034.230769,-0.040783,0.001000,0.001000,0.001000,0.001000,0.001000
1034.250000,-0.040071,0.001000,0.001000,0.001000,0.001000,0.001000
1034.269231,-0.039334,0.001000,0.001000,0.001000,0.001000,0.001000
1034.288462,-0.038575,0.001000,0.001000,0.001000,0.001000,0.001000
1034.307692,-0.037793,0.001000,0.001000,0.001000,0.001000,0.001000
1034.326923,-0.036989,0.001000,0.001000,0.001000,0.001000,0.001000
1034.346154,-0.036164,0.001000,0.001000,0.001000,0.001000,0.001000
1034.365385,-0.035317,0.001000,0.001000,0.001000,0.001000,0.001000
1034.384615,-0.034449,0.001000,0.001000,0.001000,0.001000,0.001000
1034.403846,-0.033561,0.001000,0.001000,0.001000,0.001000,0.001000
1034.423077,-0.032654,0.001000,0.001000,0.001000,0.001000,0.001000
1034.442308,-0.031727,0.001000,0.001000,0.001000,0.001000,0.001000
1034.461538,-0.030781,0.001000,0.001000,0.001000,0.001000,0.001000
1034.480769,-0.029818,0.001000,0.001000,0.001000,0.001000,0.001000
1034.500000,-0.028837,0.001000,0.001000,0.001000,0.001000,0.001000
1034.519231,-0.027839,0.001000,0.001000,0.001000,0.001000,0.001000
1034.538462,-0.026825,0.001000,0.001000,0.001000,0.001000,0.001000
1034.557692,-0.025795,0.001000,0.001000,0.001000,0.001000,0.001000
1034.576923,-0.024750,0.001000,0.001000,0.001000,0.001000,0.001000
1034.596154,-0.023691,0.001000,0.001000,0.001000,0.001000,0.001000
1034.615385,-0.022617,0.001000,0.001000,0.001000,0.001000,0.001000
1034.634615,-0.021530,0.001000,0.001000,0.001000,0.001000,0.001000
1034.653846,-0.020431,0.001000,0.001000,0.001000,0.001000,0.001000
1034.673077,-0.019320,0.001000,0.001000,0.001000,0.001000,0.001000
