timestamp,ax,ay,az,gx,gy,gz
1000.000000,0.000000,0.001000,0.001000,0.001000,0.001000,0.001000
1000.019231,0.001279,0.001000,0.001000,0.001000,0.001000,0.001000
1000.038462,0.002558,0.001000,0.001000,0.001000,0.001000,0.001000
1000.057692,0.003834,0.001000,0.001000,0.001000,0.001000,0.001000
1000.076923,0.005109,0.001000,0.001000,0.001000,0.001000,0.001000
1000.096154,0.006380,0.001000,0.001000,0.001000,0.001000,0.001000
1000.115385,0.007646,0.001000,0.001000,0.001000,0.001000,0.001000
1000.134615,0.008908,0.001000,0.001000,0.001000,0.001000,0.001000
1000.153846,0.010164,0.001000,0.001000,0.001000,0.001000,0.001000
1000.173077,0.011413,0.001000,0.001000,0.001000,0.001000,0.001000
1000.192308,0.012655,0.001000,0.001000,0.001000,0.001000,0.001000
1000.211538,0.013888,0.001000,0.001000,0.001000,0.001000,0.001000
1000.230769,0.015113,0.001000,0.001000,0.001000,0.001000,0.001000
1000.250000,0.016327,0.001000,0.001000,0.001000,0.001000,0.001000
1000.269231,0.017531,0.001000,0.001000,0.001000,0.001000,0.001000
1000.288462,0.018723,0.001000,0.001000,0.001000,0.001000,0.001000
1000.307692,0.019903,0.001000,0.001000,0.001000,0.001000,0.001000
1000.326923,0.021070,0.001000,0.001000,0.001000,0.001000,0.001000
1000.346154,0.022224,0.001000,0.001000,0.001000,0.001000,0.001000
1000.365385,0.023362,0.001000,0.001000,0.001000,0.001000,0.001000
1000.384615,0.024486,0.001000,0.001000,0.001000,0.001000,0.001000
1000.403846,0.025593,0.001000,0.001000,0.001000,0.001000,0.001000
1000.423077,0.026684,0.001000,0.001000,0.001000,0.001000,0.001000
1000.442308,0.027757,0.001000,0.001000,0.001000,0.001000,0.001000
1000.461538,0.028812,0.001000,0.001000,0.001000,0.001000,0.001000
1000.480769,0.029848,0.001000,0.001000,0.001000,0.001000,0.001000
1000.500000,0.030864,0.001000,0.001000,0.001000,0.001000,0.001000
1000.519231,0.031861,0.001000,0.001000,0.001000,0.001000,0.001000
1000.538462,0.032836,0.001000,0.001000,0.001000,0.001000,0.001000
1000.557692,0.033790,0.001000,0.001000,0.001000,0.001000,0.001000
1000.576923,0.034722,0.001000,0.001000,0.001000,0.001000,0.001000
1000.596154,0.035631,0.001000,0.001000,0.001000,0.001000,0.001000
1000.615385,0.036517,0.001000,0.001000,0.001000,0.001000,0.001000
1000.634615,0.037379,0.001000,0.001000,0.001000,0.001000,0.001000
1000.653846,0.038216,0.001000,0.001000,0.001000,0.001000,0.001000
1000.673077,0.039029,0.001000,0.001000,0.001000,0.001000,0.001000
1000.692308,0.039816,0.001000,0.001000,0.001000,0.001000,0.001000
1000.711538,0.040576,0.001000,0.001000,0.001000,0.001000,0.001000
1000.730769,0.041311,0.001000,0.001000,0.001000,0.001000,0.001000
1000.750000,0.042018,0.001000,0.001000,0.001000,0.001000,0.001000
1000.769231,0.042697,0.001000,0.001000,0.001000,0.001000,0.001000
1000.788462,0.043349,0.001000,0.001000,0.001000,0.001000,0.001000
1000.807692,0.043972,0.001000,0.001000,0.001000,0.001000,0.001000
1000.826923,0.044567,0.001000,0.001000,0.001000,0.001000,0.001000
1000.846154,0.045132,0.001000,0.001000,0.001000,0.001000,0.001000
1000.865385,0.045668,0.001000,0.001000,0.001000,0.001000,0.001000
1000.884615,0.046174,0.001000,0.001000,0.001000,0.001000,0.001000
1000.903846,0.046650,0.001000,0.001000,0.001000,0.001000,0.001000
1000.923077,0.047095,0.001000,0.001000,0.001000,0.001000,0.001000
1000.942308,0.047509,0.001000,0.001000,0.001000,0.001000,0.001000
1000.961538,0.047892,0.001000,0.001000,0.001000,0.001000,0.001000
1000.980769,0.048244,0.001000,0.001000,0.001000,0.001000,0.001000
1001.000000,0.048564,0.001000,0.001000,0.001000,0.001000,0.001000
1001.019231,0.048853,0.001000,0.001000,0.001000,0.001000,0.001000
1001.038462,0.049109,0.001000,0.001000,0.001000,0.001000,0.001000
1001.057692,0.049334,0.001000,0.001000,0.001000,0.001000,0.001000
1001.076923,0.049526,0.001000,0.001000,0.001000,0.001000,0.001000
1001.096154,0.049685,0.001000,0.001000,0.001000,0.001000,0.001000
1001.115385,0.049812,0.001000,0.001000,0.001000,0.001000,0.001000
1001.134615,0.049907,0.001000,0.001000,0.001000,0.001000,0.001000
1001.153846,0.049968,0.001000,0.001000,0.001000,0.001000,0.001000
1001.173077,0.049998,0.001000,0.001000,0.001000,0.001000,0.001000
1001.192308,0.049994,0.001000,0.001000,0.001000,0.001000,0.001000
1001.211538,0.049957,0.001000,0.001000,0.001000,0.001000,0.001000
1001.230769,0.049888,0.001000,0.001000,0.001000,0.001000,0.001000
1001.250000,0.049787,0.001000,0.001000,0.001000,0.001000,0.001000
1001.269231,0.049652,0.001000,0.001000,0.001000,0.001000,0.001000
1001.288462,0.049485,0.001000,0.001000,0.001000,0.001000,0.001000
1001.307692,0.049286,0.001000,0.001000,0.001000,0.001000,0.001000
1001.326923,0.049054,0.001000,0.001000,0.001000,0.001000,0.001000
1001.346154,0.048791,0.001000,0.001000,0.001000,0.001000,0.001000
1001.365385,0.048495,0.001000,0.001000,0.001000,0.001000,0.001000
1001.384615,0.048168,0.001000,0.001000,0.001000,0.001000,0.001000
1001.403846,0.047809,0.001000,0.001000,0.001000,0.001000,0.001000
1001.423077,0.047419,0.001000,0.001000,0.001000,0.001000,0.001000
1001.442308,0.046998,0.001000,0.001000,0.001000,0.001000,0.001000
1001.461538,0.046546,0.001000,0.001000,0.001000,0.001000,0.001000
1001.480769,0.046063,0.001000,0.001000,0.001000,0.001000,0.001000
1001.500000,0.045550,0.001000,0.001000,0.001000,0.001000,0.001000
1001.519231,0.045008,0.001000,0.001000,0.001000,0.001000,0.001000
1001.538462,0.044436,0.001000,0.001000,0.001000,0.001000,0.001000
1001.557692,0.043835,0.001000,0.001000,0.001000,0.001000,0.001000
1001.576923,0.043205,0.001000,0.001000,0.001000,0.001000,0.001000
1001.596154,0.042547,0.001000,0.001000,0.001000,0.001000,0.001000
1001.615385,0.041861,0.001000,0.001000,0.001000,0.001000,0.001000
1001.634615,0.041148,0.001000,0.001000,0.001000,0.001000,0.001000
1001.653846,0.040408,0.001000,0.001000,0.001000,0.001000,0.001000
1001.673077,0.039641,0.001000,0.001000,0.001000,0.001000,0.001000
1001.692308,0.038849,0.001000,0.001000,0.001000,0.001000,0.001000
1001.711538,0.038030,0.001000,0.001000,0.001000,0.001000,0.001000
1001.730769,0.037188,0.001000,0.001000,0.001000,0.001000,0.001000
1001.750000,0.036320,0.001000,0.001000,0.001000,0.001000,0.001000
1001.769231,0.035429,0.001000,0.001000,0.001000,0.001000,0.001000
1001.788462,0.034515,0.001000,0.001000,0.001000,0.001000,0.001000
1001.807692,0.033578,0.001000,0.001000,0.001000,0.001000,0.001000
1001.826923,0.032619,0.001000,0.001000,0.001000,0.001000,0.001000
1001.846154,0.031639,0.001000,0.001000,0.001000,0.001000,0.001000
1001.865385,0.030638,0.001000,0.001000,0.001000,0.001000,0.001000
1001.884615,0.029617,0.001000,0.001000,0.001000,0.001000,0.001000
1001.903846,0.028577,0.001000,0.001000,0.001000,0.001000,0.001000
1001.923077,0.027517,0.001000,0.001000,0.001000,0.001000,0.001000
1001.942308,0.026440,0.001000,0.001000,0.001000,0.001000,0.001000
1001.961538,0.025346,0.001000,0.001000,0.001000,0.001000,0.001000
1001.980769,0.024235,0.001000,0.001000,0.001000,0.001000,0.001000
1002.000000,0.023108,0.001000,0.001000,0.001000,0.001000,0.001000
1002.019231,0.021966,0.001000,0.001000,0.001000,0.001000,0.001000
1002.038462,0.020810,0.001000,0.001000,0.001000,0.001000,0.001000
1002.057692,0.019640,0.001000,0.001000,0.001000,0.001000,0.001000
1002.076923,0.018457,0.001000,0.001000,0.001000,0.001000,0.001000
1002.096154,0.017262,0.001000,0.001000,0.001000,0.001000,0.001000
1002.115385,0.016056,0.001000,0.001000,0.001000,0.001000,0.001000
1002.134615,0.014839,0.001000,0.001000,0.001000,0.001000,0.001000
1002.153846,0.013612,0.001000,0.001000,0.001000,0.001000,0.001000
1002.173077,0.012377,0.001000,0.001000,0.001000,0.001000,0.001000
1002.192308,0.011133,0.001000,0.001000,0.001000,0.001000,0.001000
1002.211538,0.009883,0.001000,0.001000,0.001000,0.001000,0.001000
1002.230769,0.008625,0.001000,0.001000,0.001000,0.001000,0.001000
1002.250000,0.007362,0.001000,0.001000,0.001000,0.001000,0.001000
1002.269231,0.006095,0.001000,0.001000,0.001000,0.001000,0.001000
1002.288462,0.004823,0.001000,0.001000,0.001000,0.001000,0.001000
1002.307692,0.003548,0.001000,0.001000,0.001000,0.001000,0.001000
1002.326923,0.002271,0.001000,0.001000,0.001000,0.001000,0.001000
1002.346154,0.000992,0.001000,0.001000,0.001000,0.001000,0.001000
1002.365385,-0.000287,0.001000,0.001000,0.001000,0.001000,0.001000
1002.384615,-0.001566,0.001000,0.001000,0.001000,0.001000,0.001000
1002.403846,-0.002844,0.001000,0.001000,0.001000,0.001000,0.001000
1002.423077,-0.004121,0.001000,0.001000,0.001000,0.001000,0.001000
1002.442308,-0.005394,0.001000,0.001000,0.001000,0.001000,0.001000
1002.461538,-0.006664,0.001000,0.001000,0.001000,0.001000,0.001000
1002.480769,-0.007930,0.001000,0.001000,0.001000,0.001000,0.001000
1002.500000,-0.009190,0.001000,0.001000,0.001000,0.001000,0.001000
1002.519231,-0.010445,0.001000,0.001000,0.001000,0.001000,0.001000
1002.538462,-0.011693,0.001000,0.001000,0.001000,0.001000,0.001000
1002.557692,-0.012933,0.001000,0.001000,0.001000,0.001000,0.001000
1002.576923,-0.014164,0.001000,0.001000,0.001000,0.001000,0.001000
1002.596154,-0.015386,0.001000,0.001000,0.001000,0.001000,0.001000
1002.615385,-0.016598,0.001000,0.001000,0.001000,0.001000,0.001000
1002.634615,-0.017800,0.001000,0.001000,0.001000,0.001000,0.001000
1002.653846,-0.018989,0.001000,0.001000,0.001000,0.001000,0.001000
1002.673077,-0.020167,0.001000,0.001000,0.001000,0.001000,0.001000
1002.692308,-0.021331,0.001000,0.001000,0.001000,0.001000,0.001000
1002.711538,-0.022481,0.001000,0.001000,0.001000,0.001000,0.001000
1002.730769,-0.023616,0.001000,0.001000,0.001000,0.001000,0.001000
1002.750000,-0.024736,0.001000,0.001000,0.001000,0.001000,0.001000
1002.769231,-0.025839,0.001000,0.001000,0.001000,0.001000,0.001000
1002.788462,-0.026926,0.001000,0.001000,0.001000,0.001000,0.001000
1002.807692,-0.027995,0.001000,0.001000,0.001000,0.001000,0.001000
1002.826923,-0.029046,0.001000,0.001000,0.001000,0.001000,0.001000
1002.846154,-0.030078,0.001000,0.001000,0.001000,0.001000,0.001000
1002.865385,-0.031090,0.001000,0.001000,0.001000,0.001000,0.001000
1002.884615,-0.032082,0.001000,0.001000,0.001000,0.001000,0.001000
1002.903846,-0.033052,0.001000,0.001000,0.001000,0.001000,0.001000
1002.923077,-0.034001,0.001000,0.001000,0.001000,0.001000,0.001000
1002.942308,-0.034928,0.001000,0.001000,0.001000,0.001000,0.001000
1002.961538,-0.035832,0.001000,0.001000,0.001000,0.001000,0.001000
1002.980769,-0.036713,0.001000,0.001000,0.001000,0.001000,0.001000
1003.000000,-0.037569,0.001000,0.001000,0.001000,0.001000,0.001000
1003.019231,-0.038401,0.001000,0.001000,0.001000,0.001000,0.001000
1003.038462,-0.039208,0.001000,0.001000,0.001000,0.001000,0.001000
1003.057692,-0.039989,0.001000,0.001000,0.001000,0.001000,0.001000
1003.076923,-0.040743,0.001000,0.001000,0.001000,0.001000,0.001000
1003.096154,-0.041472,0.001000,0.001000,0.001000,0.001000,0.001000
1003.115385,-0.042173,0.001000,0.001000,0.001000,0.001000,0.001000
1003.134615,-0.042846,0.001000,0.001000,0.001000,0.001000,0.001000
1003.153846,-0.043491,0.001000,0.001000,0.001000,0.001000,0.001000
1003.173077,-0.044108,0.001000,0.001000,0.001000,0.001000,0.001000
1003.192308,-0.044696,0.001000,0.001000,0.001000,0.001000,0.001000
1003.211538,-0.045255,0.001000,0.001000,0.001000,0.001000,0.001000
1003.230769,-0.045784,0.001000,0.001000,0.001000,0.001000,0.001000
1003.250000,-0.046283,0.001000,0.001000,0.001000,0.001000,0.001000
1003.269231,-0.046752,0.001000,0.001000,0.001000,0.001000,0.001000
1003.288462,-0.047190,0.001000,0.001000,0.001000,0.001000,0.001000
1003.307692,-0.047598,0.001000,0.001000,0.001000,0.001000,0.001000
1003.326923,-0.047974,0.001000,0.001000,0.001000,0.001000,0.001000
1003.346154,-0.048319,0.001000,0.001000,0.001000,0.001000,0.001000
1003.365385,-0.048632,0.001000,0.001000,0.001000,0.001000,0.001000
1003.384615,-0.048913,0.001000,0.001000,0.001000,0.001000,0.001000
1003.403846,-0.049162,0.001000,0.001000,0.001000,0.001000,0.001000
1003.423077,-0.049380,0.001000,0.001000,0.001000,0.001000,0.001000
1003.442308,-0.049564,0.001000,0.001000,0.001000,0.001000,0.001000
1003.461538,-0.049717,0.001000,0.001000,0.001000,0.001000,0.001000
1003.480769,-0.049836,0.001000,0.001000,0.001000,0.001000,0.001000
1003.500000,-0.049923,0.001000,0.001000,0.001000,0.001000,0.001000
1003.519231,-0.049978,0.001000,0.001000,0.001000,0.001000,0.001000
1003.538462,-0.050000,0.001000,0.001000,0.001000,0.001000,0.001000
1003.557692,-0.049989,0.001000,0.001000,0.001000,0.001000,0.001000
1003.576923,-0.049945,0.001000,0.001000,0.001000,0.001000,0.001000
1003.596154,-0.049868,0.001000,0.001000,0.001000,0.001000,0.001000
1003.615385,-0.049759,0.001000,0.001000,0.001000,0.001000,0.001000
1003.634615,-0.049618,0.001000,0.001000,0.001000,0.001000,0.001000
1003.653846,-0.049443,0.001000,0.001000,0.001000,0.001000,0.001000
1003.673077,-0.049237,0.001000,0.001000,0.001000,0.001000,0.001000
1003.692308,-0.048998,0.001000,0.001000,0.001000,0.001000,0.001000
1003.711538,-0.048727,0.001000,0.001000,0.001000,0.001000,0.001000
1003.730769,-0.048424,0.001000,0.001000,0.001000,0.001000,0.001000
1003.750000,-0.048090,0.001000,0.001000,0.001000,0.001000,0.001000
1003.769231,-0.047724,0.001000,0.001000,0.001000,0.001000,0.001000
1003.788462,-0.047327,0.001000,0.001000,0.001000,0.001000,0.001000
1003.807692,-0.046899,0.001000,0.001000,0.001000,0.001000,0.001000
1003.826923,-0.046440,0.001000,0.001000,0.001000,0.001000,0.001000
1003.846154,-0.045951,0.001000,0.001000,0.001000,0.001000,0.001000
1003.865385,-0.045431,0.001000,0.001000,0.001000,0.001000,0.001000
1003.884615,-0.044882,0.001000,0.001000,0.001000,0.001000,0.001000
1003.903846,-0.044304,0.001000,0.001000,0.001000,0.001000,0.001000
1003.923077,-0.043696,0.001000,0.001000,0.001000,0.001000,0.001000
1003.942308,-0.043060,0.001000,0.001000,0.001000,0.001000,0.001000
1003.961538,-0.042396,0.001000,0.001000,0.001000,0.001000,0.001000
1003.980769,-0.041704,0.001000,0.001000,0.001000,0.001000,0.001000
1004.000000,-0.040984,0.001000,0.001000,0.001000,0.001000,0.001000
1004.019231,-0.040238,0.001000,0.001000,0.001000,0.001000,0.001000
1004.038462,-0.039465,0.001000,0.001000,0.001000,0.001000,0.001000
1004.057692,-0.038667,0.001000,0.001000,0.001000,0.001000,0.001000
1004.076923,-0.037843,0.001000,0.001000,0.001000,0.001000,0.001000
1004.096154,-0.036995,0.001000,0.001000,0.001000,0.001000,0.001000
1004.115385,-0.036122,0.001000,0.001000,0.001000,0.001000,0.001000
1004.134615,-0.035226,0.001000,0.001000,0.001000,0.001000,0.001000
1004.153846,-0.034306,0.001000,0.001000,0.001000,0.001000,0.001000
1004.173077,-0.033365,0.001000,0.001000,0.001000,0.001000,0.001000
1004.192308,-0.032401,0.001000,0.001000,0.001000,0.001000,0.001000
1004.211538,-0.031416,0.001000,0.001000,0.001000,0.001000,0.001000
1004.230769,-0.030410,0.001000,0.001000,0.001000,0.001000,0.001000
1004.250000,-0.029385,0.001000,0.001000,0.001000,0.001000,0.001000
1004.269231,-0.028340,0.001000,0.001000,0.001000,0.001000,0.001000
1004.288462,-0.027277,0.001000,0.001000,0.001000,0.001000,0.001000
1004.307692,-0.026196,0.001000,0.001000,0.001000,0.001000,0.001000
1004.326923,-0.025098,0.001000,0.001000,0.001000,0.001000,0.001000
1004.346154,-0.023983,0.001000,0.001000,0.001000,0.001000,0.001000
1004.365385,-0.022853,0.001000,0.001000,0.001000,0.001000,0.001000
1004.384615,-0.021708,0.001000,0.001000,0.001000,0.001000,0.001000
1004.403846,-0.020548,0.001000,0.001000,0.001000,0.001000,0.001000
1004.423077,-0.019375,0.001000,0.001000,0.001000,0.001000,0.001000
1004.442308,-0.018190,0.001000,0.001000,0.001000,0.001000,0.001000
1004.461538,-0.016992,0.001000,0.001000,0.001000,0.001000,0.001000
1004.480769,-0.015783,0.001000,0.001000,0.001000,0.001000,0.001000
1004.500000,-0.014564,0.001000,0.001000,0.001000,0.001000,0.001000
1004.519231,-0.013336,0.001000,0.001000,0.001000,0.001000,0.001000
1004.538462,-0.012098,0.001000,0.001000,0.001000,0.001000,0.001000
1004.557692,-0.010853,0.001000,0.001000,0.001000,0.001000,0.001000
1004.576923,-0.009601,0.001000,0.001000,0.001000,0.001000,0.001000
1004.596154,-0.008342,0.001000,0.001000,0.001000,0.001000,0.001000
1004.615385,-0.007078,0.001000,0.001000,0.001000,0.001000,0.001000
1004.634615,-0.005809,0.001000,0.001000,0.001000,0.001000,0.001000
1004.653846,-0.004537,0.001000,0.001000,0.001000,0.001000,0.001000
1004.673077,-0.003262,0.001000,0.001000,0.001000,0.001000,0.001000
1004.692308,-0.001984,0.001000,0.001000,0.001000,0.001000,0.001000
1004.711538,-0.000705,0.001000,0.001000,0.001000,0.001000,0.001000
1004.730769,0.000574,0.001000,0.001000,0.001000,0.001000,0.001000
1004.750000,0.001853,0.001000,0.001000,0.001000,0.001000,0.001000
1004.769231,0.003131,0.001000,0.001000,0.001000,0.001000,0.001000
1004.788462,0.004407,0.001000,0.001000,0.001000,0.001000,0.001000
1004.807692,0.005680,0.001000,0.001000,0.001000,0.001000,0.001000
1004.826923,0.006949,0.001000,0.001000,0.001000,0.001000,0.001000
1004.846154,0.008213,0.001000,0.001000,0.001000,0.001000,0.001000
1004.865385,0.009473,0.001000,0.001000,0.001000,0.001000,0.001000
1004.884615,0.010726,0.001000,0.001000,0.001000,0.001000,0.001000
1004.903846,0.011972,0.001000,0.001000,0.001000,0.001000,0.001000
1004.923077,0.013210,0.001000,0.001000,0.001000,0.001000,0.001000
1004.942308,0.014439,0.001000,0.001000,0.001000,0.001000,0.001000
1004.961538,0.015659,0.001000,0.001000,0.001000,0.001000,0.001000
1004.980769,0.016869,0.001000,0.001000,0.001000,0.001000,0.001000
1005.000000,0.018068,0.001000,0.001000,0.001000,0.001000,0.001000
1005.019231,0.019255,0.001000,0.001000,0.001000,0.001000,0.001000
1005.038462,0.020429,0.001000,0.001000,0.001000,0.001000,0.001000
1005.057692,0.021590,0.001000,0.001000,0.001000,0.001000,0.001000
1005.076923,0.022737,0.001000,0.001000,0.001000,0.001000,0.001000
1005.096154,0.023869,0.001000,0.001000,0.001000,0.001000,0.001000
1005.115385,0.024985,0.001000,0.001000,0.001000,0.001000,0.001000
1005.134615,0.026085,0.001000,0.001000,0.001000,0.001000,0.001000
1005.153846,0.027168,0.001000,0.001000,0.001000,0.001000,0.001000
1005.173077,0.028233,0.001000,0.001000,0.001000,0.001000,0.001000
1005.192308,0.029279,0.001000,0.001000,0.001000,0.001000,0.001000
1005.211538,0.030307,0.001000,0.001000,0.001000,0.001000,0.001000
1005.230769,0.031314,0.001000,0.001000,0.001000,0.001000,0.001000
1005.250000,0.032301,0.001000,0.001000,0.001000,0.001000,0.001000
1005.269231,0.033267,0.001000,0.001000,0.001000,0.001000,0.001000
1005.288462,0.034211,0.001000,0.001000,0.001000,0.001000,0.001000
1005.307692,0.035133,0.001000,0.001000,0.001000,0.001000,0.001000
1005.326923,0.036032,0.001000,0.001000,0.001000,0.001000,0.001000
1005.346154,0.036907,0.001000,0.001000,0.001000,0.001000,0.001000
1005.365385,0.037758,0.001000,0.001000,0.001000,0.001000,0.001000
1005.384615,0.038584,0.001000,0.001000,0.001000,0.001000,0.001000
1005.403846,0.039385,0.001000,0.001000,0.001000,0.001000,0.001000
1005.423077,0.040160,0.001000,0.001000,0.001000,0.001000,0.001000
1005.442308,0.040909,0.001000,0.001000,0.001000,0.001000,0.001000
1005.461538,0.041631,0.001000,0.001000,0.001000,0.001000,0.001000
1005.480769,0.042326,0.001000,0.001000,0.001000,0.001000,0.001000
1005.500000,0.042993,0.001000,0.001000,0.001000,0.001000,0.001000
1005.519231,0.043632,0.001000,0.001000,0.001000,0.001000,0.001000
1005.538462,0.044243,0.001000,0.001000,0.001000,0.001000,0.001000
1005.557692,0.044824,0.001000,0.001000,0.001000,0.001000,0.001000
1005.576923,0.045376,0.001000,0.001000,0.001000,0.001000,0.001000
1005.596154,0.045899,0.001000,0.001000,0.001000,0.001000,0.001000
1005.615385,0.046391,0.001000,0.001000,0.001000,0.001000,0.001000
1005.634615,0.046853,0.001000,0.001000,0.001000,0.001000,0.001000
1005.653846,0.047285,0.001000,0.001000,0.001000,0.001000,0.001000
1005.673077,0.047685,0.001000,0.001000,0.001000,0.001000,0.001000
1005.692308,0.048054,0.001000,0.001000,0.001000,0.001000,0.001000
1005.711538,0.048392,0.001000,0.001000,0.001000,0.001000,0.001000
1005.730769,0.048698,0.001000,0.001000,0.001000,0.001000,0.001000
1005.750000,0.048972,0.001000,0.001000,0.001000,0.001000,0.001000
1005.769231,0.049214,0.001000,0.001000,0.001000,0.001000,0.001000
1005.788462,0.049424,0.001000,0.001000,0.001000,0.001000,0.001000
1005.807692,0.049601,0.001000,0.001000,0.001000,0.001000,0.001000
1005.826923,0.049746,0.001000,0.001000,0.001000,0.001000,0.001000
1005.846154,0.049859,0.001000,0.001000,0.001000,0.001000,0.001000
1005.865385,0.049938,0.001000,0.001000,0.001000,0.001000,0.001000
1005.884615,0.049986,0.001000,0.001000,0.001000,0.001000,0.001000
1005.903846,0.050000,0.001000,0.001000,0.001000,0.001000,0.001000
1005.923077,0.049982,0.001000,0.001000,0.001000,0.001000,0.001000
1005.942308,0.049930,0.001000,0.001000,0.001000,0.001000,0.001000
1005.961538,0.049847,0.001000,0.001000,0.001000,0.001000,0.001000
1005.980769,0.049730,0.001000,0.001000,0.001000,0.001000,0.001000
1006.000000,0.049581,0.001000,0.001000,0.001000,0.001000,0.001000
1006.019231,0.049400,0.001000,0.001000,0.001000,0.001000,0.001000
1006.038462,0.049186,0.001000,0.001000,0.001000,0.001000,0.001000
1006.057692,0.048940,0.001000,0.001000,0.001000,0.001000,0.001000
1006.076923,0.048662,0.001000,0.001000,0.001000,0.001000,0.001000
1006.096154,0.048352,0.001000,0.001000,0.001000,0.001000,0.001000
1006.115385,0.048011,0.001000,0.001000,0.001000,0.001000,0.001000
1006.134615,0.047638,0.001000,0.001000,0.001000,0.001000,0.001000
1006.153846,0.047233,0.001000,0.001000,0.001000,0.001000,0.001000
1006.173077,0.046798,0.001000,0.001000,0.001000,0.001000,0.001000
1006.192308,0.046333,0.001000,0.001000,0.001000,0.001000,0.001000
1006.211538,0.045837,0.001000,0.001000,0.001000,0.001000,0.001000
1006.230769,0.045311,0.001000,0.001000,0.001000,0.001000,0.001000
1006.250000,0.044755,0.001000,0.001000,0.001000,0.001000,0.001000
1006.269231,0.044170,0.001000,0.001000,0.001000,0.001000,0.001000
1006.288462,0.043556,0.001000,0.001000,0.001000,0.001000,0.001000
1006.307692,0.042913,0.001000,0.001000,0.001000,0.001000,0.001000
1006.326923,0.042243,0.001000,0.001000,0.001000,0.001000,0.001000
1006.346154,0.041544,0.001000,0.001000,0.001000,0.001000,0.001000
1006.365385,0.040819,0.001000,0.001000,0.001000,0.001000,0.001000
1006.384615,0.040067,0.001000,0.001000,0.001000,0.001000,0.001000
1006.403846,0.039289,0.001000,0.001000,0.001000,0.001000,0.001000
1006.423077,0.038484,0.001000,0.001000,0.001000,0.001000,0.001000
1006.442308,0.037655,0.001000,0.001000,0.001000,0.001000,0.001000
1006.461538,0.036801,0.001000,0.001000,0.001000,0.001000,0.001000
1006.480769,0.035923,0.001000,0.001000,0.001000,0.001000,0.001000
1006.500000,0.035021,0.001000,0.001000,0.001000,0.001000,0.001000
1006.519231,0.034097,0.001000,0.001000,0.001000,0.001000,0.001000
1006.538462,0.033150,0.001000,0.001000,0.001000,0.001000,0.001000
1006.557692,0.032182,0.001000,0.001000,0.001000,0.001000,0.001000
1006.576923,0.031192,0.001000,0.001000,0.001000,0.001000,0.001000
1006.596154,0.030182,0.001000,0.001000,0.001000,0.001000,0.001000
1006.615385,0.029152,0.001000,0.001000,0.001000,0.001000,0.001000
1006.634615,0.028103,0.001000,0.001000,0.001000,0.001000,0.001000
1006.653846,0.027036,0.001000,0.001000,0.001000,0.001000,0.001000
1006.673077,0.025951,0.001000,0.001000,0.001000,0.001000,0.001000
1006.692308,0.024849,0.001000,0.001000,0.001000,0.001000,0.001000
1006.711538,0.023731,0.001000,0.001000,0.001000,0.001000,0.001000
1006.730769,0.022597,0.001000,0.001000,0.001000,0.001000,0.001000
1006.750000,0.021449,0.001000,0.001000,0.001000,0.001000,0.001000
1006.769231,0.020286,0.001000,0.001000,0.001000,0.001000,0.001000
1006.788462,0.019110,0.001000,0.001000,0.001000,0.001000,0.001000
1006.807692,0.017922,0.001000,0.001000,0.001000,0.001000,0.001000
1006.826923,0.016722,0.001000,0.001000,0.001000,0.001000,0.001000
1006.846154,0.015510,0.001000,0.001000,0.001000,0.001000,0.001000
1006.865385,0.014289,0.001000,0.001000,0.001000,0.001000,0.001000
1006.884615,0.013059,0.001000,0.001000,0.001000,0.001000,0.001000
1006.903846,0.011820,0.001000,0.001000,0.001000,0.001000,0.001000
1006.923077,0.010573,0.001000,0.001000,0.001000,0.001000,0.001000
1006.942308,0.009319,0.001000,0.001000,0.001000,0.001000,0.001000
1006.961538,0.008059,0.001000,0.001000,0.001000,0.001000,0.001000
1006.980769,0.006794,0.001000,0.001000,0.001000,0.001000,0.001000
1007.000000,0.005524,0.001000,0.001000,0.001000,0.001000,0.001000
1007.019231,0.004251,0.001000,0.001000,0.001000,0.001000,0.001000
1007.038462,0.002975,0.001000,0.001000,0.001000,0.001000,0.001000
1007.057692,0.001697,0.001000,0.001000,0.001000,0.001000,0.001000
1007.076923,0.000418,0.001000,0.001000,0.001000,0.001000,0.001000
1007.096154,-0.000862,0.001000,0.001000,0.001000,0.001000,0.001000
1007.115385,-0.002140,0.001000,0.001000,0.001000,0.001000,0.001000
1007.134615,-0.003418,0.001000,0.001000,0.001000,0.001000,0.001000
1007.153846,-0.004693,0.001000,0.001000,0.001000,0.001000,0.001000
1007.173077,-0.005965,0.001000,0.001000,0.001000,0.001000,0.001000
1007.192308,-0.007233,0.001000,0.001000,0.001000,0.001000,0.001000
1007.211538,-0.008497,0.001000,0.001000,0.001000,0.001000,0.001000
1007.230769,-0.009754,0.001000,0.001000,0.001000,0.001000,0.001000
1007.250000,-0.011006,0.001000,0.001000,0.001000,0.001000,0.001000
1007.269231,-0.012250,0.001000,0.001000,0.001000,0.001000,0.001000
1007.288462,-0.013486,0.001000,0.001000,0.001000,0.001000,0.001000
1007.307692,-0.014714,0.001000,0.001000,0.001000,0.001000,0.001000
1007.326923,-0.015932,0.001000,0.001000,0.001000,0.001000,0.001000
1007.346154,-0.017139,0.001000,0.001000,0.001000,0.001000,0.001000
1007.365385,-0.018335,0.001000,0.001000,0.001000,0.001000,0.001000
1007.384615,-0.019519,0.001000,0.001000,0.001000,0.001000,0.001000
1007.403846,-0.020691,0.001000,0.001000,0.001000,0.001000,0.001000
1007.423077,-0.021849,0.001000,0.001000,0.001000,0.001000,0.001000
1007.442308,-0.022992,0.001000,0.001000,0.001000,0.001000,0.001000
1007.461538,-0.024121,0.001000,0.001000,0.001000,0.001000,0.001000
1007.480769,-0.025233,0.001000,0.001000,0.001000,0.001000,0.001000
1007.500000,-0.026329,0.001000,0.001000,0.001000,0.001000,0.001000
1007.519231,-0.027408,0.001000,0.001000,0.001000,0.001000,0.001000
1007.538462,-0.028469,0.001000,0.001000,0.001000,0.001000,0.001000
1007.557692,-0.029512,0.001000,0.001000,0.001000,0.001000,0.001000
1007.576923,-0.030535,0.001000,0.001000,0.001000,0.001000,0.001000
1007.596154,-0.031538,0.001000,0.001000,0.001000,0.001000,0.001000
1007.615385,-0.032520,0.001000,0.001000,0.001000,0.001000,0.001000
1007.634615,-0.033481,0.001000,0.001000,0.001000,0.001000,0.001000
1007.653846,-0.034420,0.001000,0.001000,0.001000,0.001000,0.001000
1007.673077,-0.035337,0.001000,0.001000,0.001000,0.001000,0.001000
1007.692308,-0.036230,0.001000,0.001000,0.001000,0.001000,0.001000
1007.711538,-0.037100,0.001000,0.001000,0.001000,0.001000,0.001000
1007.730769,-0.037946,0.001000,0.001000,0.001000,0.001000,0.001000
1007.750000,-0.038766,0.001000,0.001000,0.001000,0.001000,0.001000
1007.769231,-0.039561,0.001000,0.001000,0.001000,0.001000,0.001000
1007.788462,-0.040331,0.001000,0.001000,0.001000,0.001000,0.001000
1007.807692,-0.041074,0.001000,0.001000,0.001000,0.001000,0.001000
1007.826923,-0.041790,0.001000,0.001000,0.001000,0.001000,0.001000
1007.846154,-0.042478,0.001000,0.001000,0.001000,0.001000,0.001000
1007.865385,-0.043139,0.001000,0.001000,0.001000,0.001000,0.001000
1007.884615,-0.043772,0.001000,0.001000,0.001000,0.001000,0.001000
1007.903846,-0.044376,0.001000,0.001000,0.001000,0.001000,0.001000
1007.923077,-0.044951,0.001000,0.001000,0.001000,0.001000,0.001000
1007.942308,-0.045496,0.001000,0.001000,0.001000,0.001000,0.001000
1007.961538,-0.046012,0.001000,0.001000,0.001000,0.001000,0.001000
1007.980769,-0.046498,0.001000,0.001000,0.001000,0.001000,0.001000
1008.000000,-0.046953,0.001000,0.001000,0.001000,0.001000,0.001000
1008.019231,-0.047377,0.001000,0.001000,0.001000,0.001000,0.001000
1008.038462,-0.047771,0.001000,0.001000,0.001000,0.001000,0.001000
1008.057692,-0.048133,0.001000,0.001000,0.001000,0.001000,0.001000
1008.076923,-0.048463,0.001000,0.001000,0.001000,0.001000,0.001000
1008.096154,-0.048762,0.001000,0.001000,0.001000,0.001000,0.001000
1008.115385,-0.049029,0.001000,0.001000,0.001000,0.001000,0.001000
1008.134615,-0.049264,0.001000,0.001000,0.001000,0.001000,0.001000
1008.153846,-0.049466,0.001000,0.001000,0.001000,0.001000,0.001000
1008.173077,-0.049637,0.001000,0.001000,0.001000,0.001000,0.001000
1008.192308,-0.049774,0.001000,0.001000,0.001000,0.001000,0.001000
1008.211538,-0.049879,0.001000,0.001000,0.001000,0.001000,0.001000
1008.230769,-0.049952,0.001000,0.001000,0.001000,0.001000,0.001000
1008.250000,-0.049992,0.001000,0.001000,0.001000,0.001000,0.001000
1008.269231,-0.049999,0.001000,0.001000,0.001000,0.001000,0.001000
1008.288462,-0.049973,0.001000,0.001000,0.001000,0.001000,0.001000
1008.307692,-0.049915,0.001000,0.001000,0.001000,0.001000,0.001000
1008.326923,-0.049823,0.001000,0.001000,0.001000,0.001000,0.001000
1008.346154,-0.049700,0.001000,0.001000,0.001000,0.001000,0.001000
1008.365385,-0.049543,0.001000,0.001000,0.001000,0.001000,0.001000
1008.384615,-0.049355,0.001000,0.001000,0.001000,0.001000,0.001000
1008.403846,-0.049134,0.001000,0.001000,0.001000,0.001000,0.001000
1008.423077,-0.048880,0.001000,0.001000,0.001000,0.001000,0.001000
1008.442308,-0.048595,0.001000,0.001000,0.001000,0.001000,0.001000
1008.461538,-0.048278,0.001000,0.001000,0.001000,0.001000,0.001000
1008.480769,-0.047930,0.001000,0.001000,0.001000,0.001000,0.001000
1008.500000,-0.047550,0.001000,0.001000,0.001000,0.001000,0.001000
1008.519231,-0.047138,0.001000,0.001000,0.001000,0.001000,0.001000
1008.538462,-0.046696,0.001000,0.001000,0.001000,0.001000,0.001000
1008.557692,-0.046224,0.001000,0.001000,0.001000,0.001000,0.001000
1008.576923,-0.045721,0.001000,0.001000,0.001000,0.001000,0.001000
1008.596154,-0.045188,0.001000,0.001000,0.001000,0.001000,0.001000
1008.615385,-0.044626,0.001000,0.001000,0.001000,0.001000,0.001000
1008.634615,-0.044034,0.001000,0.001000,0.001000,0.001000,0.001000
1008.653846,-0.043414,0.001000,0.001000,0.001000,0.001000,0.001000
1008.673077,-0.042765,0.001000,0.001000,0.001000,0.001000,0.001000
1008.692308,-0.042088,0.001000,0.001000,0.001000,0.001000,0.001000
1008.711538,-0.041384,0.001000,0.001000,0.001000,0.001000,0.001000
1008.730769,-0.040653,0.001000,0.001000,0.001000,0.001000,0.001000
1008.750000,-0.039894,0.001000,0.001000,0.001000,0.001000,0.001000
1008.769231,-0.039110,0.001000,0.001000,0.001000,0.001000,0.001000
1008.788462,-0.038300,0.001000,0.001000,0.001000,0.001000,0.001000
1008.807692,-0.037466,0.001000,0.001000,0.001000,0.001000,0.001000
1008.826923,-0.036606,0.001000,0.001000,0.001000,0.001000,0.001000
1008.846154,-0.035723,0.001000,0.001000,0.001000,0.001000,0.001000
1008.865385,-0.034816,0.001000,0.001000,0.001000,0.001000,0.001000
1008.884615,-0.033886,0.001000,0.001000,0.001000,0.001000,0.001000
1008.903846,-0.032935,0.001000,0.001000,0.001000,0.001000,0.001000
1008.923077,-0.031961,0.001000,0.001000,0.001000,0.001000,0.001000
1008.942308,-0.030967,0.001000,0.001000,0.001000,0.001000,0.001000
1008.961538,-0.029953,0.001000,0.001000,0.001000,0.001000,0.001000
1008.980769,-0.028918,0.001000,0.001000,0.001000,0.001000,0.001000
1009.000000,-0.027865,0.001000,0.001000,0.001000,0.001000,0.001000
1009.019231,-0.026794,0.001000,0.001000,0.001000,0.001000,0.001000
1009.038462,-0.025705,0.001000,0.001000,0.001000,0.001000,0.001000
1009.057692,-0.024600,0.001000,0.001000,0.001000,0.001000,0.001000
1009.076923,-0.023478,0.001000,0.001000,0.001000,0.001000,0.001000
1009.096154,-0.022341,0.001000,0.001000,0.001000,0.001000,0.001000
1009.115385,-0.021189,0.001000,0.001000,0.001000,0.001000,0.001000
1009.134615,-0.020023,0.001000,0.001000,0.001000,0.001000,0.001000
1009.153846,-0.018844,0.001000,0.001000,0.001000,0.001000,0.001000
1009.173077,-0.017653,0.001000,0.001000,0.001000,0.001000,0.001000
1009.192308,-0.016451,0.001000,0.001000,0.001000,0.001000,0.001000
1009.211538,-0.015237,0.001000,0.001000,0.001000,0.001000,0.001000
1009.230769,-0.014014,0.001000,0.001000,0.001000,0.001000,0.001000
1009.250000,-0.012781,0.001000,0.001000,0.001000,0.001000,0.001000
1009.269231,-0.011540,0.001000,0.001000,0.001000,0.001000,0.001000
1009.288462,-0.010292,0.001000,0.001000,0.001000,0.001000,0.001000
1009.307692,-0.009037,0.001000,0.001000,0.001000,0.001000,0.001000
1009.326923,-0.007775,0.001000,0.001000,0.001000,0.001000,0.001000
1009.346154,-0.006509,0.001000,0.001000,0.001000,0.001000,0.001000
1009.365385,-0.005239,0.001000,0.001000,0.001000,0.001000,0.001000
1009.384615,-0.003965,0.001000,0.001000,0.001000,0.001000,0.001000
1009.403846,-0.002688,0.001000,0.001000,0.001000,0.001000,0.001000
1009.423077,-0.001410,0.001000,0.001000,0.001000,0.001000,0.001000
1009.442308,-0.000131,0.001000,0.001000,0.001000,0.001000,0.001000
1009.461538,0.001149,0.001000,0.001000,0.001000,0.001000,0.001000
1009.480769,0.002427,0.001000,0.001000,0.001000,0.001000,0.001000
1009.500000,0.003704,0.001000,0.001000,0.001000,0.001000,0.001000
1009.519231,0.004979,0.001000,0.001000,0.001000,0.001000,0.001000
1009.538462,0.006250,0.001000,0.001000,0.001000,0.001000,0.001000
1009.557692,0.007517,0.001000,0.001000,0.001000,0.001000,0.001000
1009.576923,0.008779,0.001000,0.001000,0.001000,0.001000,0.001000
1009.596154,0.010036,0.001000,0.001000,0.001000,0.001000,0.001000
1009.615385,0.011286,0.001000,0.001000,0.001000,0.001000,0.001000
1009.634615,0.012528,0.001000,0.001000,0.001000,0.001000,0.001000
1009.653846,0.013763,0.001000,0.001000,0.001000,0.001000,0.001000
1009.673077,0.014988,0.001000,0.001000,0.001000,0.001000,0.001000
1009.692308,0.016204,0.001000,0.001000,0.001000,0.001000,0.001000
1009.711538,0.017409,0.001000,0.001000,0.001000,0.001000,0.001000
1009.730769,0.018602,0.001000,0.001000,0.001000,0.001000,0.001000
1009.750000,0.019783,0.001000,0.001000,0.001000,0.001000,0.001000
1009.769231,0.020952,0.001000,0.001000,0.001000,0.001000,0.001000
1009.788462,0.022107,0.001000,0.001000,0.001000,0.001000,0.001000
1009.807692,0.023247,0.001000,0.001000,0.001000,0.001000,0.001000
1009.826923,0.024372,0.001000,0.001000,0.001000,0.001000,0.001000
1009.846154,0.025481,0.001000,0.001000,0.001000,0.001000,0.001000
1009.865385,0.026573,0.001000,0.001000,0.001000,0.001000,0.001000
1009.884615,0.027648,0.001000,0.001000,0.001000,0.001000,0.001000
1009.903846,0.028705,0.001000,0.001000,0.001000,0.001000,0.001000
1009.923077,0.029743,0.001000,0.001000,0.001000,0.001000,0.001000
1009.942308,0.030762,0.001000,0.001000,0.001000,0.001000,0.001000
1009.961538,0.031760,0.001000,0.001000,0.001000,0.001000,0.001000
1009.980769,0.032738,0.001000,0.001000,0.001000,0.001000,0.001000
1010.000000,0.033694,0.001000,0.001000,0.001000,0.001000,0.001000
1010.019231,0.034628,0.001000,0.001000,0.001000,0.001000,0.001000
1010.038462,0.035539,0.001000,0.001000,0.001000,0.001000,0.001000
1010.057692,0.036428,0.001000,0.001000,0.001000,0.001000,0.001000
1010.076923,0.037292,0.001000,0.001000,0.001000,0.001000,0.001000
1010.096154,0.038132,0.001000,0.001000,0.001000,0.001000,0.001000
1010.115385,0.038947,0.001000,0.001000,0.001000,0.001000,0.001000
1010.134615,0.039736,0.001000,0.001000,0.001000,0.001000,0.001000
1010.153846,0.040500,0.001000,0.001000,0.001000,0.001000,0.001000
1010.173077,0.041237,0.001000,0.001000,0.001000,0.001000,0.001000
1010.192308,0.041947,0.001000,0.001000,0.001000,0.001000,0.001000
1010.211538,0.042629,0.001000,0.001000,0.001000,0.001000,0.001000
1010.230769,0.043284,0.001000,0.001000,0.001000,0.001000,0.001000
1010.250000,0.043910,0.001000,0.001000,0.001000,0.001000,0.001000
1010.269231,0.044508,0.001000,0.001000,0.001000,0.001000,0.001000
1010.288462,0.045076,0.001000,0.001000,0.001000,0.001000,0.001000
1010.307692,0.045615,0.001000,0.001000,0.001000,0.001000,0.001000
1010.326923,0.046124,0.001000,0.001000,0.001000,0.001000,0.001000
1010.346154,0.046602,0.001000,0.001000,0.001000,0.001000,0.001000
1010.365385,0.047051,0.001000,0.001000,0.001000,0.001000,0.001000
1010.384615,0.047468,0.001000,0.001000,0.001000,0.001000,0.001000
1010.403846,0.047855,0.001000,0.001000,0.001000,0.001000,0.001000
1010.423077,0.048210,0.001000,0.001000,0.001000,0.001000,0.001000
1010.442308,0.048533,0.001000,0.001000,0.001000,0.001000,0.001000
1010.461538,0.048825,0.001000,0.001000,0.001000,0.001000,0.001000
1010.480769,0.049085,0.001000,0.001000,0.001000,0.001000,0.001000
1010.500000,0.049312,0.001000,0.001000,0.001000,0.001000,0.001000
1010.519231,0.049507,0.001000,0.001000,0.001000,0.001000,0.001000
1010.538462,0.049670,0.001000,0.001000,0.001000,0.001000,0.001000
1010.557692,0.049801,0.001000,0.001000,0.001000,0.001000,0.001000
1010.576923,0.049899,0.001000,0.001000,0.001000,0.001000,0.001000
1010.596154,0.049964,0.001000,0.001000,0.001000,0.001000,0.001000
1010.615385,0.049996,0.001000,0.001000,0.001000,0.001000,0.001000
1010.634615,0.049996,0.001000,0.001000,0.001000,0.001000,0.001000
1010.653846,0.049963,0.001000,0.001000,0.001000,0.001000,0.001000
1010.673077,0.049897,0.001000,0.001000,0.001000,0.001000,0.001000
1010.692308,0.049798,0.001000,0.001000,0.001000,0.001000,0.001000
1010.711538,0.049667,0.001000,0.001000,0.001000,0.001000,0.001000
1010.730769,0.049504,0.001000,0.001000,0.001000,0.001000,0.001000
1010.750000,0.049308,0.001000,0.001000,0.001000,0.001000,0.001000
1010.769231,0.049080,0.001000,0.001000,0.001000,0.001000,0.001000
1010.788462,0.048819,0.001000,0.001000,0.001000,0.001000,0.001000
1010.807692,0.048527,0.001000,0.001000,0.001000,0.001000,0.001000
1010.826923,0.048203,0.001000,0.001000,0.001000,0.001000,0.001000
1010.846154,0.047847,0.001000,0.001000,0.001000,0.001000,0.001000
1010.865385,0.047460,0.001000,0.001000,0.001000,0.001000,0.001000
1010.884615,0.047042,0.001000,0.001000,0.001000,0.001000,0.001000
1010.903846,0.046593,0.001000,0.001000,0.001000,0.001000,0.001000
1010.923077,0.046114,0.001000,0.001000,0.001000,0.001000,0.001000
1010.942308,0.045604,0.001000,0.001000,0.001000,0.001000,0.001000
1010.961538,0.045065,0.001000,0.001000,0.001000,0.001000,0.001000
1010.980769,0.044496,0.001000,0.001000,0.001000,0.001000,0.001000
1011.000000,0.043898,0.001000,0.001000,0.001000,0.001000,0.001000
1011.019231,0.043271,0.001000,0.001000,0.001000,0.001000,0.001000
1011.038462,0.042616,0.001000,0.001000,0.001000,0.001000,0.001000
1011.057692,0.041933,0.001000,0.001000,0.001000,0.001000,0.001000
1011.076923,0.041222,0.001000,0.001000,0.001000,0.001000,0.001000
1011.096154,0.040485,0.001000,0.001000,0.001000,0.001000,0.001000
1011.115385,0.039721,0.001000,0.001000,0.001000,0.001000,0.001000
1011.134615,0.038931,0.001000,0.001000,0.001000,0.001000,0.001000
1011.153846,0.038115,0.001000,0.001000,0.001000,0.001000,0.001000
1011.173077,0.037275,0.001000,0.001000,0.001000,0.001000,0.001000
1011.192308,0.036410,0.001000,0.001000,0.001000,0.001000,0.001000
1011.211538,0.035521,0.001000,0.001000,0.001000,0.001000,0.001000
1011.230769,0.034609,0.001000,0.001000,0.001000,0.001000,0.001000
1011.250000,0.033675,0.001000,0.001000,0.001000,0.001000,0.001000
1011.269231,0.032718,0.001000,0.001000,0.001000,0.001000,0.001000
1011.288462,0.031740,0.001000,0.001000,0.001000,0.001000,0.001000
1011.307692,0.030741,0.001000,0.001000,0.001000,0.001000,0.001000
1011.326923,0.029722,0.001000,0.001000,0.001000,0.001000,0.001000
1011.346154,0.028684,0.001000,0.001000,0.001000,0.001000,0.001000
1011.365385,0.027626,0.001000,0.001000,0.001000,0.001000,0.001000
1011.384615,0.026551,0.001000,0.001000,0.001000,0.001000,0.001000
1011.403846,0.025458,0.001000,0.001000,0.001000,0.001000,0.001000
1011.423077,0.024349,0.001000,0.001000,0.001000,0.001000,0.001000
1011.442308,0.023224,0.001000,0.001000,0.001000,0.001000,0.001000
1011.461538,0.022083,0.001000,0.001000,0.001000,0.001000,0.001000
1011.480769,0.020928,0.001000,0.001000,0.001000,0.001000,0.001000
1011.500000,0.019760,0.001000,0.001000,0.001000,0.001000,0.001000
1011.519231,0.018578,0.001000,0.001000,0.001000,0.001000,0.001000
1011.538462,0.017384,0.001000,0.001000,0.001000,0.001000,0.001000
1011.557692,0.016179,0.001000,0.001000,0.001000,0.001000,0.001000
1011.576923,0.014963,0.001000,0.001000,0.001000,0.001000,0.001000
1011.596154,0.013738,0.001000,0.001000,0.001000,0.001000,0.001000
1011.615385,0.012503,0.001000,0.001000,0.001000,0.001000,0.001000
1011.634615,0.011261,0.001000,0.001000,0.001000,0.001000,0.001000
1011.653846,0.010011,0.001000,0.001000,0.001000,0.001000,0.001000
1011.673077,0.008754,0.001000,0.001000,0.001000,0.001000,0.001000
1011.692308,0.007492,0.001000,0.001000,0.001000,0.001000,0.001000
1011.711538,0.006224,0.001000,0.001000,0.001000,0.001000,0.001000
1011.730769,0.004953,0.001000,0.001000,0.001000,0.001000,0.001000
1011.750000,0.003678,0.001000,0.001000,0.001000,0.001000,0.001000
1011.769231,0.002401,0.001000,0.001000,0.001000,0.001000,0.001000
1011.788462,0.001123,0.001000,0.001000,0.001000,0.001000,0.001000
1011.807692,-0.000157,0.001000,0.001000,0.001000,0.001000,0.001000
1011.826923,-0.001436,0.001000,0.001000,0.001000,0.001000,0.001000
1011.846154,-0.002714,0.001000,0.001000,0.001000,0.001000,0.001000
1011.865385,-0.003991,0.001000,0.001000,0.001000,0.001000,0.001000
1011.884615,-0.005264,0.001000,0.001000,0.001000,0.001000,0.001000
1011.903846,-0.006535,0.001000,0.001000,0.001000,0.001000,0.001000
1011.923077,-0.007801,0.001000,0.001000,0.001000,0.001000,0.001000
1011.942308,-0.009062,0.001000,0.001000,0.001000,0.001000,0.001000
1011.961538,-0.010317,0.001000,0.001000,0.001000,0.001000,0.001000
1011.980769,-0.011566,0.001000,0.001000,0.001000,0.001000,0.001000
1012.000000,-0.012806,0.001000,0.001000,0.001000,0.001000,0.001000
1012.019231,-0.014039,0.001000,0.001000,0.001000,0.001000,0.001000
1012.038462,-0.015262,0.001000,0.001000,0.001000,0.001000,0.001000
1012.057692,-0.016475,0.001000,0.001000,0.001000,0.001000,0.001000
1012.076923,-0.017678,0.001000,0.001000,0.001000,0.001000,0.001000
1012.096154,-0.018868,0.001000,0.001000,0.001000,0.001000,0.001000
1012.115385,-0.020047,0.001000,0.001000,0.001000,0.001000,0.001000
1012.134615,-0.021212,0.001000,0.001000,0.001000,0.001000,0.001000
1012.153846,-0.022364,0.001000,0.001000,0.001000,0.001000,0.001000
1012.173077,-0.023501,0.001000,0.001000,0.001000,0.001000,0.001000
1012.192308,-0.024622,0.001000,0.001000,0.001000,0.001000,0.001000
1012.211538,-0.025727,0.001000,0.001000,0.001000,0.001000,0.001000
1012.230769,-0.026816,0.001000,0.001000,0.001000,0.001000,0.001000
1012.250000,-0.027887,0.001000,0.001000,0.001000,0.001000,0.001000
1012.269231,-0.028940,0.001000,0.001000,0.001000,0.001000,0.001000
1012.288462,-0.029973,0.001000,0.001000,0.001000,0.001000,0.001000
1012.307692,-0.030987,0.001000,0.001000,0.001000,0.001000,0.001000
1012.326923,-0.031981,0.001000,0.001000,0.001000,0.001000,0.001000
1012.346154,-0.032954,0.001000,0.001000,0.001000,0.001000,0.001000
1012.365385,-0.033905,0.001000,0.001000,0.001000,0.001000,0.001000
1012.384615,-0.034835,0.001000,0.001000,0.001000,0.001000,0.001000
1012.403846,-0.035741,0.001000,0.001000,0.001000,0.001000,0.001000
1012.423077,-0.036624,0.001000,0.001000,0.001000,0.001000,0.001000
1012.442308,-0.037483,0.001000,0.001000,0.001000,0.001000,0.001000
1012.461538,-0.038317,0.001000,0.001000,0.001000,0.001000,0.001000
1012.480769,-0.039126,0.001000,0.001000,0.001000,0.001000,0.001000
1012.500000,-0.039910,0.001000,0.001000,0.001000,0.001000,0.001000
1012.519231,-0.040668,0.001000,0.001000,0.001000,0.001000,0.001000
1012.538462,-0.041399,0.001000,0.001000,0.001000,0.001000,0.001000
1012.557692,-0.042102,0.001000,0.001000,0.001000,0.001000,0.001000
1012.576923,-0.042779,0.001000,0.001000,0.001000,0.001000,0.001000
1012.596154,-0.043427,0.001000,0.001000,0.001000,0.001000,0.001000
1012.615385,-0.044047,0.001000,0.001000,0.001000,0.001000,0.001000
1012.634615,-0.044638,0.001000,0.001000,0.001000,0.001000,0.001000
1012.653846,-0.045199,0.001000,0.001000,0.001000,0.001000,0.001000
1012.673077,-0.045732,0.001000,0.001000,0.001000,0.001000,0.001000
1012.692308,-0.046234,0.001000,0.001000,0.001000,0.001000,0.001000
1012.711538,-0.046706,0.001000,0.001000,0.001000,0.001000,0.001000
1012.730769,-0.047147,0.001000,0.001000,0.001000,0.001000,0.001000
1012.750000,-0.047558,0.001000,0.001000,0.001000,0.001000,0.001000
1012.769231,-0.047937,0.001000,0.001000,0.001000,0.001000,0.001000
1012.788462,-0.048285,0.001000,0.001000,0.001000,0.001000,0.001000
1012.807692,-0.048601,0.001000,0.001000,0.001000,0.001000,0.001000
1012.826923,-0.048886,0.001000,0.001000,0.001000,0.001000,0.001000
1012.846154,-0.049138,0.001000,0.001000,0.001000,0.001000,0.001000
1012.865385,-0.049359,0.001000,0.001000,0.001000,0.001000,0.001000
1012.884615,-0.049547,0.001000,0.001000,0.001000,0.001000,0.001000
1012.903846,-0.049702,0.001000,0.001000,0.001000,0.001000,0.001000
1012.923077,-0.049826,0.001000,0.001000,0.001000,0.001000,0.001000
1012.942308,-0.049916,0.001000,0.001000,0.001000,0.001000,0.001000
1012.961538,-0.049974,0.001000,0.001000,0.001000,0.001000,0.001000
1012.980769,-0.049999,0.001000,0.001000,0.001000,0.001000,0.001000
1013.000000,-0.049991,0.001000,0.001000,0.001000,0.001000,0.001000
1013.019231,-0.049951,0.001000,0.001000,0.001000,0.001000,0.001000
1013.038462,-0.049878,0.001000,0.001000,0.001000,0.001000,0.001000
1013.057692,-0.049772,0.001000,0.001000,0.001000,0.001000,0.001000
1013.076923,-0.049634,0.001000,0.001000,0.001000,0.001000,0.001000
1013.096154,-0.049463,0.001000,0.001000,0.001000,0.001000,0.001000
1013.115385,-0.049259,0.001000,0.001000,0.001000,0.001000,0.001000
1013.134615,-0.049024,0.001000,0.001000,0.001000,0.001000,0.001000
1013.153846,-0.048756,0.001000,0.001000,0.001000,0.001000,0.001000
1013.173077,-0.048457,0.001000,0.001000,0.001000,0.001000,0.001000
1013.192308,-0.048126,0.001000,0.001000,0.001000,0.001000,0.001000
1013.211538,-0.047763,0.001000,0.001000,0.001000,0.001000,0.001000
1013.230769,-0.047369,0.001000,0.001000,0.001000,0.001000,0.001000
1013.250000,-0.046944,0.001000,0.001000,0.001000,0.001000,0.001000
1013.269231,-0.046488,0.001000,0.001000,0.001000,0.001000,0.001000
1013.288462,-0.046002,0.001000,0.001000,0.001000,0.001000,0.001000
1013.307692,-0.045486,0.001000,0.001000,0.001000,0.001000,0.001000
1013.326923,-0.044940,0.001000,0.001000,0.001000,0.001000,0.001000
1013.346154,-0.044364,0.001000,0.001000,0.001000,0.001000,0.001000
1013.365385,-0.043759,0.001000,0.001000,0.001000,0.001000,0.001000
1013.384615,-0.043126,0.001000,0.001000,0.001000,0.001000,0.001000
1013.403846,-0.042465,0.001000,0.001000,0.001000,0.001000,0.001000
1013.423077,-0.041776,0.001000,0.001000,0.001000,0.001000,0.001000
1013.442308,-0.041059,0.001000,0.001000,0.001000,0.001000,0.001000
1013.461538,-0.040315,0.001000,0.001000,0.001000,0.001000,0.001000
1013.480769,-0.039546,0.001000,0.001000,0.001000,0.001000,0.001000
1013.500000,-0.038750,0.001000,0.001000,0.001000,0.001000,0.001000
1013.519231,-0.037929,0.001000,0.001000,0.001000,0.001000,0.001000
1013.538462,-0.037083,0.001000,0.001000,0.001000,0.001000,0.001000
1013.557692,-0.036212,0.001000,0.001000,0.001000,0.001000,0.001000
1013.576923,-0.035318,0.001000,0.001000,0.001000,0.001000,0.001000
1013.596154,-0.034401,0.001000,0.001000,0.001000,0.001000,0.001000
1013.615385,-0.033462,0.001000,0.001000,0.001000,0.001000,0.001000
1013.634615,-0.032500,0.001000,0.001000,0.001000,0.001000,0.001000
1013.653846,-0.031517,0.001000,0.001000,0.001000,0.001000,0.001000
1013.673077,-0.030514,0.001000,0.001000,0.001000,0.001000,0.001000
1013.692308,-0.029491,0.001000,0.001000,0.001000,0.001000,0.001000
1013.711538,-0.028448,0.001000,0.001000,0.001000,0.001000,0.001000
1013.730769,-0.027387,0.001000,0.001000,0.001000,0.001000,0.001000
1013.750000,-0.026307,0.001000,0.001000,0.001000,0.001000,0.001000
1013.769231,-0.025211,0.001000,0.001000,0.001000,0.001000,0.001000
1013.788462,-0.024098,0.001000,0.001000,0.001000,0.001000,0.001000
1013.807692,-0.022969,0.001000,0.001000,0.001000,0.001000,0.001000
1013.826923,-0.021825,0.001000,0.001000,0.001000,0.001000,0.001000
1013.846154,-0.020667,0.001000,0.001000,0.001000,0.001000,0.001000
1013.865385,-0.019496,0.001000,0.001000,0.001000,0.001000,0.001000
1013.884615,-0.018311,0.001000,0.001000,0.001000,0.001000,0.001000
1013.903846,-0.017115,0.001000,0.001000,0.001000,0.001000,0.001000
1013.923077,-0.015907,0.001000,0.001000,0.001000,0.001000,0.001000
1013.942308,-0.014689,0.001000,0.001000,0.001000,0.001000,0.001000
1013.961538,-0.013462,0.001000,0.001000,0.001000,0.001000,0.001000
1013.980769,-0.012225,0.001000,0.001000,0.001000,0.001000,0.001000
1014.000000,-0.010981,0.001000,0.001000,0.001000,0.001000,0.001000
1014.019231,-0.009729,0.001000,0.001000,0.001000,0.001000,0.001000
1014.038462,-0.008471,0.001000,0.001000,0.001000,0.001000,0.001000
1014.057692,-0.007207,0.001000,0.001000,0.001000,0.001000,0.001000
1014.076923,-0.005939,0.001000,0.001000,0.001000,0.001000,0.001000
1014.096154,-0.004667,0.001000,0.001000,0.001000,0.001000,0.001000
1014.115385,-0.003392,0.001000,0.001000,0.001000,0.001000,0.001000
1014.134615,-0.002114,0.001000,0.001000,0.001000,0.001000,0.001000
1014.153846,-0.000836,0.001000,0.001000,0.001000,0.001000,0.001000
1014.173077,0.000444,0.001000,0.001000,0.001000,0.001000,0.001000
1014.192308,0.001723,0.001000,0.001000,0.001000,0.001000,0.001000
1014.211538,0.003001,0.001000,0.001000,0.001000,0.001000,0.001000
1014.230769,0.004277,0.001000,0.001000,0.001000,0.001000,0.001000
1014.250000,0.005550,0.001000,0.001000,0.001000,0.001000,0.001000
1014.269231,0.006819,0.001000,0.001000,0.001000,0.001000,0.001000
1014.288462,0.008085,0.001000,0.001000,0.001000,0.001000,0.001000
1014.307692,0.009344,0.001000,0.001000,0.001000,0.001000,0.001000
1014.326923,0.010598,0.001000,0.001000,0.001000,0.001000,0.001000
1014.346154,0.011845,0.001000,0.001000,0.001000,0.001000,0.001000
1014.365385,0.013084,0.001000,0.001000,0.001000,0.001000,0.001000
1014.384615,0.014314,0.001000,0.001000,0.001000,0.001000,0.001000
1014.403846,0.015535,0.001000,0.001000,0.001000,0.001000,0.001000
1014.423077,0.016746,0.001000,0.001000,0.001000,0.001000,0.001000
1014.442308,0.017946,0.001000,0.001000,0.001000,0.001000,0.001000
1014.461538,0.019134,0.001000,0.001000,0.001000,0.001000,0.001000
1014.480769,0.020310,0.001000,0.001000,0.001000,0.001000,0.001000
1014.500000,0.021472,0.001000,0.001000,0.001000,0.001000,0.001000
1014.519231,0.022620,0.001000,0.001000,0.001000,0.001000,0.001000
1014.538462,0.023754,0.001000,0.001000,0.001000,0.001000,0.001000
1014.557692,0.024872,0.001000,0.001000,0.001000,0.001000,0.001000
1014.576923,0.025973,0.001000,0.001000,0.001000,0.001000,0.001000
1014.596154,0.027058,0.001000,0.001000,0.001000,0.001000,0.001000
1014.615385,0.028125,0.001000,0.001000,0.001000,0.001000,0.001000
1014.634615,0.029173,0.001000,0.001000,0.001000,0.001000,0.001000
1014.653846,0.030203,0.001000,0.001000,0.001000,0.001000,0.001000
1014.673077,0.031212,0.001000,0.001000,0.001000,0.001000,0.001000
1014.692308,0.032201,0.001000,0.001000,0.001000,0.001000,0.001000
1014.711538,0.033170,0.001000,0.001000,0.001000,0.001000,0.001000
1014.730769,0.034116,0.001000,0.001000,0.001000,0.001000,0.001000
1014.750000,0.035040,0.001000,0.001000,0.001000,0.001000,0.001000
1014.769231,0.035941,0.001000,0.001000,0.001000,0.001000,0.001000
1014.788462,0.036819,0.001000,0.001000,0.001000,0.001000,0.001000
1014.807692,0.037672,0.001000,0.001000,0.001000,0.001000,0.001000
1014.826923,0.038501,0.001000,0.001000,0.001000,0.001000,0.001000
1014.846154,0.039305,0.001000,0.001000,0.001000,0.001000,0.001000
1014.865385,0.040082,0.001000,0.001000,0.001000,0.001000,0.001000
1014.884615,0.040834,0.001000,0.001000,0.001000,0.001000,0.001000
1014.903846,0.041559,0.001000,0.001000,0.001000,0.001000,0.001000
1014.923077,0.042257,0.001000,0.001000,0.001000,0.001000,0.001000
1014.942308,0.042927,0.001000,0.001000,0.001000,0.001000,0.001000
1014.961538,0.043568,0.001000,0.001000,0.001000,0.001000,0.001000
1014.980769,0.044182,0.001000,0.001000,0.001000,0.001000,0.001000
1015.000000,0.044766,0.001000,0.001000,0.001000,0.001000,0.001000
1015.019231,0.045321,0.001000,0.001000,0.001000,0.001000,0.001000
1015.038462,0.045847,0.001000,0.001000,0.001000,0.001000,0.001000
1015.057692,0.046342,0.001000,0.001000,0.001000,0.001000,0.001000
1015.076923,0.046807,0.001000,0.001000,0.001000,0.001000,0.001000
1015.096154,0.047242,0.001000,0.001000,0.001000,0.001000,0.001000
1015.115385,0.047646,0.001000,0.001000,0.001000,0.001000,0.001000
1015.134615,0.048018,0.001000,0.001000,0.001000,0.001000,0.001000
1015.153846,0.048359,0.001000,0.001000,0.001000,0.001000,0.001000
1015.173077,0.048668,0.001000,0.001000,0.001000,0.001000,0.001000
1015.192308,0.048945,0.001000,0.001000,0.001000,0.001000,0.001000
1015.211538,0.049191,0.001000,0.001000,0.001000,0.001000,0.001000
1015.230769,0.049404,0.001000,0.001000,0.001000,0.001000,0.001000
1015.250000,0.049585,0.001000,0.001000,0.001000,0.001000,0.001000
1015.269231,0.049733,0.001000,0.001000,0.001000,0.001000,0.001000
1015.288462,0.049849,0.001000,0.001000,0.001000,0.001000,0.001000
1015.307692,0.049932,0.001000,0.001000,0.001000,0.001000,0.001000
1015.326923,0.049982,0.001000,0.001000,0.001000,0.001000,0.001000
1015.346154,0.050000,0.001000,0.001000,0.001000,0.001000,0.001000
1015.365385,0.049985,0.001000,0.001000,0.001000,0.001000,0.001000
1015.384615,0.049937,0.001000,0.001000,0.001000,0.001000,0.001000
1015.403846,0.049857,0.001000,0.001000,0.001000,0.001000,0.001000
1015.423077,0.049744,0.001000,0.001000,0.001000,0.001000,0.001000
1015.442308,0.049598,0.001000,0.001000,0.001000,0.001000,0.001000
1015.461538,0.049420,0.001000,0.001000,0.001000,0.001000,0.001000
1015.480769,0.049209,0.001000,0.001000,0.001000,0.001000,0.001000
1015.500000,0.048967,0.001000,0.001000,0.001000,0.001000,0.001000
1015.519231,0.048692,0.001000,0.001000,0.001000,0.001000,0.001000
1015.538462,0.048385,0.001000,0.001000,0.001000,0.001000,0.001000
1015.557692,0.048047,0.001000,0.001000,0.001000,0.001000,0.001000
1015.576923,0.047677,0.001000,0.001000,0.001000,0.001000,0.001000
1015.596154,0.047276,0.001000,0.001000,0.001000,0.001000,0.001000
1015.615385,0.046844,0.001000,0.001000,0.001000,0.001000,0.001000
1015.634615,0.046382,0.001000,0.001000,0.001000,0.001000,0.001000
1015.653846,0.045889,0.001000,0.001000,0.001000,0.001000,0.001000
1015.673077,0.045366,0.001000,0.001000,0.001000,0.001000,0.001000
1015.692308,0.044813,0.001000,0.001000,0.001000,0.001000,0.001000
1015.711538,0.044231,0.001000,0.001000,0.001000,0.001000,0.001000
1015.730769,0.043620,0.001000,0.001000,0.001000,0.001000,0.001000
1015.750000,0.042980,0.001000,0.001000,0.001000,0.001000,0.001000
1015.769231,0.042312,0.001000,0.001000,0.001000,0.001000,0.001000
1015.788462,0.041617,0.001000,0.001000,0.001000,0.001000,0.001000
1015.807692,0.040894,0.001000,0.001000,0.001000,0.001000,0.001000
1015.826923,0.040145,0.001000,0.001000,0.001000,0.001000,0.001000
1015.846154,0.039369,0.001000,0.001000,0.001000,0.001000,0.001000
1015.865385,0.038568,0.001000,0.001000,0.001000,0.001000,0.001000
1015.884615,0.037741,0.001000,0.001000,0.001000,0.001000,0.001000
1015.903846,0.036889,0.001000,0.001000,0.001000,0.001000,0.001000
1015.923077,0.036014,0.001000,0.001000,0.001000,0.001000,0.001000
1015.942308,0.035115,0.001000,0.001000,0.001000,0.001000,0.001000
1015.961538,0.034192,0.001000,0.001000,0.001000,0.001000,0.001000
1015.980769,0.033248,0.001000,0.001000,0.001000,0.001000,0.001000
1016.000000,0.032282,0.001000,0.001000,0.001000,0.001000,0.001000
1016.019231,0.031294,0.001000,0.001000,0.001000,0.001000,0.001000
1016.038462,0.030286,0.001000,0.001000,0.001000,0.001000,0.001000
1016.057692,0.029258,0.001000,0.001000,0.001000,0.001000,0.001000
1016.076923,0.028211,0.001000,0.001000,0.001000,0.001000,0.001000
1016.096154,0.027146,0.001000,0.001000,0.001000,0.001000,0.001000
1016.115385,0.026063,0.001000,0.001000,0.001000,0.001000,0.001000
1016.134615,0.024962,0.001000,0.001000,0.001000,0.001000,0.001000
1016.153846,0.023846,0.001000,0.001000,0.001000,0.001000,0.001000
1016.173077,0.022714,0.001000,0.001000,0.001000,0.001000,0.001000
1016.192308,0.021567,0.001000,0.001000,0.001000,0.001000,0.001000
1016.211538,0.020405,0.001000,0.001000,0.001000,0.001000,0.001000
1016.230769,0.019231,0.001000,0.001000,0.001000,0.001000,0.001000
1016.250000,0.018044,0.001000,0.001000,0.001000,0.001000,0.001000
1016.269231,0.016845,0.001000,0.001000,0.001000,0.001000,0.001000
1016.288462,0.015635,0.001000,0.001000,0.001000,0.001000,0.001000
1016.307692,0.014414,0.001000,0.001000,0.001000,0.001000,0.001000
1016.326923,0.013185,0.001000,0.001000,0.001000,0.001000,0.001000
1016.346154,0.011946,0.001000,0.001000,0.001000,0.001000,0.001000
1016.365385,0.010700,0.001000,0.001000,0.001000,0.001000,0.001000
1016.384615,0.009447,0.001000,0.001000,0.001000,0.001000,0.001000
1016.403846,0.008188,0.001000,0.001000,0.001000,0.001000,0.001000
1016.423077,0.006923,0.001000,0.001000,0.001000,0.001000,0.001000
1016.442308,0.005654,0.001000,0.001000,0.001000,0.001000,0.001000
1016.461538,0.004381,0.001000,0.001000,0.001000,0.001000,0.001000
1016.480769,0.003105,0.001000,0.001000,0.001000,0.001000,0.001000
1016.500000,0.001827,0.001000,0.001000,0.001000,0.001000,0.001000
1016.519231,0.000548,0.001000,0.001000,0.001000,0.001000,0.001000
1016.538462,-0.000731,0.001000,0.001000,0.001000,0.001000,0.001000
1016.557692,-0.002010,0.001000,0.001000,0.001000,0.001000,0.001000
1016.576923,-0.003287,0.001000,0.001000,0.001000,0.001000,0.001000
1016.596154,-0.004563,0.001000,0.001000,0.001000,0.001000,0.001000
1016.615385,-0.005835,0.001000,0.001000,0.001000,0.001000,0.001000
1016.634615,-0.007104,0.001000,0.001000,0.001000,0.001000,0.001000
1016.653846,-0.008368,0.001000,0.001000,0.001000,0.001000,0.001000
1016.673077,-0.009626,0.001000,0.001000,0.001000,0.001000,0.001000
1016.692308,-0.010878,0.001000,0.001000,0.001000,0.001000,0.001000
1016.711538,-0.012124,0.001000,0.001000,0.001000,0.001000,0.001000
1016.730769,-0.013361,0.001000,0.001000,0.001000,0.001000,0.001000
1016.750000,-0.014589,0.001000,0.001000,0.001000,0.001000,0.001000
1016.769231,-0.015808,0.001000,0.001000,0.001000,0.001000,0.001000
1016.788462,-0.017016,0.001000,0.001000,0.001000,0.001000,0.001000
1016.807692,-0.018214,0.001000,0.001000,0.001000,0.001000,0.001000
1016.826923,-0.019399,0.001000,0.001000,0.001000,0.001000,0.001000
1016.846154,-0.020572,0.001000,0.001000,0.001000,0.001000,0.001000
1016.865385,-0.021731,0.001000,0.001000,0.001000,0.001000,0.001000
1016.884615,-0.022876,0.001000,0.001000,0.001000,0.001000,0.001000
1016.903846,-0.024006,0.001000,0.001000,0.001000,0.001000,0.001000
1016.923077,-0.025120,0.001000,0.001000,0.001000,0.001000,0.001000
1016.942308,-0.026218,0.001000,0.001000,0.001000,0.001000,0.001000
1016.961538,-0.027299,0.001000,0.001000,0.001000,0.001000,0.001000
1016.980769,-0.028362,0.001000,0.001000,0.001000,0.001000,0.001000
1017.000000,-0.029406,0.001000,0.001000,0.001000,0.001000,0.001000
1017.019231,-0.030431,0.001000,0.001000,0.001000,0.001000,0.001000
1017.038462,-0.031436,0.001000,0.001000,0.001000,0.001000,0.001000
1017.057692,-0.032421,0.001000,0.001000,0.001000,0.001000,0.001000
1017.076923,-0.033384,0.001000,0.001000,0.001000,0.001000,0.001000
1017.096154,-0.034325,0.001000,0.001000,0.001000,0.001000,0.001000
1017.115385,-0.035244,0.001000,0.001000,0.001000,0.001000,0.001000
1017.134615,-0.036140,0.001000,0.001000,0.001000,0.001000,0.001000
1017.153846,-0.037012,0.001000,0.001000,0.001000,0.001000,0.001000
1017.173077,-0.037860,0.001000,0.001000,0.001000,0.001000,0.001000
1017.192308,-0.038684,0.001000,0.001000,0.001000,0.001000,0.001000
1017.211538,-0.039481,0.001000,0.001000,0.001000,0.001000,0.001000
1017.230769,-0.040253,0.001000,0.001000,0.001000,0.001000,0.001000
1017.250000,-0.040999,0.001000,0.001000,0.001000,0.001000,0.001000
1017.269231,-0.041718,0.001000,0.001000,0.001000,0.001000,0.001000
1017.288462,-0.042409,0.001000,0.001000,0.001000,0.001000,0.001000
1017.307692,-0.043073,0.001000,0.001000,0.001000,0.001000,0.001000
1017.326923,-0.043709,0.001000,0.001000,0.001000,0.001000,0.001000
1017.346154,-0.044316,0.001000,0.001000,0.001000,0.001000,0.001000
1017.365385,-0.044893,0.001000,0.001000,0.001000,0.001000,0.001000
1017.384615,-0.045442,0.001000,0.001000,0.001000,0.001000,0.001000
1017.403846,-0.045961,0.001000,0.001000,0.001000,0.001000,0.001000
1017.423077,-0.046449,0.001000,0.001000,0.001000,0.001000,0.001000
1017.442308,-0.046908,0.001000,0.001000,0.001000,0.001000,0.001000
1017.461538,-0.047335,0.001000,0.001000,0.001000,0.001000,0.001000
1017.480769,-0.047732,0.001000,0.001000,0.001000,0.001000,0.001000
1017.500000,-0.048097,0.001000,0.001000,0.001000,0.001000,0.001000
1017.519231,-0.048431,0.001000,0.001000,0.001000,0.001000,0.001000
1017.538462,-0.048733,0.001000,0.001000,0.001000,0.001000,0.001000
1017.557692,-0.049003,0.001000,0.001000,0.001000,0.001000,0.001000
1017.576923,-0.049241,0.001000,0.001000,0.001000,0.001000,0.001000
1017.596154,-0.049447,0.001000,0.001000,0.001000,0.001000,0.001000
1017.615385,-0.049621,0.001000,0.001000,0.001000,0.001000,0.001000
1017.634615,-0.049762,0.001000,0.001000,0.001000,0.001000,0.001000
1017.653846,-0.049870,0.001000,0.001000,0.001000,0.001000,0.001000
1017.673077,-0.049946,0.001000,0.001000,0.001000,0.001000,0.001000
1017.692308,-0.049989,0.001000,0.001000,0.001000,0.001000,0.001000
1017.711538,-0.049999,0.001000,0.001000,0.001000,0.001000,0.001000
1017.730769,-0.049977,0.001000,0.001000,0.001000,0.001000,0.001000
1017.750000,-0.049922,0.001000,0.001000,0.001000,0.001000,0.001000
1017.769231,-0.049834,0.001000,0.001000,0.001000,0.001000,0.001000
1017.788462,-0.049714,0.001000,0.001000,0.001000,0.001000,0.001000
1017.807692,-0.049561,0.001000,0.001000,0.001000,0.001000,0.001000
1017.826923,-0.049375,0.001000,0.001000,0.001000,0.001000,0.001000
1017.846154,-0.049158,0.001000,0.001000,0.001000,0.001000,0.001000
1017.865385,-0.048908,0.001000,0.001000,0.001000,0.001000,0.001000
1017.884615,-0.048626,0.001000,0.001000,0.001000,0.001000,0.001000
1017.903846,-0.048312,0.001000,0.001000,0.001000,0.001000,0.001000
1017.923077,-0.047967,0.001000,0.001000,0.001000,0.001000,0.001000
1017.942308,-0.047590,0.001000,0.001000,0.001000,0.001000,0.001000
1017.961538,-0.047182,0.001000,0.001000,0.001000,0.001000,0.001000
1017.980769,-0.046743,0.001000,0.001000,0.001000,0.001000,0.001000
1018.000000,-0.046274,0.001000,0.001000,0.001000,0.001000,0.001000
1018.019231,-0.045774,0.001000,0.001000,0.001000,0.001000,0.001000
1018.038462,-0.045244,0.001000,0.001000,0.001000,0.001000,0.001000
1018.057692,-0.044685,0.001000,0.001000,0.001000,0.001000,0.001000
1018.076923,-0.044096,0.001000,0.001000,0.001000,0.001000,0.001000
1018.096154,-0.043479,0.001000,0.001000,0.001000,0.001000,0.001000
1018.115385,-0.042833,0.001000,0.001000,0.001000,0.001000,0.001000
1018.134615,-0.042159,0.001000,0.001000,0.001000,0.001000,0.001000
1018.153846,-0.041457,0.001000,0.001000,0.001000,0.001000,0.001000
1018.173077,-0.040728,0.001000,0.001000,0.001000,0.001000,0.001000
1018.192308,-0.039973,0.001000,0.001000,0.001000,0.001000,0.001000
1018.211538,-0.039191,0.001000,0.001000,0.001000,0.001000,0.001000
1018.230769,-0.038384,0.001000,0.001000,0.001000,0.001000,0.001000
1018.250000,-0.037552,0.001000,0.001000,0.001000,0.001000,0.001000
1018.269231,-0.036695,0.001000,0.001000,0.001000,0.001000,0.001000
1018.288462,-0.035814,0.001000,0.001000,0.001000,0.001000,0.001000
1018.307692,-0.034910,0.001000,0.001000,0.001000,0.001000,0.001000
1018.326923,-0.033982,0.001000,0.001000,0.001000,0.001000,0.001000
1018.346154,-0.033033,0.001000,0.001000,0.001000,0.001000,0.001000
1018.365385,-0.032062,0.001000,0.001000,0.001000,0.001000,0.001000
1018.384615,-0.031070,0.001000,0.001000,0.001000,0.001000,0.001000
1018.403846,-0.030057,0.001000,0.001000,0.001000,0.001000,0.001000
1018.423077,-0.029025,0.001000,0.001000,0.001000,0.001000,0.001000
1018.442308,-0.027974,0.001000,0.001000,0.001000,0.001000,0.001000
1018.461538,-0.026904,0.001000,0.001000,0.001000,0.001000,0.001000
1018.480769,-0.025817,0.001000,0.001000,0.001000,0.001000,0.001000
1018.500000,-0.024713,0.001000,0.001000,0.001000,0.001000,0.001000
1018.519231,-0.023593,0.001000,0.001000,0.001000,0.001000,0.001000
1018.538462,-0.022457,0.001000,0.001000,0.001000,0.001000,0.001000
1018.557692,-0.021307,0.001000,0.001000,0.001000,0.001000,0.001000
1018.576923,-0.020143,0.001000,0.001000,0.001000,0.001000,0.001000
1018.596154,-0.018965,0.001000,0.001000,0.001000,0.001000,0.001000
1018.615385,-0.017775,0.001000,0.001000,0.001000,0.001000,0.001000
1018.634615,-0.016574,0.001000,0.001000,0.001000,0.001000,0.001000
1018.653846,-0.015362,0.001000,0.001000,0.001000,0.001000,0.001000
1018.673077,-0.014139,0.001000,0.001000,0.001000,0.001000,0.001000
1018.692308,-0.012907,0.001000,0.001000,0.001000,0.001000,0.001000
1018.711538,-0.011667,0.001000,0.001000,0.001000,0.001000,0.001000
1018.730769,-0.010420,0.001000,0.001000,0.001000,0.001000,0.001000
1018.750000,-0.009165,0.001000,0.001000,0.001000,0.001000,0.001000
1018.769231,-0.007904,0.001000,0.001000,0.001000,0.001000,0.001000
1018.788462,-0.006639,0.001000,0.001000,0.001000,0.001000,0.001000
1018.807692,-0.005369,0.001000,0.001000,0.001000,0.001000,0.001000
1018.826923,-0.004095,0.001000,0.001000,0.001000,0.001000,0.001000
1018.846154,-0.002819,0.001000,0.001000,0.001000,0.001000,0.001000
1018.865385,-0.001540,0.001000,0.001000,0.001000,0.001000,0.001000
1018.884615,-0.000261,0.001000,0.001000,0.001000,0.001000,0.001000
1018.903846,0.001018,0.001000,0.001000,0.001000,0.001000,0.001000
1018.923077,0.002297,0.001000,0.001000,0.001000,0.001000,0.001000
1018.942308,0.003574,0.001000,0.001000,0.001000,0.001000,0.001000
1018.961538,0.004849,0.001000,0.001000,0.001000,0.001000,0.001000
1018.980769,0.006120,0.001000,0.001000,0.001000,0.001000,0.001000
1019.000000,0.007388,0.001000,0.001000,0.001000,0.001000,0.001000
1019.019231,0.008651,0.001000,0.001000,0.001000,0.001000,0.001000
1019.038462,0.009908,0.001000,0.001000,0.001000,0.001000,0.001000
1019.057692,0.011159,0.001000,0.001000,0.001000,0.001000,0.001000
1019.076923,0.012402,0.001000,0.001000,0.001000,0.001000,0.001000
1019.096154,0.013637,0.001000,0.001000,0.001000,0.001000,0.001000
1019.115385,0.014863,0.001000,0.001000,0.001000,0.001000,0.001000
1019.134615,0.016080,0.001000,0.001000,0.001000,0.001000,0.001000
1019.153846,0.017286,0.001000,0.001000,0.001000,0.001000,0.001000
1019.173077,0.018481,0.001000,0.001000,0.001000,0.001000,0.001000
1019.192308,0.019663,0.001000,0.001000,0.001000,0.001000,0.001000
1019.211538,0.020833,0.001000,0.001000,0.001000,0.001000,0.001000
1019.230769,0.021989,0.001000,0.001000,0.001000,0.001000,0.001000
1019.250000,0.023131,0.001000,0.001000,0.001000,0.001000,0.001000
1019.269231,0.024258,0.001000,0.001000,0.001000,0.001000,0.001000
1019.288462,0.025368,0.001000,0.001000,0.001000,0.001000,0.001000
1019.307692,0.026462,0.001000,0.001000,0.001000,0.001000,0.001000
1019.326923,0.027539,0.001000,0.001000,0.001000,0.001000,0.001000
1019.346154,0.028598,0.001000,0.001000,0.001000,0.001000,0.001000
1019.365385,0.029638,0.001000,0.001000,0.001000,0.001000,0.001000
1019.384615,0.030658,0.001000,0.001000,0.001000,0.001000,0.001000
1019.403846,0.031659,0.001000,0.001000,0.001000,0.001000,0.001000
1019.423077,0.032639,0.001000,0.001000,0.001000,0.001000,0.001000
1019.442308,0.033597,0.001000,0.001000,0.001000,0.001000,0.001000
1019.461538,0.034534,0.001000,0.001000,0.001000,0.001000,0.001000
1019.480769,0.035447,0.001000,0.001000,0.001000,0.001000,0.001000
1019.500000,0.036338,0.001000,0.001000,0.001000,0.001000,0.001000
1019.519231,0.037205,0.001000,0.001000,0.001000,0.001000,0.001000
1019.538462,0.038047,0.001000,0.001000,0.001000,0.001000,0.001000
1019.557692,0.038865,0.001000,0.001000,0.001000,0.001000,0.001000
1019.576923,0.039657,0.001000,0.001000,0.001000,0.001000,0.001000
1019.596154,0.040423,0.001000,0.001000,0.001000,0.001000,0.001000
1019.615385,0.041163,0.001000,0.001000,0.001000,0.001000,0.001000
1019.634615,0.041876,0.001000,0.001000,0.001000,0.001000,0.001000
1019.653846,0.042561,0.001000,0.001000,0.001000,0.001000,0.001000
1019.673077,0.043218,0.001000,0.001000,0.001000,0.001000,0.001000
1019.692308,0.043847,0.001000,0.001000,0.001000,0.001000,0.001000
1019.711538,0.044448,0.001000,0.001000,0.001000,0.001000,0.001000
1019.730769,0.045019,0.001000,0.001000,0.001000,0.001000,0.001000
1019.750000,0.045561,0.001000,0.001000,0.001000,0.001000,0.001000
1019.769231,0.046073,0.001000,0.001000,0.001000,0.001000,0.001000
1019.788462,0.046555,0.001000,0.001000,0.001000,0.001000,0.001000
1019.807692,0.047006,0.001000,0.001000,0.001000,0.001000,0.001000
1019.826923,0.047427,0.001000,0.001000,0.001000,0.001000,0.001000
1019.846154,0.047817,0.001000,0.001000,0.001000,0.001000,0.001000
1019.865385,0.048175,0.001000,0.001000,0.001000,0.001000,0.001000
1019.884615,0.048502,0.001000,0.001000,0.001000,0.001000,0.001000
1019.903846,0.048796,0.001000,0.001000,0.001000,0.001000,0.001000
1019.923077,0.049059,0.001000,0.001000,0.001000,0.001000,0.001000
1019.942308,0.049290,0.001000,0.001000,0.001000,0.001000,0.001000
1019.961538,0.049489,0.001000,0.001000,0.001000,0.001000,0.001000
1019.980769,0.049655,0.001000,0.001000,0.001000,0.001000,0.001000
1020.000000,0.049789,0.001000,0.001000,0.001000,0.001000,0.001000
1020.019231,0.049890,0.001000,0.001000,0.001000,0.001000,0.001000
1020.038462,0.049959,0.001000,0.001000,0.001000,0.001000,0.001000
1020.057692,0.049994,0.001000,0.001000,0.001000,0.001000,0.001000
1020.076923,0.049997,0.001000,0.001000,0.001000,0.001000,0.001000
1020.096154,0.049968,0.001000,0.001000,0.001000,0.001000,0.001000
1020.115385,0.049905,0.001000,0.001000,0.001000,0.001000,0.001000
1020.134615,0.049810,0.001000,0.001000,0.001000,0.001000,0.001000
1020.153846,0.049682,0.001000,0.001000,0.001000,0.001000,0.001000
1020.173077,0.049522,0.001000,0.001000,0.001000,0.001000,0.001000
1020.192308,0.049329,0.001000,0.001000,0.001000,0.001000,0.001000
1020.211538,0.049104,0.001000,0.001000,0.001000,0.001000,0.001000
1020.230769,0.048847,0.001000,0.001000,0.001000,0.001000,0.001000
1020.250000,0.048558,0.001000,0.001000,0.001000,0.001000,0.001000
1020.269231,0.048237,0.001000,0.001000,0.001000,0.001000,0.001000
1020.288462,0.047885,0.001000,0.001000,0.001000,0.001000,0.001000
1020.307692,0.047501,0.001000,0.001000,0.001000,0.001000,0.001000
1020.326923,0.047086,0.001000,0.001000,0.001000,0.001000,0.001000
1020.346154,0.046640,0.001000,0.001000,0.001000,0.001000,0.001000
1020.365385,0.046164,0.001000,0.001000,0.001000,0.001000,0.001000
1020.384615,0.045658,0.001000,0.001000,0.001000,0.001000,0.001000
1020.403846,0.045121,0.001000,0.001000,0.001000,0.001000,0.001000
1020.423077,0.044555,0.001000,0.001000,0.001000,0.001000,0.001000
1020.442308,0.043960,0.001000,0.001000,0.001000,0.001000,0.001000
1020.461538,0.043336,0.001000,0.001000,0.001000,0.001000,0.001000
1020.480769,0.042684,0.001000,0.001000,0.001000,0.001000,0.001000
1020.500000,0.042004,0.001000,0.001000,0.001000,0.001000,0.001000
1020.519231,0.041296,0.001000,0.001000,0.001000,0.001000,0.001000
1020.538462,0.040561,0.001000,0.001000,0.001000,0.001000,0.001000
1020.557692,0.039800,0.001000,0.001000,0.001000,0.001000,0.001000
1020.576923,0.039012,0.001000,0.001000,0.001000,0.001000,0.001000
1020.596154,0.038200,0.001000,0.001000,0.001000,0.001000,0.001000
1020.615385,0.037362,0.001000,0.001000,0.001000,0.001000,0.001000
1020.634615,0.036499,0.001000,0.001000,0.001000,0.001000,0.001000
1020.653846,0.035613,0.001000,0.001000,0.001000,0.001000,0.001000
1020.673077,0.034703,0.001000,0.001000,0.001000,0.001000,0.001000
1020.692308,0.033771,0.001000,0.001000,0.001000,0.001000,0.001000
1020.711538,0.032817,0.001000,0.001000,0.001000,0.001000,0.001000
1020.730769,0.031841,0.001000,0.001000,0.001000,0.001000,0.001000
1020.750000,0.030844,0.001000,0.001000,0.001000,0.001000,0.001000
1020.769231,0.029827,0.001000,0.001000,0.001000,0.001000,0.001000
1020.788462,0.028791,0.001000,0.001000,0.001000,0.001000,0.001000
1020.807692,0.027735,0.001000,0.001000,0.001000,0.001000,0.001000
1020.826923,0.026662,0.001000,0.001000,0.001000,0.001000,0.001000
1020.846154,0.025571,0.001000,0.001000,0.001000,0.001000,0.001000
1020.865385,0.024463,0.001000,0.001000,0.001000,0.001000,0.001000
1020.884615,0.023339,0.001000,0.001000,0.001000,0.001000,0.001000
1020.903846,0.022200,0.001000,0.001000,0.001000,0.001000,0.001000
1020.923077,0.021047,0.001000,0.001000,0.001000,0.001000,0.001000
1020.942308,0.019880,0.001000,0.001000,0.001000,0.001000,0.001000
1020.961538,0.018699,0.001000,0.001000,0.001000,0.001000,0.001000
1020.980769,0.017507,0.001000,0.001000,0.001000,0.001000,0.001000
1021.000000,0.016303,0.001000,0.001000,0.001000,0.001000,0.001000
1021.019231,0.015088,0.001000,0.001000,0.001000,0.001000,0.001000
1021.038462,0.013863,0.001000,0.001000,0.001000,0.001000,0.001000
1021.057692,0.012630,0.001000,0.001000,0.001000,0.001000,0.001000
1021.076923,0.011388,0.001000,0.001000,0.001000,0.001000,0.001000
1021.096154,0.010139,0.001000,0.001000,0.001000,0.001000,0.001000
1021.115385,0.008883,0.001000,0.001000,0.001000,0.001000,0.001000
1021.134615,0.007621,0.001000,0.001000,0.001000,0.001000,0.001000
1021.153846,0.006354,0.001000,0.001000,0.001000,0.001000,0.001000
1021.173077,0.005083,0.001000,0.001000,0.001000,0.001000,0.001000
1021.192308,0.003809,0.001000,0.001000,0.001000,0.001000,0.001000
1021.211538,0.002532,0.001000,0.001000,0.001000,0.001000,0.001000
1021.230769,0.001253,0.001000,0.001000,0.001000,0.001000,0.001000
1021.250000,-0.000026,0.001000,0.001000,0.001000,0.001000,0.001000
1021.269231,-0.001305,0.001000,0.001000,0.001000,0.001000,0.001000
1021.288462,-0.002584,0.001000,0.001000,0.001000,0.001000,0.001000
1021.307692,-0.003860,0.001000,0.001000,0.001000,0.001000,0.001000
1021.326923,-0.005134,0.001000,0.001000,0.001000,0.001000,0.001000
1021.346154,-0.006405,0.001000,0.001000,0.001000,0.001000,0.001000
1021.365385,-0.007672,0.001000,0.001000,0.001000,0.001000,0.001000
1021.384615,-0.008934,0.001000,0.001000,0.001000,0.001000,0.001000
1021.403846,-0.010189,0.001000,0.001000,0.001000,0.001000,0.001000
1021.423077,-0.011438,0.001000,0.001000,0.001000,0.001000,0.001000
1021.442308,-0.012680,0.001000,0.001000,0.001000,0.001000,0.001000
1021.461538,-0.013913,0.001000,0.001000,0.001000,0.001000,0.001000
1021.480769,-0.015137,0.001000,0.001000,0.001000,0.001000,0.001000
1021.500000,-0.016352,0.001000,0.001000,0.001000,0.001000,0.001000
1021.519231,-0.017555,0.001000,0.001000,0.001000,0.001000,0.001000
1021.538462,-0.018747,0.001000,0.001000,0.001000,0.001000,0.001000
1021.557692,-0.019927,0.001000,0.001000,0.001000,0.001000,0.001000
1021.576923,-0.021094,0.001000,0.001000,0.001000,0.001000,0.001000
1021.596154,-0.022247,0.001000,0.001000,0.001000,0.001000,0.001000
1021.615385,-0.023385,0.001000,0.001000,0.001000,0.001000,0.001000
1021.634615,-0.024508,0.001000,0.001000,0.001000,0.001000,0.001000
1021.653846,-0.025615,0.001000,0.001000,0.001000,0.001000,0.001000
1021.673077,-0.026706,0.001000,0.001000,0.001000,0.001000,0.001000
1021.692308,-0.027778,0.001000,0.001000,0.001000,0.001000,0.001000
1021.711538,-0.028833,0.001000,0.001000,0.001000,0.001000,0.001000
1021.730769,-0.029869,0.001000,0.001000,0.001000,0.001000,0.001000
1021.750000,-0.030885,0.001000,0.001000,0.001000,0.001000,0.001000
1021.769231,-0.031881,0.001000,0.001000,0.001000,0.001000,0.001000
1021.788462,-0.032856,0.001000,0.001000,0.001000,0.001000,0.001000
1021.807692,-0.033809,0.001000,0.001000,0.001000,0.001000,0.001000
1021.826923,-0.034741,0.001000,0.001000,0.001000,0.001000,0.001000
1021.846154,-0.035649,0.001000,0.001000,0.001000,0.001000,0.001000
1021.865385,-0.036535,0.001000,0.001000,0.001000,0.001000,0.001000
1021.884615,-0.037396,0.001000,0.001000,0.001000,0.001000,0.001000
1021.903846,-0.038233,0.001000,0.001000,0.001000,0.001000,0.001000
1021.923077,-0.039045,0.001000,0.001000,0.001000,0.001000,0.001000
1021.942308,-0.039831,0.001000,0.001000,0.001000,0.001000,0.001000
1021.961538,-0.040591,0.001000,0.001000,0.001000,0.001000,0.001000
1021.980769,-0.041325,0.001000,0.001000,0.001000,0.001000,0.001000
1022.000000,-0.042032,0.001000,0.001000,0.001000,0.001000,0.001000
1022.019231,-0.042711,0.001000,0.001000,0.001000,0.001000,0.001000
1022.038462,-0.043362,0.001000,0.001000,0.001000,0.001000,0.001000
1022.057692,-0.043985,0.001000,0.001000,0.001000,0.001000,0.001000
1022.076923,-0.044579,0.001000,0.001000,0.001000,0.001000,0.001000
1022.096154,-0.045143,0.001000,0.001000,0.001000,0.001000,0.001000
1022.115385,-0.045679,0.001000,0.001000,0.001000,0.001000,0.001000
1022.134615,-0.046184,0.001000,0.001000,0.001000,0.001000,0.001000
1022.153846,-0.046659,0.001000,0.001000,0.001000,0.001000,0.001000
1022.173077,-0.047103,0.001000,0.001000,0.001000,0.001000,0.001000
1022.192308,-0.047517,0.001000,0.001000,0.001000,0.001000,0.001000
1022.211538,-0.047900,0.001000,0.001000,0.001000,0.001000,0.001000
1022.230769,-0.048251,0.001000,0.001000,0.001000,0.001000,0.001000
1022.250000,-0.048571,0.001000,0.001000,0.001000,0.001000,0.001000
1022.269231,-0.048858,0.001000,0.001000,0.001000,0.001000,0.001000
1022.288462,-0.049114,0.001000,0.001000,0.001000,0.001000,0.001000
1022.307692,-0.049338,0.001000,0.001000,0.001000,0.001000,0.001000
1022.326923,-0.049529,0.001000,0.001000,0.001000,0.001000,0.001000
1022.346154,-0.049688,0.001000,0.001000,0.001000,0.001000,0.001000
1022.365385,-0.049814,0.001000,0.001000,0.001000,0.001000,0.001000
1022.384615,-0.049908,0.001000,0.001000,0.001000,0.001000,0.001000
1022.403846,-0.049969,0.001000,0.001000,0.001000,0.001000,0.001000
1022.423077,-0.049998,0.001000,0.001000,0.001000,0.001000,0.001000
1022.442308,-0.049993,0.001000,0.001000,0.001000,0.001000,0.001000
1022.461538,-0.049956,0.001000,0.001000,0.001000,0.001000,0.001000
1022.480769,-0.049887,0.001000,0.001000,0.001000,0.001000,0.001000
1022.500000,-0.049784,0.001000,0.001000,0.001000,0.001000,0.001000
1022.519231,-0.049649,0.001000,0.001000,0.001000,0.001000,0.001000
1022.538462,-0.049482,0.001000,0.001000,0.001000,0.001000,0.001000
1022.557692,-0.049282,0.001000,0.001000,0.001000,0.001000,0.001000
1022.576923,-0.049049,0.001000,0.001000,0.001000,0.001000,0.001000
1022.596154,-0.048785,0.001000,0.001000,0.001000,0.001000,0.001000
1022.615385,-0.048489,0.001000,0.001000,0.001000,0.001000,0.001000
1022.634615,-0.048161,0.001000,0.001000,0.001000,0.001000,0.001000
1022.653846,-0.047801,0.001000,0.001000,0.001000,0.001000,0.001000
1022.673077,-0.047411,0.001000,0.001000,0.001000,0.001000,0.001000
1022.692308,-0.046989,0.001000,0.001000,0.001000,0.001000,0.001000
1022.711538,-0.046536,0.001000,0.001000,0.001000,0.001000,0.001000
1022.730769,-0.046053,0.001000,0.001000,0.001000,0.001000,0.001000
1022.750000,-0.045540,0.001000,0.001000,0.001000,0.001000,0.001000
1022.769231,-0.044997,0.001000,0.001000,0.001000,0.001000,0.001000
1022.788462,-0.044424,0.001000,0.001000,0.001000,0.001000,0.001000
1022.807692,-0.043822,0.001000,0.001000,0.001000,0.001000,0.001000
1022.826923,-0.043192,0.001000,0.001000,0.001000,0.001000,0.001000
1022.846154,-0.042534,0.001000,0.001000,0.001000,0.001000,0.001000
1022.865385,-0.041847,0.001000,0.001000,0.001000,0.001000,0.001000
1022.884615,-0.041133,0.001000,0.001000,0.001000,0.001000,0.001000
1022.903846,-0.040393,0.001000,0.001000,0.001000,0.001000,0.001000
1022.923077,-0.039625,0.001000,0.001000,0.001000,0.001000,0.001000
1022.942308,-0.038832,0.001000,0.001000,0.001000,0.001000,0.001000
1022.961538,-0.038014,0.001000,0.001000,0.001000,0.001000,0.001000
1022.980769,-0.037170,0.001000,0.001000,0.001000,0.001000,0.001000
1023.000000,-0.036302,0.001000,0.001000,0.001000,0.001000,0.001000
1023.019231,-0.035411,0.001000,0.001000,0.001000,0.001000,0.001000
1023.038462,-0.034496,0.001000,0.001000,0.001000,0.001000,0.001000
1023.057692,-0.033559,0.001000,0.001000,0.001000,0.001000,0.001000
1023.076923,-0.032599,0.001000,0.001000,0.001000,0.001000,0.001000
1023.096154,-0.031619,0.001000,0.001000,0.001000,0.001000,0.001000
1023.115385,-0.030617,0.001000,0.001000,0.001000,0.001000,0.001000
1023.134615,-0.029596,0.001000,0.001000,0.001000,0.001000,0.001000
1023.153846,-0.028555,0.001000,0.001000,0.001000,0.001000,0.001000
1023.173077,-0.027496,0.001000,0.001000,0.001000,0.001000,0.001000
1023.192308,-0.026418,0.001000,0.001000,0.001000,0.001000,0.001000
1023.211538,-0.025324,0.001000,0.001000,0.001000,0.001000,0.001000
1023.230769,-0.024212,0.001000,0.001000,0.001000,0.001000,0.001000
1023.250000,-0.023085,0.001000,0.001000,0.001000,0.001000,0.001000
1023.269231,-0.021943,0.001000,0.001000,0.001000,0.001000,0.001000
1023.288462,-0.020786,0.001000,0.001000,0.001000,0.001000,0.001000
1023.307692,-0.019616,0.001000,0.001000,0.001000,0.001000,0.001000
1023.326923,-0.018433,0.001000,0.001000,0.001000,0.001000,0.001000
1023.346154,-0.017237,0.001000,0.001000,0.001000,0.001000,0.001000
1023.365385,-0.016031,0.001000,0.001000,0.001000,0.001000,0.001000
1023.384615,-0.014814,0.001000,0.001000,0.001000,0.001000,0.001000
1023.403846,-0.013587,0.001000,0.001000,0.001000,0.001000,0.001000
1023.423077,-0.012352,0.001000,0.001000,0.001000,0.001000,0.001000
1023.442308,-0.011108,0.001000,0.001000,0.001000,0.001000,0.001000
1023.461538,-0.009857,0.001000,0.001000,0.001000,0.001000,0.001000
1023.480769,-0.008600,0.001000,0.001000,0.001000,0.001000,0.001000
1023.500000,-0.007337,0.001000,0.001000,0.001000,0.001000,0.001000
1023.519231,-0.006069,0.001000,0.001000,0.001000,0.001000,0.001000
1023.538462,-0.004797,0.001000,0.001000,0.001000,0.001000,0.001000
1023.557692,-0.003522,0.001000,0.001000,0.001000,0.001000,0.001000
1023.576923,-0.002245,0.001000,0.001000,0.001000,0.001000,0.001000
1023.596154,-0.000966,0.001000,0.001000,0.001000,0.001000,0.001000
1023.615385,0.000313,0.001000,0.001000,0.001000,0.001000,0.001000
1023.634615,0.001592,0.001000,0.001000,0.001000,0.001000,0.001000
1023.653846,0.002870,0.001000,0.001000,0.001000,0.001000,0.001000
1023.673077,0.004147,0.001000,0.001000,0.001000,0.001000,0.001000
1023.692308,0.005420,0.001000,0.001000,0.001000,0.001000,0.001000
1023.711538,0.006690,0.001000,0.001000,0.001000,0.001000,0.001000
1023.730769,0.007956,0.001000,0.001000,0.001000,0.001000,0.001000
1023.750000,0.009216,0.001000,0.001000,0.001000,0.001000,0.001000
1023.769231,0.010470,0.001000,0.001000,0.001000,0.001000,0.001000
1023.788462,0.011718,0.001000,0.001000,0.001000,0.001000,0.001000
1023.807692,0.012958,0.001000,0.001000,0.001000,0.001000,0.001000
1023.826923,0.014189,0.001000,0.001000,0.001000,0.001000,0.001000
1023.846154,0.015411,0.001000,0.001000,0.001000,0.001000,0.001000
1023.865385,0.016623,0.001000,0.001000,0.001000,0.001000,0.001000
1023.884615,0.017824,0.001000,0.001000,0.001000,0.001000,0.001000
1023.903846,0.019013,0.001000,0.001000,0.001000,0.001000,0.001000
1023.923077,0.020190,0.001000,0.001000,0.001000,0.001000,0.001000
1023.942308,0.021354,0.001000,0.001000,0.001000,0.001000,0.001000
1023.961538,0.022504,0.001000,0.001000,0.001000,0.001000,0.001000
1023.980769,0.023639,0.001000,0.001000,0.001000,0.001000,0.001000
1024.000000,0.024758,0.001000,0.001000,0.001000,0.001000,0.001000
1024.019231,0.025862,0.001000,0.001000,0.001000,0.001000,0.001000
1024.038462,0.026948,0.001000,0.001000,0.001000,0.001000,0.001000
1024.057692,0.028017,0.001000,0.001000,0.001000,0.001000,0.001000
1024.076923,0.029067,0.001000,0.001000,0.001000,0.001000,0.001000
1024.096154,0.030098,0.001000,0.001000,0.001000,0.001000,0.001000
1024.115385,0.031110,0.001000,0.001000,0.001000,0.001000,0.001000
1024.134615,0.032101,0.001000,0.001000,0.001000,0.001000,0.001000
1024.153846,0.033072,0.001000,0.001000,0.001000,0.001000,0.001000
1024.173077,0.034020,0.001000,0.001000,0.001000,0.001000,0.001000
1024.192308,0.034947,0.001000,0.001000,0.001000,0.001000,0.001000
1024.211538,0.035850,0.001000,0.001000,0.001000,0.001000,0.001000
1024.230769,0.036730,0.001000,0.001000,0.001000,0.001000,0.001000
1024.250000,0.037586,0.001000,0.001000,0.001000,0.001000,0.001000
1024.269231,0.038417,0.001000,0.001000,0.001000,0.001000,0.001000
1024.288462,0.039224,0.001000,0.001000,0.001000,0.001000,0.001000
1024.307692,0.040004,0.001000,0.001000,0.001000,0.001000,0.001000
1024.326923,0.040758,0.001000,0.001000,0.001000,0.001000,0.001000
1024.346154,0.041486,0.001000,0.001000,0.001000,0.001000,0.001000
1024.365385,0.042187,0.001000,0.001000,0.001000,0.001000,0.001000
1024.384615,0.042859,0.001000,0.001000,0.001000,0.001000,0.001000
1024.403846,0.043504,0.001000,0.001000,0.001000,0.001000,0.001000
1024.423077,0.044121,0.001000,0.001000,0.001000,0.001000,0.001000
1024.442308,0.044708,0.001000,0.001000,0.001000,0.001000,0.001000
1024.461538,0.045266,0.001000,0.001000,0.001000,0.001000,0.001000
1024.480769,0.045795,0.001000,0.001000,0.001000,0.001000,0.001000
1024.500000,0.046293,0.001000,0.001000,0.001000,0.001000,0.001000
1024.519231,0.046761,0.001000,0.001000,0.001000,0.001000,0.001000
1024.538462,0.047199,0.001000,0.001000,0.001000,0.001000,0.001000
1024.557692,0.047606,0.001000,0.001000,0.001000,0.001000,0.001000
1024.576923,0.047981,0.001000,0.001000,0.001000,0.001000,0.001000
1024.596154,0.048325,0.001000,0.001000,0.001000,0.001000,0.001000
1024.615385,0.048638,0.001000,0.001000,0.001000,0.001000,0.001000
1024.634615,0.048919,0.001000,0.001000,0.001000,0.001000,0.001000
1024.653846,0.049167,0.001000,0.001000,0.001000,0.001000,0.001000
1024.673077,0.049384,0.001000,0.001000,0.001000,0.001000,0.001000
1024.692308,0.049568,0.001000,0.001000,0.001000,0.001000,0.001000
1024.711538,0.049719,0.001000,0.001000,0.001000,0.001000,0.001000
1024.730769,0.049838,0.001000,0.001000,0.001000,0.001000,0.001000
1024.750000,0.049925,0.001000,0.001000,0.001000,0.001000,0.001000
1024.769231,0.049979,0.001000,0.001000,0.001000,0.001000,0.001000
1024.788462,0.050000,0.001000,0.001000,0.001000,0.001000,0.001000
1024.807692,0.049988,0.001000,0.001000,0.001000,0.001000,0.001000
1024.826923,0.049944,0.001000,0.001000,0.001000,0.001000,0.001000
1024.846154,0.049866,0.001000,0.001000,0.001000,0.001000,0.001000
1024.865385,0.049757,0.001000,0.001000,0.001000,0.001000,0.001000
1024.884615,0.049614,0.001000,0.001000,0.001000,0.001000,0.001000
1024.903846,0.049440,0.001000,0.001000,0.001000,0.001000,0.001000
1024.923077,0.049232,0.001000,0.001000,0.001000,0.001000,0.001000
1024.942308,0.048993,0.001000,0.001000,0.001000,0.001000,0.001000
1024.961538,0.048721,0.001000,0.001000,0.001000,0.001000,0.001000
1024.980769,0.048418,0.001000,0.001000,0.001000,0.001000,0.001000
1025.000000,0.048083,0.001000,0.001000,0.001000,0.001000,0.001000
1025.019231,0.047716,0.001000,0.001000,0.001000,0.001000,0.001000
1025.038462,0.047319,0.001000,0.001000,0.001000,0.001000,0.001000
1025.057692,0.046890,0.001000,0.001000,0.001000,0.001000,0.001000
1025.076923,0.046430,0.001000,0.001000,0.001000,0.001000,0.001000
1025.096154,0.045940,0.001000,0.001000,0.001000,0.001000,0.001000
1025.115385,0.045420,0.001000,0.001000,0.001000,0.001000,0.001000
1025.134615,0.044871,0.001000,0.001000,0.001000,0.001000,0.001000
1025.153846,0.044292,0.001000,0.001000,0.001000,0.001000,0.001000
1025.173077,0.043683,0.001000,0.001000,0.001000,0.001000,0.001000
1025.192308,0.043047,0.001000,0.001000,0.001000,0.001000,0.001000
1025.211538,0.042382,0.001000,0.001000,0.001000,0.001000,0.001000
1025.230769,0.041689,0.001000,0.001000,0.001000,0.001000,0.001000
1025.250000,0.040969,0.001000,0.001000,0.001000,0.001000,0.001000
1025.269231,0.040223,0.001000,0.001000,0.001000,0.001000,0.001000
1025.288462,0.039450,0.001000,0.001000,0.001000,0.001000,0.001000
1025.307692,0.038651,0.001000,0.001000,0.001000,0.001000,0.001000
1025.326923,0.037826,0.001000,0.001000,0.001000,0.001000,0.001000
1025.346154,0.036977,0.001000,0.001000,0.001000,0.001000,0.001000
1025.365385,0.036104,0.001000,0.001000,0.001000,0.001000,0.001000
1025.384615,0.035207,0.001000,0.001000,0.001000,0.001000,0.001000
1025.403846,0.034288,0.001000,0.001000,0.001000,0.001000,0.001000
1025.423077,0.033345,0.001000,0.001000,0.001000,0.001000,0.001000
1025.442308,0.032381,0.001000,0.001000,0.001000,0.001000,0.001000
1025.461538,0.031396,0.001000,0.001000,0.001000,0.001000,0.001000
1025.480769,0.030390,0.001000,0.001000,0.001000,0.001000,0.001000
1025.500000,0.029364,0.001000,0.001000,0.001000,0.001000,0.001000
1025.519231,0.028319,0.001000,0.001000,0.001000,0.001000,0.001000
1025.538462,0.027256,0.001000,0.001000,0.001000,0.001000,0.001000
1025.557692,0.026174,0.001000,0.001000,0.001000,0.001000,0.001000
1025.576923,0.025076,0.001000,0.001000,0.001000,0.001000,0.001000
1025.596154,0.023961,0.001000,0.001000,0.001000,0.001000,0.001000
1025.615385,0.022830,0.001000,0.001000,0.001000,0.001000,0.001000
1025.634615,0.021684,0.001000,0.001000,0.001000,0.001000,0.001000
1025.653846,0.020525,0.001000,0.001000,0.001000,0.001000,0.001000
1025.673077,0.019351,0.001000,0.001000,0.001000,0.001000,0.001000
1025.692308,0.018165,0.001000,0.001000,0.001000,0.001000,0.001000
1025.711538,0.016968,0.001000,0.001000,0.001000,0.001000,0.001000
1025.730769,0.015759,0.001000,0.001000,0.001000,0.001000,0.001000
1025.750000,0.014539,0.001000,0.001000,0.001000,0.001000,0.001000
1025.769231,0.013311,0.001000,0.001000,0.001000,0.001000,0.001000
1025.788462,0.012073,0.001000,0.001000,0.001000,0.001000,0.001000
1025.807692,0.010828,0.001000,0.001000,0.001000,0.001000,0.001000
1025.826923,0.009575,0.001000,0.001000,0.001000,0.001000,0.001000
1025.846154,0.008317,0.001000,0.001000,0.001000,0.001000,0.001000
1025.865385,0.007053,0.001000,0.001000,0.001000,0.001000,0.001000
1025.884615,0.005784,0.001000,0.001000,0.001000,0.001000,0.001000
1025.903846,0.004511,0.001000,0.001000,0.001000,0.001000,0.001000
1025.923077,0.003236,0.001000,0.001000,0.001000,0.001000,0.001000
1025.942308,0.001958,0.001000,0.001000,0.001000,0.001000,0.001000
1025.961538,0.000679,0.001000,0.001000,0.001000,0.001000,0.001000
1025.980769,-0.000600,0.001000,0.001000,0.001000,0.001000,0.001000
1026.000000,-0.001879,0.001000,0.001000,0.001000,0.001000,0.001000
1026.019231,-0.003157,0.001000,0.001000,0.001000,0.001000,0.001000
1026.038462,-0.004433,0.001000,0.001000,0.001000,0.001000,0.001000
1026.057692,-0.005705,0.001000,0.001000,0.001000,0.001000,0.001000
1026.076923,-0.006975,0.001000,0.001000,0.001000,0.001000,0.001000
1026.096154,-0.008239,0.001000,0.001000,0.001000,0.001000,0.001000
1026.115385,-0.009498,0.001000,0.001000,0.001000,0.001000,0.001000
1026.134615,-0.010751,0.001000,0.001000,0.001000,0.001000,0.001000
1026.153846,-0.011997,0.001000,0.001000,0.001000,0.001000,0.001000
1026.173077,-0.013235,0.001000,0.001000,0.001000,0.001000,0.001000
1026.192308,-0.014464,0.001000,0.001000,0.001000,0.001000,0.001000
1026.211538,-0.015684,0.001000,0.001000,0.001000,0.001000,0.001000
1026.230769,-0.016893,0.001000,0.001000,0.001000,0.001000,0.001000
1026.250000,-0.018092,0.001000,0.001000,0.001000,0.001000,0.001000
1026.269231,-0.019279,0.001000,0.001000,0.001000,0.001000,0.001000
1026.288462,-0.020453,0.001000,0.001000,0.001000,0.001000,0.001000
1026.307692,-0.021613,0.001000,0.001000,0.001000,0.001000,0.001000
1026.326923,-0.022760,0.001000,0.001000,0.001000,0.001000,0.001000
1026.346154,-0.023891,0.001000,0.001000,0.001000,0.001000,0.001000
1026.365385,-0.025007,0.001000,0.001000,0.001000,0.001000,0.001000
1026.384615,-0.026107,0.001000,0.001000,0.001000,0.001000,0.001000
1026.403846,-0.027189,0.001000,0.001000,0.001000,0.001000,0.001000
1026.423077,-0.028254,0.001000,0.001000,0.001000,0.001000,0.001000
1026.442308,-0.029300,0.001000,0.001000,0.001000,0.001000,0.001000
1026.461538,-0.030327,0.001000,0.001000,0.001000,0.001000,0.001000
1026.480769,-0.031334,0.001000,0.001000,0.001000,0.001000,0.001000
1026.500000,-0.032321,0.001000,0.001000,0.001000,0.001000,0.001000
1026.519231,-0.033287,0.001000,0.001000,0.001000,0.001000,0.001000
1026.538462,-0.034230,0.001000,0.001000,0.001000,0.001000,0.001000
1026.557692,-0.035151,0.001000,0.001000,0.001000,0.001000,0.001000
1026.576923,-0.036050,0.001000,0.001000,0.001000,0.001000,0.001000
1026.596154,-0.036924,0.001000,0.001000,0.001000,0.001000,0.001000
1026.615385,-0.037775,0.001000,0.001000,0.001000,0.001000,0.001000
1026.634615,-0.038601,0.001000,0.001000,0.001000,0.001000,0.001000
1026.653846,-0.039401,0.001000,0.001000,0.001000,0.001000,0.001000
1026.673077,-0.040176,0.001000,0.001000,0.001000,0.001000,0.001000
1026.692308,-0.040924,0.001000,0.001000,0.001000,0.001000,0.001000
1026.711538,-0.041646,0.001000,0.001000,0.001000,0.001000,0.001000
1026.730769,-0.042340,0.001000,0.001000,0.001000,0.001000,0.001000
1026.750000,-0.043007,0.001000,0.001000,0.001000,0.001000,0.001000
1026.769231,-0.043645,0.001000,0.001000,0.001000,0.001000,0.001000
1026.788462,-0.044255,0.001000,0.001000,0.001000,0.001000,0.001000
1026.807692,-0.044836,0.001000,0.001000,0.001000,0.001000,0.001000
1026.826923,-0.045387,0.001000,0.001000,0.001000,0.001000,0.001000
1026.846154,-0.045909,0.001000,0.001000,0.001000,0.001000,0.001000
1026.865385,-0.046401,0.001000,0.001000,0.001000,0.001000,0.001000
1026.884615,-0.046862,0.001000,0.001000,0.001000,0.001000,0.001000
1026.903846,-0.047293,0.001000,0.001000,0.001000,0.001000,0.001000
1026.923077,-0.047693,0.001000,0.001000,0.001000,0.001000,0.001000
1026.942308,-0.048061,0.001000,0.001000,0.001000,0.001000,0.001000
1026.961538,-0.048398,0.001000,0.001000,0.001000,0.001000,0.001000
1026.980769,-0.048704,0.001000,0.001000,0.001000,0.001000,0.001000
1027.000000,-0.048977,0.001000,0.001000,0.001000,0.001000,0.001000
1027.019231,-0.049219,0.001000,0.001000,0.001000,0.001000,0.001000
1027.038462,-0.049428,0.001000,0.001000,0.001000,0.001000,0.001000
1027.057692,-0.049605,0.001000,0.001000,0.001000,0.001000,0.001000
1027.076923,-0.049749,0.001000,0.001000,0.001000,0.001000,0.001000
1027.096154,-0.049861,0.001000,0.001000,0.001000,0.001000,0.001000
1027.115385,-0.049940,0.001000,0.001000,0.001000,0.001000,0.001000
1027.134615,-0.049986,0.001000,0.001000,0.001000,0.001000,0.001000
1027.153846,-0.050000,0.001000,0.001000,0.001000,0.001000,0.001000
1027.173077,-0.049981,0.001000,0.001000,0.001000,0.001000,0.001000
1027.192308,-0.049929,0.001000,0.001000,0.001000,0.001000,0.001000
1027.211538,-0.049845,0.001000,0.001000,0.001000,0.001000,0.001000
1027.230769,-0.049728,0.001000,0.001000,0.001000,0.001000,0.001000
1027.250000,-0.049578,0.001000,0.001000,0.001000,0.001000,0.001000
1027.269231,-0.049396,0.001000,0.001000,0.001000,0.001000,0.001000
1027.288462,-0.049181,0.001000,0.001000,0.001000,0.001000,0.001000
1027.307692,-0.048935,0.001000,0.001000,0.001000,0.001000,0.001000
1027.326923,-0.048656,0.001000,0.001000,0.001000,0.001000,0.001000
1027.346154,-0.048346,0.001000,0.001000,0.001000,0.001000,0.001000
1027.365385,-0.048003,0.001000,0.001000,0.001000,0.001000,0.001000
1027.384615,-0.047630,0.001000,0.001000,0.001000,0.001000,0.001000
1027.403846,-0.047225,0.001000,0.001000,0.001000,0.001000,0.001000
1027.423077,-0.046789,0.001000,0.001000,0.001000,0.001000,0.001000
1027.442308,-0.046323,0.001000,0.001000,0.001000,0.001000,0.001000
1027.461538,-0.045826,0.001000,0.001000,0.001000,0.001000,0.001000
1027.480769,-0.045300,0.001000,0.001000,0.001000,0.001000,0.001000
1027.500000,-0.044743,0.001000,0.001000,0.001000,0.001000,0.001000
1027.519231,-0.044158,0.001000,0.001000,0.001000,0.001000,0.001000
1027.538462,-0.043543,0.001000,0.001000,0.001000,0.001000,0.001000
1027.557692,-0.042900,0.001000,0.001000,0.001000,0.001000,0.001000
1027.576923,-0.042229,0.001000,0.001000,0.001000,0.001000,0.001000
1027.596154,-0.041530,0.001000,0.001000,0.001000,0.001000,0.001000
1027.615385,-0.040804,0.001000,0.001000,0.001000,0.001000,0.001000
1027.634615,-0.040051,0.001000,0.001000,0.001000,0.001000,0.001000
1027.653846,-0.039272,0.001000,0.001000,0.001000,0.001000,0.001000
1027.673077,-0.038468,0.001000,0.001000,0.001000,0.001000,0.001000
1027.692308,-0.037638,0.001000,0.001000,0.001000,0.001000,0.001000
1027.711538,-0.036784,0.001000,0.001000,0.001000,0.001000,0.001000
1027.730769,-0.035905,0.001000,0.001000,0.001000,0.001000,0.001000
1027.750000,-0.035003,0.001000,0.001000,0.001000,0.001000,0.001000
1027.769231,-0.034078,0.001000,0.001000,0.001000,0.001000,0.001000
1027.788462,-0.033131,0.001000,0.001000,0.001000,0.001000,0.001000
1027.807692,-0.032162,0.001000,0.001000,0.001000,0.001000,0.001000
1027.826923,-0.031172,0.001000,0.001000,0.001000,0.001000,0.001000
1027.846154,-0.030161,0.001000,0.001000,0.001000,0.001000,0.001000
1027.865385,-0.029131,0.001000,0.001000,0.001000,0.001000,0.001000
1027.884615,-0.028082,0.001000,0.001000,0.001000,0.001000,0.001000
1027.903846,-0.027014,0.001000,0.001000,0.001000,0.001000,0.001000
1027.923077,-0.025929,0.001000,0.001000,0.001000,0.001000,0.001000
1027.942308,-0.024827,0.001000,0.001000,0.001000,0.001000,0.001000
1027.961538,-0.023708,0.001000,0.001000,0.001000,0.001000,0.001000
1027.980769,-0.022574,0.001000,0.001000,0.001000,0.001000,0.001000
1028.000000,-0.021425,0.001000,0.001000,0.001000,0.001000,0.001000
1028.019231,-0.020262,0.001000,0.001000,0.001000,0.001000,0.001000
1028.038462,-0.019086,0.001000,0.001000,0.001000,0.001000,0.001000
1028.057692,-0.017898,0.001000,0.001000,0.001000,0.001000,0.001000
1028.076923,-0.016697,0.001000,0.001000,0.001000,0.001000,0.001000
1028.096154,-0.015486,0.001000,0.001000,0.001000,0.001000,0.001000
1028.115385,-0.014264,0.001000,0.001000,0.001000,0.001000,0.001000
1028.134615,-0.013034,0.001000,0.001000,0.001000,0.001000,0.001000
1028.153846,-0.011794,0.001000,0.001000,0.001000,0.001000,0.001000
1028.173077,-0.010547,0.001000,0.001000,0.001000,0.001000,0.001000
1028.192308,-0.009293,0.001000,0.001000,0.001000,0.001000,0.001000
1028.211538,-0.008033,0.001000,0.001000,0.001000,0.001000,0.001000
1028.230769,-0.006768,0.001000,0.001000,0.001000,0.001000,0.001000
1028.250000,-0.005498,0.001000,0.001000,0.001000,0.001000,0.001000
1028.269231,-0.004225,0.001000,0.001000,0.001000,0.001000,0.001000
1028.288462,-0.002949,0.001000,0.001000,0.001000,0.001000,0.001000
1028.307692,-0.001671,0.001000,0.001000,0.001000,0.001000,0.001000
1028.326923,-0.000392,0.001000,0.001000,0.001000,0.001000,0.001000
1028.346154,0.000887,0.001000,0.001000,0.001000,0.001000,0.001000
1028.365385,0.002166,0.001000,0.001000,0.001000,0.001000,0.001000
1028.384615,0.003444,0.001000,0.001000,0.001000,0.001000,0.001000
1028.403846,0.004719,0.001000,0.001000,0.001000,0.001000,0.001000
1028.423077,0.005991,0.001000,0.001000,0.001000,0.001000,0.001000
1028.442308,0.007259,0.001000,0.001000,0.001000,0.001000,0.001000
1028.461538,0.008522,0.001000,0.001000,0.001000,0.001000,0.001000
1028.480769,0.009780,0.001000,0.001000,0.001000,0.001000,0.001000
1028.500000,0.011031,0.001000,0.001000,0.001000,0.001000,0.001000
1028.519231,0.012275,0.001000,0.001000,0.001000,0.001000,0.001000
1028.538462,0.013511,0.001000,0.001000,0.001000,0.001000,0.001000
1028.557692,0.014739,0.001000,0.001000,0.001000,0.001000,0.001000
1028.576923,0.015956,0.001000,0.001000,0.001000,0.001000,0.001000
1028.596154,0.017163,0.001000,0.001000,0.001000,0.001000,0.001000
1028.615385,0.018359,0.001000,0.001000,0.001000,0.001000,0.001000
1028.634615,0.019543,0.001000,0.001000,0.001000,0.001000,0.001000
1028.653846,0.020714,0.001000,0.001000,0.001000,0.001000,0.001000
1028.673077,0.021872,0.001000,0.001000,0.001000,0.001000,0.001000
1028.692308,0.023015,0.001000,0.001000,0.001000,0.001000,0.001000
1028.711538,0.024143,0.001000,0.001000,0.001000,0.001000,0.001000
1028.730769,0.025256,0.001000,0.001000,0.001000,0.001000,0.001000
1028.750000,0.026351,0.001000,0.001000,0.001000,0.001000,0.001000
1028.769231,0.027430,0.001000,0.001000,0.001000,0.001000,0.001000
1028.788462,0.028491,0.001000,0.001000,0.001000,0.001000,0.001000
1028.807692,0.029533,0.001000,0.001000,0.001000,0.001000,0.001000
1028.826923,0.030555,0.001000,0.001000,0.001000,0.001000,0.001000
1028.846154,0.031558,0.001000,0.001000,0.001000,0.001000,0.001000
1028.865385,0.032540,0.001000,0.001000,0.001000,0.001000,0.001000
1028.884615,0.033500,0.001000,0.001000,0.001000,0.001000,0.001000
1028.903846,0.034439,0.001000,0.001000,0.001000,0.001000,0.001000
1028.923077,0.035355,0.001000,0.001000,0.001000,0.001000,0.001000
1028.942308,0.036248,0.001000,0.001000,0.001000,0.001000,0.001000
1028.961538,0.037117,0.001000,0.001000,0.001000,0.001000,0.001000
1028.980769,0.037962,0.001000,0.001000,0.001000,0.001000,0.001000
1029.000000,0.038783,0.001000,0.001000,0.001000,0.001000,0.001000
1029.019231,0.039577,0.001000,0.001000,0.001000,0.001000,0.001000
1029.038462,0.040346,0.001000,0.001000,0.001000,0.001000,0.001000
1029.057692,0.041088,0.001000,0.001000,0.001000,0.001000,0.001000
1029.076923,0.041804,0.001000,0.001000,0.001000,0.001000,0.001000
1029.096154,0.042492,0.001000,0.001000,0.001000,0.001000,0.001000
1029.115385,0.043152,0.001000,0.001000,0.001000,0.001000,0.001000
1029.134615,0.043784,0.001000,0.001000,0.001000,0.001000,0.001000
1029.153846,0.044388,0.001000,0.001000,0.001000,0.001000,0.001000
1029.173077,0.044962,0.001000,0.001000,0.001000,0.001000,0.001000
1029.192308,0.045507,0.001000,0.001000,0.001000,0.001000,0.001000
1029.211538,0.046022,0.001000,0.001000,0.001000,0.001000,0.001000
1029.230769,0.046507,0.001000,0.001000,0.001000,0.001000,0.001000
1029.250000,0.046962,0.001000,0.001000,0.001000,0.001000,0.001000
1029.269231,0.047385,0.001000,0.001000,0.001000,0.001000,0.001000
1029.288462,0.047778,0.001000,0.001000,0.001000,0.001000,0.001000
1029.307692,0.048140,0.001000,0.001000,0.001000,0.001000,0.001000
1029.326923,0.048470,0.001000,0.001000,0.001000,0.001000,0.001000
1029.346154,0.048768,0.001000,0.001000,0.001000,0.001000,0.001000
1029.365385,0.049034,0.001000,0.001000,0.001000,0.001000,0.001000
1029.384615,0.049268,0.001000,0.001000,0.001000,0.001000,0.001000
1029.403846,0.049470,0.001000,0.001000,0.001000,0.001000,0.001000
1029.423077,0.049640,0.001000,0.001000,0.001000,0.001000,0.001000
1029.442308,0.049777,0.001000,0.001000,0.001000,0.001000,0.001000
1029.461538,0.049881,0.001000,0.001000,0.001000,0.001000,0.001000
1029.480769,0.049953,0.001000,0.001000,0.001000,0.001000,0.001000
1029.500000,0.049992,0.001000,0.001000,0.001000,0.001000,0.001000
1029.519231,0.049998,0.001000,0.001000,0.001000,0.001000,0.001000
1029.538462,0.049972,0.001000,0.001000,0.001000,0.001000,0.001000
1029.557692,0.049913,0.001000,0.001000,0.001000,0.001000,0.001000
1029.576923,0.049821,0.001000,0.001000,0.001000,0.001000,0.001000
1029.596154,0.049697,0.001000,0.001000,0.001000,0.001000,0.001000
1029.615385,0.049540,0.001000,0.001000,0.001000,0.001000,0.001000
1029.634615,0.049351,0.001000,0.001000,0.001000,0.001000,0.001000
1029.653846,0.049129,0.001000,0.001000,0.001000,0.001000,0.001000
1029.673077,0.048875,0.001000,0.001000,0.001000,0.001000,0.001000
1029.692308,0.048589,0.001000,0.001000,0.001000,0.001000,0.001000
1029.711538,0.048271,0.001000,0.001000,0.001000,0.001000,0.001000
1029.730769,0.047922,0.001000,0.001000,0.001000,0.001000,0.001000
1029.750000,0.047542,0.001000,0.001000,0.001000,0.001000,0.001000
1029.769231,0.047130,0.001000,0.001000,0.001000,0.001000,0.001000
1029.788462,0.046687,0.001000,0.001000,0.001000,0.001000,0.001000
1029.807692,0.046214,0.001000,0.001000,0.001000,0.001000,0.001000
1029.826923,0.045711,0.001000,0.001000,0.001000,0.001000,0.001000
1029.846154,0.045177,0.001000,0.001000,0.001000,0.001000,0.001000
1029.865385,0.044614,0.001000,0.001000,0.001000,0.001000,0.001000
1029.884615,0.044022,0.001000,0.001000,0.001000,0.001000,0.001000
1029.903846,0.043401,0.001000,0.001000,0.001000,0.001000,0.001000
1029.923077,0.042752,0.001000,0.001000,0.001000,0.001000,0.001000
1029.942308,0.042074,0.001000,0.001000,0.001000,0.001000,0.001000
1029.961538,0.041369,0.001000,0.001000,0.001000,0.001000,0.001000
1029.980769,0.040637,0.001000,0.001000,0.001000,0.001000,0.001000
1030.000000,0.000000,0.001000,0.001000,0.001000,0.001000,0.001000
1030.019231,0.001305,0.001000,0.001000,0.001000,0.001000,0.001000
1030.038462,0.002610,0.001000,0.001000,0.001000,0.001000,0.001000
1030.057692,0.003913,0.001000,0.001000,0.001000,0.001000,0.001000
1030.076923,0.005213,0.001000,0.001000,0.001000,0.001000,0.001000
1030.096154,0.006510,0.001000,0.001000,0.001000,0.001000,0.001000
1030.115385,0.007802,0.001000,0.001000,0.001000,0.001000,0.001000
1030.134615,0.009089,0.001000,0.001000,0.001000,0.001000,0.001000
1030.153846,0.010369,0.001000,0.001000,0.001000,0.001000,0.001000
1030.173077,0.011643,0.001000,0.001000,0.001000,0.001000,0.001000
1030.192308,0.012909,0.001000,0.001000,0.001000,0.001000,0.001000
1030.211538,0.014165,0.001000,0.001000,0.001000,0.001000,0.001000
1030.230769,0.015413,0.001000,0.001000,0.001000,0.001000,0.001000
1030.250000,0.016649,0.001000,0.001000,0.001000,0.001000,0.001000
1030.269231,0.017875,0.001000,0.001000,0.001000,0.001000,0.001000
1030.288462,0.019088,0.001000,0.001000,0.001000,0.001000,0.001000
1030.307692,0.020288,0.001000,0.001000,0.001000,0.001000,0.001000
1030.326923,0.021474,0.001000,0.001000,0.001000,0.001000,0.001000
1030.346154,0.022646,0.001000,0.001000,0.001000,0.001000,0.001000
1030.365385,0.023802,0.001000,0.001000,0.001000,0.001000,0.001000
1030.384615,0.024942,0.001000,0.001000,0.001000,0.001000,0.001000
1030.403846,0.026065,0.001000,0.001000,0.001000,0.001000,0.001000
1030.423077,0.027170,0.001000,0.001000,0.001000,0.001000,0.001000
1030.442308,0.028257,0.001000,0.001000,0.001000,0.001000,0.001000
1030.461538,0.029324,0.001000,0.001000,0.001000,0.001000,0.001000
1030.480769,0.030371,0.001000,0.001000,0.001000,0.001000,0.001000
1030.500000,0.031398,0.001000,0.001000,0.001000,0.001000,0.001000
1030.519231,0.032403,0.001000,0.001000,0.001000,0.001000,0.001000
1030.538462,0.033387,0.001000,0.001000,0.001000,0.001000,0.001000
1030.557692,0.034347,0.001000,0.001000,0.001000,0.001000,0.001000
1030.576923,0.035284,0.001000,0.001000,0.001000,0.001000,0.001000
1030.596154,0.036197,0.001000,0.001000,0.001000,0.001000,0.001000
1030.615385,0.037085,0.001000,0.001000,0.001000,0.001000,0.001000
1030.634615,0.037948,0.001000,0.001000,0.001000,0.001000,0.001000
1030.653846,0.038785,0.001000,0.001000,0.001000,0.001000,0.001000
1030.673077,0.039596,0.001000,0.001000,0.001000,0.001000,0.001000
1030.692308,0.040380,0.001000,0.001000,0.001000,0.001000,0.001000
1030.711538,0.041136,0.001000,0.001000,0.001000,0.001000,0.001000
1030.730769,0.041864,0.001000,0.001000,0.001000,0.001000,0.001000
1030.750000,0.042563,0.001000,0.001000,0.001000,0.001000,0.001000
1030.769231,0.043234,0.001000,0.001000,0.001000,0.001000,0.001000
1030.788462,0.043875,0.001000,0.001000,0.001000,0.001000,0.001000
1030.807692,0.044486,0.001000,0.001000,0.001000,0.001000,0.001000
1030.826923,0.045067,0.001000,0.001000,0.001000,0.001000,0.001000
1030.846154,0.045617,0.001000,0.001000,0.001000,0.001000,0.001000
1030.865385,0.046136,0.001000,0.001000,0.001000,0.001000,0.001000
1030.884615,0.046623,0.001000,0.001000,0.001000,0.001000,0.001000
1030.903846,0.047079,0.001000,0.001000,0.001000,0.001000,0.001000
1030.923077,0.047503,0.001000,0.001000,0.001000,0.001000,0.001000
1030.942308,0.047894,0.001000,0.001000,0.001000,0.001000,0.001000
1030.961538,0.048253,0.001000,0.001000,0.001000,0.001000,0.001000
1030.980769,0.048578,0.001000,0.001000,0.001000,0.001000,0.001000
1031.000000,0.048871,0.001000,0.001000,0.001000,0.001000,0.001000
1031.019231,0.049130,0.001000,0.001000,0.001000,0.001000,0.001000
1031.038462,0.049356,0.001000,0.001000,0.001000,0.001000,0.001000
1031.057692,0.049548,0.001000,0.001000,0.001000,0.001000,0.001000
1031.076923,0.049706,0.001000,0.001000,0.001000,0.001000,0.001000
1031.096154,0.049830,0.001000,0.001000,0.001000,0.001000,0.001000
1031.115385,0.049921,0.001000,0.001000,0.001000,0.001000,0.001000
1031.134615,0.049977,0.001000,0.001000,0.001000,0.001000,0.001000
1031.153846,0.050000,0.001000,0.001000,0.001000,0.001000,0.001000
1031.173077,0.049988,0.001000,0.001000,0.001000,0.001000,0.001000
1031.192308,0.049942,0.001000,0.001000,0.001000,0.001000,0.001000
1031.211538,0.049862,0.001000,0.001000,0.001000,0.001000,0.001000
1031.230769,0.049748,0.001000,0.001000,0.001000,0.001000,0.001000
1031.250000,0.049600,0.001000,0.001000,0.001000,0.001000,0.001000
1031.269231,0.049419,0.001000,0.001000,0.001000,0.001000,0.001000
1031.288462,0.049203,0.001000,0.001000,0.001000,0.001000,0.001000
1031.307692,0.048954,0.001000,0.001000,0.001000,0.001000,0.001000
1031.326923,0.048672,0.001000,0.001000,0.001000,0.001000,0.001000
1031.346154,0.048357,0.001000,0.001000,0.001000,0.001000,0.001000
1031.365385,0.048008,0.001000,0.001000,0.001000,0.001000,0.001000
1031.384615,0.047627,0.001000,0.001000,0.001000,0.001000,0.001000
1031.403846,0.047213,0.001000,0.001000,0.001000,0.001000,0.001000
1031.423077,0.046767,0.001000,0.001000,0.001000,0.001000,0.001000
1031.442308,0.046290,0.001000,0.001000,0.001000,0.001000,0.001000
1031.461538,0.045780,0.001000,0.001000,0.001000,0.001000,0.001000
1031.480769,0.045240,0.001000,0.001000,0.001000,0.001000,0.001000
1031.500000,0.044669,0.001000,0.001000,0.001000,0.001000,0.001000
1031.519231,0.044067,0.001000,0.001000,0.001000,0.001000,0.001000
1031.538462,0.043435,0.001000,0.001000,0.001000,0.001000,0.001000
1031.557692,0.042773,0.001000,0.001000,0.001000,0.001000,0.001000
1031.576923,0.042083,0.001000,0.001000,0.001000,0.001000,0.001000
1031.596154,0.041363,0.001000,0.001000,0.001000,0.001000,0.001000
1031.615385,0.040616,0.001000,0.001000,0.001000,0.001000,0.001000
1031.634615,0.039841,0.001000,0.001000,0.001000,0.001000,0.001000
1031.653846,0.039038,0.001000,0.001000,0.001000,0.001000,0.001000
1031.673077,0.038209,0.001000,0.001000,0.001000,0.001000,0.001000
1031.692308,0.037354,0.001000,0.001000,0.001000,0.001000,0.001000
1031.711538,0.036474,0.001000,0.001000,0.001000,0.001000,0.001000
1031.730769,0.035568,0.001000,0.001000,0.001000,0.001000,0.001000
1031.750000,0.034639,0.001000,0.001000,0.001000,0.001000,0.001000
1031.769231,0.033685,0.001000,0.001000,0.001000,0.001000,0.001000
1031.788462,0.032709,0.001000,0.001000,0.001000,0.001000,0.001000
1031.807692,0.031711,0.001000,0.001000,0.001000,0.001000,0.001000
1031.826923,0.030690,0.001000,0.001000,0.001000,0.001000,0.001000
1031.846154,0.029649,0.001000,0.001000,0.001000,0.001000,0.001000
1031.865385,0.028588,0.001000,0.001000,0.001000,0.001000,0.001000
1031.884615,0.027507,0.001000,0.001000,0.001000,0.001000,0.001000
1031.903846,0.026408,0.001000,0.001000,0.001000,0.001000,0.001000
1031.923077,0.025290,0.001000,0.001000,0.001000,0.001000,0.001000
1031.942308,0.024155,0.001000,0.001000,0.001000,0.001000,0.001000
1031.961538,0.023004,0.001000,0.001000,0.001000,0.001000,0.001000
1031.980769,0.021837,0.001000,0.001000,0.001000,0.001000,0.001000
1032.000000,0.020655,0.001000,0.001000,0.001000,0.001000,0.001000
1032.019231,0.019459,0.001000,0.001000,0.001000,0.001000,0.001000
1032.038462,0.018250,0.001000,0.001000,0.001000,0.001000,0.001000
1032.057692,0.017029,0.001000,0.001000,0.001000,0.001000,0.001000
1032.076923,0.015795,0.001000,0.001000,0.001000,0.001000,0.001000
1032.096154,0.014551,0.001000,0.001000,0.001000,0.001000,0.001000
1032.115385,0.013297,0.001000,0.001000,0.001000,0.001000,0.001000
1032.134615,0.012034,0.001000,0.001000,0.001000,0.001000,0.001000
1032.153846,0.010763,0.001000,0.001000,0.001000,0.001000,0.001000
1032.173077,0.009485,0.001000,0.001000,0.001000,0.001000,0.001000
1032.192308,0.008199,0.001000,0.001000,0.001000,0.001000,0.001000
1032.211538,0.006909,0.001000,0.001000,0.001000,0.001000,0.001000
1032.230769,0.005614,0.001000,0.001000,0.001000,0.001000,0.001000
1032.250000,0.004314,0.001000,0.001000,0.001000,0.001000,0.001000
1032.269231,0.003012,0.001000,0.001000,0.001000,0.001000,0.001000
1032.288462,0.001708,0.001000,0.001000,0.001000,0.001000,0.001000
1032.307692,0.000403,0.001000,0.001000,0.001000,0.001000,0.001000
1032.326923,-0.000903,0.001000,0.001000,0.001000,0.001000,0.001000
1032.346154,-0.002208,0.001000,0.001000,0.001000,0.001000,0.001000
1032.365385,-0.003511,0.001000,0.001000,0.001000,0.001000,0.001000
1032.384615,-0.004812,0.001000,0.001000,0.001000,0.001000,0.001000
1032.403846,-0.006110,0.001000,0.001000,0.001000,0.001000,0.001000
1032.423077,-0.007404,0.001000,0.001000,0.001000,0.001000,0.001000
1032.442308,-0.008692,0.001000,0.001000,0.001000,0.001000,0.001000
1032.461538,-0.009975,0.001000,0.001000,0.001000,0.001000,0.001000
1032.480769,-0.011251,0.001000,0.001000,0.001000,0.001000,0.001000
1032.500000,-0.012519,0.001000,0.001000,0.001000,0.001000,0.001000
1032.519231,-0.013779,0.001000,0.001000,0.001000,0.001000,0.001000
1032.538462,-0.015029,0.001000,0.001000,0.001000,0.001000,0.001000
1032.557692,-0.016269,0.001000,0.001000,0.001000,0.001000,0.001000
1032.576923,-0.017498,0.001000,0.001000,0.001000,0.001000,0.001000
1032.596154,-0.018715,0.001000,0.001000,0.001000,0.001000,0.001000
1032.615385,-0.019919,0.001000,0.001000,0.001000,0.001000,0.001000
1032.634615,-0.021110,0.001000,0.001000,0.001000,0.001000,0.001000
1032.653846,-0.022286,0.001000,0.001000,0.001000,0.001000,0.001000
1032.673077,-0.023447,0.001000,0.001000,0.001000,0.001000,0.001000
1032.692308,-0.024592,0.001000,0.001000,0.001000,0.001000,0.001000
1032.711538,-0.025720,0.001000,0.001000,0.001000,0.001000,0.001000
1032.730769,-0.026831,0.001000,0.001000,0.001000,0.001000,0.001000
1032.750000,-0.027923,0.001000,0.001000,0.001000,0.001000,0.001000
1032.769231,-0.028997,0.001000,0.001000,0.001000,0.001000,0.001000
1032.788462,-0.030050,0.001000,0.001000,0.001000,0.001000,0.001000
1032.807692,-0.031084,0.001000,0.001000,0.001000,0.001000,0.001000
1032.826923,-0.032096,0.001000,0.001000,0.001000,0.001000,0.001000
1032.846154,-0.033086,0.001000,0.001000,0.001000,0.001000,0.001000
1032.865385,-0.034053,0.001000,0.001000,0.001000,0.001000,0.001000
1032.884615,-0.034997,0.001000,0.001000,0.001000,0.001000,0.001000
1032.903846,-0.035918,0.001000,0.001000,0.001000,0.001000,0.001000
1032.923077,-0.036814,0.001000,0.001000,0.001000,0.001000,0.001000
1032.942308,-0.037685,0.001000,0.001000,0.001000,0.001000,0.001000
1032.961538,-0.038530,0.001000,0.001000,0.001000,0.001000,0.001000
1032.980769,-0.039349,0.001000,0.001000,0.001000,0.001000,0.001000
1033.000000,-0.040141,0.001000,0.001000,0.001000,0.001000,0.001000
1033.019231,-0.040905,0.001000,0.001000,0.001000,0.001000,0.001000
1033.038462,-0.041642,0.001000,0.001000,0.001000,0.001000,0.001000
1033.057692,-0.042351,0.001000,0.001000,0.001000,0.001000,0.001000
1033.076923,-0.043030,0.001000,0.001000,0.001000,0.001000,0.001000
1033.096154,-0.043680,0.001000,0.001000,0.001000,0.001000,0.001000
1033.115385,-0.044301,0.001000,0.001000,0.001000,0.001000,0.001000
1033.134615,-0.044891,0.001000,0.001000,0.001000,0.001000,0.001000
1033.153846,-0.045451,0.001000,0.001000,0.001000,0.001000,0.001000
1033.173077,-0.045979,0.001000,0.001000,0.001000,0.001000,0.001000
1033.192308,-0.046476,0.001000,0.001000,0.001000,0.001000,0.001000
1033.211538,-0.046942,0.001000,0.001000,0.001000,0.001000,0.001000
1033.230769,-0.047376,0.001000,0.001000,0.001000,0.001000,0.001000
1033.250000,-0.047777,0.001000,0.001000,0.001000,0.001000,0.001000
1033.269231,-0.048145,0.001000,0.001000,0.001000,0.001000,0.001000
1033.288462,-0.048481,0.001000,0.001000,0.001000,0.001000,0.001000
1033.307692,-0.048784,0.001000,0.001000,0.001000,0.001000,0.001000
1033.326923,-0.049054,0.001000,0.001000,0.001000,0.001000,0.001000
1033.346154,-0.049290,0.001000,0.001000,0.001000,0.001000,0.001000
1033.365385,-0.049492,0.001000,0.001000,0.001000,0.001000,0.001000
1033.384615,-0.049661,0.001000,0.001000,0.001000,0.001000,0.001000
1033.403846,-0.049796,0.001000,0.001000,0.001000,0.001000,0.001000
1033.423077,-0.049897,0.001000,0.001000,0.001000,0.001000,0.001000
1033.442308,-0.049964,0.001000,0.001000,0.001000,0.001000,0.001000
1033.461538,-0.049996,0.001000,0.001000,0.001000,0.001000,0.001000
1033.480769,-0.049995,0.001000,0.001000,0.001000,0.001000,0.001000
1033.500000,-0.049960,0.001000,0.001000,0.001000,0.001000,0.001000
1033.519231,-0.049890,0.001000,0.001000,0.001000,0.001000,0.001000
1033.538462,-0.049787,0.001000,0.001000,0.001000,0.001000,0.001000
1033.557692,-0.049649,0.001000,0.001000,0.001000,0.001000,0.001000
1033.576923,-0.049478,0.001000,0.001000,0.001000,0.001000,0.001000
1033.596154,-0.049273,0.001000,0.001000,0.001000,0.001000,0.001000
1033.615385,-0.049035,0.001000,0.001000,0.001000,0.001000,0.001000
1033.634615,-0.048763,0.001000,0.001000,0.001000,0.001000,0.001000
1033.653846,-0.048457,0.001000,0.001000,0.001000,0.001000,0.001000
1033.673077,-0.048119,0.001000,0.001000,0.001000,0.001000,0.001000
1033.692308,-0.047748,0.001000,0.001000,0.001000,0.001000,0.001000
1033.711538,-0.047344,0.001000,0.001000,0.001000,0.001000,0.001000
1033.730769,-0.046908,0.001000,0.001000,0.001000,0.001000,0.001000
1033.750000,-0.046441,0.001000,0.001000,0.001000,0.001000,0.001000
1033.769231,-0.045941,0.001000,0.001000,0.001000,0.001000,0.001000
1033.788462,-0.045410,0.001000,0.001000,0.001000,0.001000,0.001000
1033.807692,-0.044848,0.001000,0.001000,0.001000,0.001000,0.001000
1033.826923,-0.044256,0.001000,0.001000,0.001000,0.001000,0.001000
1033.846154,-0.043633,0.001000,0.001000,0.001000,0.001000,0.001000
1033.865385,-0.042981,0.001000,0.001000,0.001000,0.001000,0.001000
1033.884615,-0.042299,0.001000,0.001000,0.001000,0.001000,0.001000
1033.903846,-0.041588,0.001000,0.001000,0.001000,0.001000,0.001000
1033.923077,-0.040850,0.001000,0.001000,0.001000,0.001000,0.001000
1033.942308,-0.040083,0.001000,0.001000,0.001000,0.001000,0.001000
1033.961538,-0.039289,0.001000,0.001000,0.001000,0.001000,0.001000
1033.980769,-0.038468,0.001000,0.001000,0.001000,0.001000,0.001000
1034.000000,-0.037621,0.001000,0.001000,0.001000,0.001000,0.001000
1034.019231,-0.036748,0.001000,0.001000,0.001000,0.001000,0.001000
1034.038462,-0.035850,0.001000,0.001000,0.001000,0.001000,0.001000
1034.057692,-0.034928,0.001000,0.001000,0.001000,0.001000,0.001000
1034.076923,-0.033982,0.001000,0.001000,0.001000,0.001000,0.001000
1034.096154,-0.033013,0.001000,0.001000,0.001000,0.001000,0.001000
1034.115385,-0.032021,0.001000,0.001000,0.001000,0.001000,0.001000
1034.134615,-0.031007,0.001000,0.001000,0.001000,0.001000,0.001000
1034.153846,-0.029973,0.001000,0.001000,0.001000,0.001000,0.001000
1034.173077,-0.028918,0.001000,0.001000,0.001000,0.001000,0.001000
1034.192308,-0.027843,0.001000,0.001000,0.001000,0.001000,0.001000
1034.211538,-0.026749,0.001000,0.001000,0.001000,0.001000,0.001000
1034.230769,-0.025637,0.001000,0.001000,0.001000,0.001000,0.001000
1034.250000,-0.024507,0.001000,0.001000,0.001000,0.001000,0.001000
1034.269231,-0.023361,0.001000,0.001000,0.001000,0.001000,0.001000
1034.288462,-0.022199,0.001000,0.001000,0.001000,0.001000,0.001000
1034.307692,-0.021021,0.001000,0.001000,0.001000,0.001000,0.001000
1034.326923,-0.019830,0.001000,0.001000,0.001000,0.001000,0.001000
1034.346154,-0.018625,0.001000,0.001000,0.001000,0.001000,0.001000
1034.365385,-0.017407,0.001000,0.001000,0.001000,0.001000,0.001000
1034.384615,-0.016177,0.001000,0.001000,0.001000,0.001000,0.001000
1034.403846,-0.014936,0.001000,0.001000,0.001000,0.001000,0.001000
1034.423077,-0.013685,0.001000,0.001000,0.001000,0.001000,0.001000
1034.442308,-0.012425,0.001000,0.001000,0.001000,0.001000,0.001000
1034.461538,-0.011156,0.001000,0.001000,0.001000,0.001000,0.001000
1034.480769,-0.009880,0.001000,0.001000,0.001000,0.001000,0.001000
1034.500000,-0.008597,0.001000,0.001000,0.001000,0.001000,0.001000
1034.519231,-0.007308,0.001000,0.001000,0.001000,0.001000,0.001000
1034.538462,-0.006014,0.001000,0.001000,0.001000,0.001000,0.001000
1034.557692,-0.004716,0.001000,0.001000,0.001000,0.001000,0.001000
1034.576923,-0.003414,0.001000,0.001000,0.001000,0.001000,0.001000
1034.596154,-0.002111,0.001000,0.001000,0.001000,0.001000,0.001000
1034.615385,-0.000806,0.001000,0.001000,0.001000,0.001000,0.001000
1034.634615,0.000500,0.001000,0.001000,0.001000,0.001000,0.001000
1034.653846,0.001805,0.001000,0.001000,0.001000,0.001000,0.001000
1034.673077,0.003109,0.001000,0.001000,0.001000,0.001000,0.001000
