timestamp,ax,ay,az,gx,gy,gz
1000.000000,0.000000,0.001000,0.001000,0.001000,0.001000,0.001000
1000.019231,0.001485,0.001000,0.001000,0.001000,0.001000,0.001000
1000.038462,0.002970,0.001000,0.001000,0.001000,0.001000,0.001000
1000.057692,0.004451,0.001000,0.001000,0.001000,0.001000,0.001000
1000.076923,0.005929,0.001000,0.001000,0.001000,0.001000,0.001000
1000.096154,0.007401,0.001000,0.001000,0.001000,0.001000,0.001000
1000.115385,0.008867,0.001000,0.001000,0.001000,0.001000,0.001000
1000.134615,0.010325,0.001000,0.001000,0.001000,0.001000,0.001000
1000.153846,0.011773,0.001000,0.001000,0.001000,0.001000,0.001000
1000.173077,0.013212,0.001000,0.001000,0.001000,0.001000,0.001000
1000.192308,0.014639,0.001000,0.001000,0.001000,0.001000,0.001000
1000.211538,0.016053,0.001000,0.001000,0.001000,0.001000,0.001000
1000.230769,0.017452,0.001000,0.001000,0.001000,0.001000,0.001000
1000.250000,0.018837,0.001000,0.001000,0.001000,0.001000,0.001000
1000.269231,0.020204,0.001000,0.001000,0.001000,0.001000,0.001000
1000.288462,0.021554,0.001000,0.001000,0.001000,0.001000,0.001000
1000.307692,0.022885,0.001000,0.001000,0.001000,0.001000,0.001000
1000.326923,0.024195,0.001000,0.001000,0.001000,0.001000,0.001000
1000.346154,0.025485,0.001000,0.001000,0.001000,0.001000,0.001000
1000.365385,0.026751,0.001000,0.001000,0.001000,0.001000,0.001000
1000.384615,0.027995,0.001000,0.001000,0.001000,0.001000,0.001000
1000.403846,0.029213,0.001000,0.001000,0.001000,0.001000,0.001000
1000.423077,0.030406,0.001000,0.001000,0.001000,0.001000,0.001000
1000.442308,0.031571,0.001000,0.001000,0.001000,0.001000,0.001000
1000.461538,0.032709,0.001000,0.001000,0.001000,0.001000,0.001000
1000.480769,0.033818,0.001000,0.001000,0.001000,0.001000,0.001000
1000.500000,0.034897,0.001000,0.001000,0.001000,0.001000,0.001000
1000.519231,0.035946,0.001000,0.001000,0.001000,0.001000,0.001000
1000.538462,0.036963,0.001000,0.001000,0.001000,0.001000,0.001000
1000.557692,0.037947,0.001000,0.001000,0.001000,0.001000,0.001000
1000.576923,0.038897,0.001000,0.001000,0.001000,0.001000,0.001000
1000.596154,0.039813,0.001000,0.001000,0.001000,0.001000,0.001000
1000.615385,0.040694,0.001000,0.001000,0.001000,0.001000,0.001000
1000.634615,0.041539,0.001000,0.001000,0.001000,0.001000,0.001000
1000.653846,0.042348,0.001000,0.001000,0.001000,0.001000,0.001000
1000.673077,0.043119,0.001000,0.001000,0.001000,0.001000,0.001000
1000.692308,0.043852,0.001000,0.001000,0.001000,0.001000,0.001000
1000.711538,0.044546,0.001000,0.001000,0.001000,0.001000,0.001000
1000.730769,0.045201,0.001000,0.001000,0.001000,0.001000,0.001000
1000.750000,0.045816,0.001000,0.001000,0.001000,0.001000,0.001000
1000.769231,0.046391,0.001000,0.001000,0.001000,0.001000,0.001000
1000.788462,0.046924,0.001000,0.001000,0.001000,0.001000,0.001000
1000.807692,0.047417,0.001000,0.001000,0.001000,0.001000,0.001000
1000.826923,0.047867,0.001000,0.001000,0.001000,0.001000,0.001000
1000.846154,0.048275,0.001000,0.001000,0.001000,0.001000,0.001000
1000.865385,0.048641,0.001000,0.001000,0.001000,0.001000,0.001000
1000.884615,0.048963,0.001000,0.001000,0.001000,0.001000,0.001000
1000.903846,0.049242,0.001000,0.001000,0.001000,0.001000,0.001000
1000.923077,0.049478,0.001000,0.001000,0.001000,0.001000,0.001000
1000.942308,0.049670,0.001000,0.001000,0.001000,0.001000,0.001000
1000.961538,0.049819,0.001000,0.001000,0.001000,0.001000,0.001000
1000.980769,0.049923,0.001000,0.001000,0.001000,0.001000,0.001000
1001.000000,0.049983,0.001000,0.001000,0.001000,0.001000,0.001000
1001.019231,0.050000,0.001000,0.001000,0.001000,0.001000,0.001000
1001.038462,0.049972,0.001000,0.001000,0.001000,0.001000,0.001000
1001.057692,0.049900,0.001000,0.001000,0.001000,0.001000,0.001000
1001.076923,0.049783,0.001000,0.001000,0.001000,0.001000,0.001000
1001.096154,0.049623,0.001000,0.001000,0.001000,0.001000,0.001000
1001.115385,0.049419,0.001000,0.001000,0.001000,0.001000,0.001000
1001.134615,0.049172,0.001000,0.001000,0.001000,0.001000,0.001000
1001.153846,0.048881,0.001000,0.001000,0.001000,0.001000,0.001000
1001.173077,0.048547,0.001000,0.001000,0.001000,0.001000,0.001000
1001.192308,0.048170,0.001000,0.001000,0.001000,0.001000,0.001000
1001.211538,0.047750,0.001000,0.001000,0.001000,0.001000,0.001000
1001.230769,0.047289,0.001000,0.001000,0.001000,0.001000,0.001000
1001.250000,0.046785,0.001000,0.001000,0.001000,0.001000,0.001000
1001.269231,0.046241,0.001000,0.001000,0.001000,0.001000,0.001000
1001.288462,0.045655,0.001000,0.001000,0.001000,0.001000,0.001000
1001.307692,0.045030,0.001000,0.001000,0.001000,0.001000,0.001000
1001.326923,0.044364,0.001000,0.001000,0.001000,0.001000,0.001000
1001.346154,0.043659,0.001000,0.001000,0.001000,0.001000,0.001000
1001.365385,0.042916,0.001000,0.001000,0.001000,0.001000,0.001000
1001.384615,0.042135,0.001000,0.001000,0.001000,0.001000,0.001000
1001.403846,0.041317,0.001000,0.001000,0.001000,0.001000,0.001000
1001.423077,0.040462,0.001000,0.001000,0.001000,0.001000,0.001000
1001.442308,0.039571,0.001000,0.001000,0.001000,0.001000,0.001000
1001.461538,0.038646,0.001000,0.001000,0.001000,0.001000,0.001000
1001.480769,0.037686,0.001000,0.001000,0.001000,0.001000,0.001000
1001.500000,0.036693,0.001000,0.001000,0.001000,0.001000,0.001000
1001.519231,0.035668,0.001000,0.001000,0.001000,0.001000,0.001000
1001.538462,0.034612,0.001000,0.001000,0.001000,0.001000,0.001000
1001.557692,0.033524,0.001000,0.001000,0.001000,0.001000,0.001000
1001.576923,0.032407,0.001000,0.001000,0.001000,0.001000,0.001000
1001.596154,0.031262,0.001000,0.001000,0.001000,0.001000,0.001000
1001.615385,0.030089,0.001000,0.001000,0.001000,0.001000,0.001000
1001.634615,0.028889,0.001000,0.001000,0.001000,0.001000,0.001000
1001.653846,0.027664,0.001000,0.001000,0.001000,0.001000,0.001000
1001.673077,0.026415,0.001000,0.001000,0.001000,0.001000,0.001000
1001.692308,0.025142,0.001000,0.001000,0.001000,0.001000,0.001000
1001.711538,0.023847,0.001000,0.001000,0.001000,0.001000,0.001000
1001.730769,0.022530,0.001000,0.001000,0.001000,0.001000,0.001000
1001.750000,0.021194,0.001000,0.001000,0.001000,0.001000,0.001000
1001.769231,0.019840,0.001000,0.001000,0.001000,0.001000,0.001000
1001.788462,0.018468,0.001000,0.001000,0.001000,0.001000,0.001000
1001.807692,0.017079,0.001000,0.001000,0.001000,0.001000,0.001000
1001.826923,0.015675,0.001000,0.001000,0.001000,0.001000,0.001000
1001.846154,0.014258,0.001000,0.001000,0.001000,0.001000,0.001000
1001.865385,0.012828,0.001000,0.001000,0.001000,0.001000,0.001000
1001.884615,0.011387,0.001000,0.001000,0.001000,0.001000,0.001000
1001.903846,0.009935,0.001000,0.001000,0.001000,0.001000,0.001000
1001.923077,0.008475,0.001000,0.001000,0.001000,0.001000,0.001000
1001.942308,0.007007,0.001000,0.001000,0.001000,0.001000,0.001000
1001.961538,0.005533,0.001000,0.001000,0.001000,0.001000,0.001000
1001.980769,0.004055,0.001000,0.001000,0.001000,0.001000,0.001000
1002.000000,0.002572,0.001000,0.001000,0.001000,0.001000,0.001000
1002.019231,0.001088,0.001000,0.001000,0.001000,0.001000,0.001000
1002.038462,-0.000398,0.001000,0.001000,0.001000,0.001000,0.001000
1002.057692,-0.001883,0.001000,0.001000,0.001000,0.001000,0.001000
1002.076923,-0.003366,0.001000,0.001000,0.001000,0.001000,0.001000
1002.096154,-0.004847,0.001000,0.001000,0.001000,0.001000,0.001000
1002.115385,-0.006323,0.001000,0.001000,0.001000,0.001000,0.001000
1002.134615,-0.007794,0.001000,0.001000,0.001000,0.001000,0.001000
1002.153846,-0.009258,0.001000,0.001000,0.001000,0.001000,0.001000
1002.173077,-0.010713,0.001000,0.001000,0.001000,0.001000,0.001000
1002.192308,-0.012160,0.001000,0.001000,0.001000,0.001000,0.001000
1002.211538,-0.013595,0.001000,0.001000,0.001000,0.001000,0.001000
1002.230769,-0.015019,0.001000,0.001000,0.001000,0.001000,0.001000
1002.250000,-0.016429,0.001000,0.001000,0.001000,0.001000,0.001000
1002.269231,-0.017824,0.001000,0.001000,0.001000,0.001000,0.001000
1002.288462,-0.019204,0.001000,0.001000,0.001000,0.001000,0.001000
1002.307692,-0.020567,0.001000,0.001000,0.001000,0.001000,0.001000
1002.326923,-0.021912,0.001000,0.001000,0.001000,0.001000,0.001000
1002.346154,-0.023238,0.001000,0.001000,0.001000,0.001000,0.001000
1002.365385,-0.024543,0.001000,0.001000,0.001000,0.001000,0.001000
1002.384615,-0.025826,0.001000,0.001000,0.001000,0.001000,0.001000
1002.403846,-0.027087,0.001000,0.001000,0.001000,0.001000,0.001000
1002.423077,-0.028323,0.001000,0.001000,0.001000,0.001000,0.001000
1002.442308,-0.029535,0.001000,0.001000,0.001000,0.001000,0.001000
1002.461538,-0.030720,0.001000,0.001000,0.001000,0.001000,0.001000
1002.480769,-0.031879,0.001000,0.001000,0.001000,0.001000,0.001000
1002.500000,-0.033009,0.001000,0.001000,0.001000,0.001000,0.001000
1002.519231,-0.034110,0.001000,0.001000,0.001000,0.001000,0.001000
1002.538462,-0.035181,0.001000,0.001000,0.001000,0.001000,0.001000
1002.557692,-0.036221,0.001000,0.001000,0.001000,0.001000,0.001000
1002.576923,-0.037229,0.001000,0.001000,0.001000,0.001000,0.001000
1002.596154,-0.038204,0.001000,0.001000,0.001000,0.001000,0.001000
1002.615385,-0.039146,0.001000,0.001000,0.001000,0.001000,0.001000
1002.634615,-0.040053,0.001000,0.001000,0.001000,0.001000,0.001000
1002.653846,-0.040924,0.001000,0.001000,0.001000,0.001000,0.001000
1002.673077,-0.041759,0.001000,0.001000,0.001000,0.001000,0.001000
1002.692308,-0.042558,0.001000,0.001000,0.001000,0.001000,0.001000
1002.711538,-0.043319,0.001000,0.001000,0.001000,0.001000,0.001000
1002.730769,-0.044042,0.001000,0.001000,0.001000,0.001000,0.001000
1002.750000,-0.044725,0.001000,0.001000,0.001000,0.001000,0.001000
1002.769231,-0.045370,0.001000,0.001000,0.001000,0.001000,0.001000
1002.788462,-0.045974,0.001000,0.001000,0.001000,0.001000,0.001000
1002.807692,-0.046538,0.001000,0.001000,0.001000,0.001000,0.001000
1002.826923,-0.047060,0.001000,0.001000,0.001000,0.001000,0.001000
1002.846154,-0.047541,0.001000,0.001000,0.001000,0.001000,0.001000
1002.865385,-0.047980,0.001000,0.001000,0.001000,0.001000,0.001000
1002.884615,-0.048377,0.001000,0.001000,0.001000,0.001000,0.001000
1002.903846,-0.048731,0.001000,0.001000,0.001000,0.001000,0.001000
1002.923077,-0.049042,0.001000,0.001000,0.001000,0.001000,0.001000
1002.942308,-0.049310,0.001000,0.001000,0.001000,0.001000,0.001000
1002.961538,-0.049534,0.001000,0.001000,0.001000,0.001000,0.001000
1002.980769,-0.049714,0.001000,0.001000,0.001000,0.001000,0.001000
1003.000000,-0.049851,0.001000,0.001000,0.001000,0.001000,0.001000
1003.019231,-0.049944,0.001000,0.001000,0.001000,0.001000,0.001000
1003.038462,-0.049992,0.001000,0.001000,0.001000,0.001000,0.001000
1003.057692,-0.049996,0.001000,0.001000,0.001000,0.001000,0.001000
1003.076923,-0.049957,0.001000,0.001000,0.001000,0.001000,0.001000
1003.096154,-0.049873,0.001000,0.001000,0.001000,0.001000,0.001000
1003.115385,-0.049745,0.001000,0.001000,0.001000,0.001000,0.001000
1003.134615,-0.049573,0.001000,0.001000,0.001000,0.001000,0.001000
1003.153846,-0.049357,0.001000,0.001000,0.001000,0.001000,0.001000
1003.173077,-0.049098,0.001000,0.001000,0.001000,0.001000,0.001000
1003.192308,-0.048796,0.001000,0.001000,0.001000,0.001000,0.001000
1003.211538,-0.048450,0.001000,0.001000,0.001000,0.001000,0.001000
1003.230769,-0.048062,0.001000,0.001000,0.001000,0.001000,0.001000
1003.250000,-0.047631,0.001000,0.001000,0.001000,0.001000,0.001000
1003.269231,-0.047158,0.001000,0.001000,0.001000,0.001000,0.001000
1003.288462,-0.046644,0.001000,0.001000,0.001000,0.001000,0.001000
1003.307692,-0.046088,0.001000,0.001000,0.001000,0.001000,0.001000
1003.326923,-0.045492,0.001000,0.001000,0.001000,0.001000,0.001000
1003.346154,-0.044855,0.001000,0.001000,0.001000,0.001000,0.001000
1003.365385,-0.044179,0.001000,0.001000,0.001000,0.001000,0.001000
1003.384615,-0.043464,0.001000,0.001000,0.001000,0.001000,0.001000
1003.403846,-0.042711,0.001000,0.001000,0.001000,0.001000,0.001000
1003.423077,-0.041919,0.001000,0.001000,0.001000,0.001000,0.001000
1003.442308,-0.041091,0.001000,0.001000,0.001000,0.001000,0.001000
1003.461538,-0.040227,0.001000,0.001000,0.001000,0.001000,0.001000
1003.480769,-0.039327,0.001000,0.001000,0.001000,0.001000,0.001000
1003.500000,-0.038392,0.001000,0.001000,0.001000,0.001000,0.001000
1003.519231,-0.037424,0.001000,0.001000,0.001000,0.001000,0.001000
1003.538462,-0.036422,0.001000,0.001000,0.001000,0.001000,0.001000
1003.557692,-0.035388,0.001000,0.001000,0.001000,0.001000,0.001000
1003.576923,-0.034323,0.001000,0.001000,0.001000,0.001000,0.001000
1003.596154,-0.033228,0.001000,0.001000,0.001000,0.001000,0.001000
1003.615385,-0.032103,0.001000,0.001000,0.001000,0.001000,0.001000
1003.634615,-0.030951,0.001000,0.001000,0.001000,0.001000,0.001000
1003.653846,-0.029770,0.001000,0.001000,0.001000,0.001000,0.001000
1003.673077,-0.028564,0.001000,0.001000,0.001000,0.001000,0.001000
1003.692308,-0.027332,0.001000,0.001000,0.001000,0.001000,0.001000
1003.711538,-0.026076,0.001000,0.001000,0.001000,0.001000,0.001000
1003.730769,-0.024797,0.001000,0.001000,0.001000,0.001000,0.001000
1003.750000,-0.023496,0.001000,0.001000,0.001000,0.001000,0.001000
1003.769231,-0.022175,0.001000,0.001000,0.001000,0.001000,0.001000
1003.788462,-0.020834,0.001000,0.001000,0.001000,0.001000,0.001000
1003.807692,-0.019474,0.001000,0.001000,0.001000,0.001000,0.001000
1003.826923,-0.018097,0.001000,0.001000,0.001000,0.001000,0.001000
1003.846154,-0.016705,0.001000,0.001000,0.001000,0.001000,0.001000
1003.865385,-0.015297,0.001000,0.001000,0.001000,0.001000,0.001000
1003.884615,-0.013876,0.001000,0.001000,0.001000,0.001000,0.001000
1003.903846,-0.012443,0.001000,0.001000,0.001000,0.001000,0.001000
1003.923077,-0.010999,0.001000,0.001000,0.001000,0.001000,0.001000
1003.942308,-0.009545,0.001000,0.001000,0.001000,0.001000,0.001000
1003.961538,-0.008083,0.001000,0.001000,0.001000,0.001000,0.001000
1003.980769,-0.006613,0.001000,0.001000,0.001000,0.001000,0.001000
1004.000000,-0.005138,0.001000,0.001000,0.001000,0.001000,0.001000
1004.019231,-0.003658,0.001000,0.001000,0.001000,0.001000,0.001000
1004.038462,-0.002175,0.001000,0.001000,0.001000,0.001000,0.001000
1004.057692,-0.000690,0.001000,0.001000,0.001000,0.001000,0.001000
1004.076923,0.000795,0.001000,0.001000,0.001000,0.001000,0.001000
1004.096154,0.002280,0.001000,0.001000,0.001000,0.001000,0.001000
1004.115385,0.003763,0.001000,0.001000,0.001000,0.001000,0.001000
1004.134615,0.005243,0.001000,0.001000,0.001000,0.001000,0.001000
1004.153846,0.006718,0.001000,0.001000,0.001000,0.001000,0.001000
1004.173077,0.008187,0.001000,0.001000,0.001000,0.001000,0.001000
1004.192308,0.009648,0.001000,0.001000,0.001000,0.001000,0.001000
1004.211538,0.011102,0.001000,0.001000,0.001000,0.001000,0.001000
1004.230769,0.012545,0.001000,0.001000,0.001000,0.001000,0.001000
1004.250000,0.013977,0.001000,0.001000,0.001000,0.001000,0.001000
1004.269231,0.015397,0.001000,0.001000,0.001000,0.001000,0.001000
1004.288462,0.016804,0.001000,0.001000,0.001000,0.001000,0.001000
1004.307692,0.018196,0.001000,0.001000,0.001000,0.001000,0.001000
1004.326923,0.019571,0.001000,0.001000,0.001000,0.001000,0.001000
1004.346154,0.020929,0.001000,0.001000,0.001000,0.001000,0.001000
1004.365385,0.022269,0.001000,0.001000,0.001000,0.001000,0.001000
1004.384615,0.023589,0.001000,0.001000,0.001000,0.001000,0.001000
1004.403846,0.024889,0.001000,0.001000,0.001000,0.001000,0.001000
1004.423077,0.026166,0.001000,0.001000,0.001000,0.001000,0.001000
1004.442308,0.027420,0.001000,0.001000,0.001000,0.001000,0.001000
1004.461538,0.028650,0.001000,0.001000,0.001000,0.001000,0.001000
1004.480769,0.029855,0.001000,0.001000,0.001000,0.001000,0.001000
1004.500000,0.031033,0.001000,0.001000,0.001000,0.001000,0.001000
1004.519231,0.032184,0.001000,0.001000,0.001000,0.001000,0.001000
1004.538462,0.033307,0.001000,0.001000,0.001000,0.001000,0.001000
1004.557692,0.034400,0.001000,0.001000,0.001000,0.001000,0.001000
1004.576923,0.035463,0.001000,0.001000,0.001000,0.001000,0.001000
1004.596154,0.036494,0.001000,0.001000,0.001000,0.001000,0.001000
1004.615385,0.037494,0.001000,0.001000,0.001000,0.001000,0.001000
1004.634615,0.038460,0.001000,0.001000,0.001000,0.001000,0.001000
1004.653846,0.039392,0.001000,0.001000,0.001000,0.001000,0.001000
1004.673077,0.040289,0.001000,0.001000,0.001000,0.001000,0.001000
1004.692308,0.041151,0.001000,0.001000,0.001000,0.001000,0.001000
1004.711538,0.041977,0.001000,0.001000,0.001000,0.001000,0.001000
1004.730769,0.042765,0.001000,0.001000,0.001000,0.001000,0.001000
1004.750000,0.043516,0.001000,0.001000,0.001000,0.001000,0.001000
1004.769231,0.044228,0.001000,0.001000,0.001000,0.001000,0.001000
1004.788462,0.044902,0.001000,0.001000,0.001000,0.001000,0.001000
1004.807692,0.045535,0.001000,0.001000,0.001000,0.001000,0.001000
1004.826923,0.046129,0.001000,0.001000,0.001000,0.001000,0.001000
1004.846154,0.046682,0.001000,0.001000,0.001000,0.001000,0.001000
1004.865385,0.047193,0.001000,0.001000,0.001000,0.001000,0.001000
1004.884615,0.047663,0.001000,0.001000,0.001000,0.001000,0.001000
1004.903846,0.048091,0.001000,0.001000,0.001000,0.001000,0.001000
1004.923077,0.048476,0.001000,0.001000,0.001000,0.001000,0.001000
1004.942308,0.048819,0.001000,0.001000,0.001000,0.001000,0.001000
1004.961538,0.049118,0.001000,0.001000,0.001000,0.001000,0.001000
1004.980769,0.049374,0.001000,0.001000,0.001000,0.001000,0.001000
1005.000000,0.049587,0.001000,0.001000,0.001000,0.001000,0.001000
1005.019231,0.049755,0.001000,0.001000,0.001000,0.001000,0.001000
1005.038462,0.049880,0.001000,0.001000,0.001000,0.001000,0.001000
1005.057692,0.049961,0.001000,0.001000,0.001000,0.001000,0.001000
1005.076923,0.049998,0.001000,0.001000,0.001000,0.001000,0.001000
1005.096154,0.049990,0.001000,0.001000,0.001000,0.001000,0.001000
1005.115385,0.049939,0.001000,0.001000,0.001000,0.001000,0.001000
1005.134615,0.049843,0.001000,0.001000,0.001000,0.001000,0.001000
1005.153846,0.049703,0.001000,0.001000,0.001000,0.001000,0.001000
1005.173077,0.049520,0.001000,0.001000,0.001000,0.001000,0.001000
1005.192308,0.049292,0.001000,0.001000,0.001000,0.001000,0.001000
1005.211538,0.049021,0.001000,0.001000,0.001000,0.001000,0.001000
1005.230769,0.048707,0.001000,0.001000,0.001000,0.001000,0.001000
1005.250000,0.048350,0.001000,0.001000,0.001000,0.001000,0.001000
1005.269231,0.047951,0.001000,0.001000,0.001000,0.001000,0.001000
1005.288462,0.047509,0.001000,0.001000,0.001000,0.001000,0.001000
1005.307692,0.047024,0.001000,0.001000,0.001000,0.001000,0.001000
1005.326923,0.046499,0.001000,0.001000,0.001000,0.001000,0.001000
1005.346154,0.045932,0.001000,0.001000,0.001000,0.001000,0.001000
1005.365385,0.045325,0.001000,0.001000,0.001000,0.001000,0.001000
1005.384615,0.044678,0.001000,0.001000,0.001000,0.001000,0.001000
1005.403846,0.043992,0.001000,0.001000,0.001000,0.001000,0.001000
1005.423077,0.043266,0.001000,0.001000,0.001000,0.001000,0.001000
1005.442308,0.042502,0.001000,0.001000,0.001000,0.001000,0.001000
1005.461538,0.041701,0.001000,0.001000,0.001000,0.001000,0.001000
1005.480769,0.040863,0.001000,0.001000,0.001000,0.001000,0.001000
1005.500000,0.039989,0.001000,0.001000,0.001000,0.001000,0.001000
1005.519231,0.039080,0.001000,0.001000,0.001000,0.001000,0.001000
1005.538462,0.038136,0.001000,0.001000,0.001000,0.001000,0.001000
1005.557692,0.037159,0.001000,0.001000,0.001000,0.001000,0.001000
1005.576923,0.036148,0.001000,0.001000,0.001000,0.001000,0.001000
1005.596154,0.035106,0.001000,0.001000,0.001000,0.001000,0.001000
1005.615385,0.034033,0.001000,0.001000,0.001000,0.001000,0.001000
1005.634615,0.032930,0.001000,0.001000,0.001000,0.001000,0.001000
1005.653846,0.031798,0.001000,0.001000,0.001000,0.001000,0.001000
1005.673077,0.030637,0.001000,0.001000,0.001000,0.001000,0.001000
1005.692308,0.029450,0.001000,0.001000,0.001000,0.001000,0.001000
1005.711538,0.028236,0.001000,0.001000,0.001000,0.001000,0.001000
1005.730769,0.026998,0.001000,0.001000,0.001000,0.001000,0.001000
1005.750000,0.025736,0.001000,0.001000,0.001000,0.001000,0.001000
1005.769231,0.024451,0.001000,0.001000,0.001000,0.001000,0.001000
1005.788462,0.023144,0.001000,0.001000,0.001000,0.001000,0.001000
1005.807692,0.021818,0.001000,0.001000,0.001000,0.001000,0.001000
1005.826923,0.020471,0.001000,0.001000,0.001000,0.001000,0.001000
1005.846154,0.019107,0.001000,0.001000,0.001000,0.001000,0.001000
1005.865385,0.017726,0.001000,0.001000,0.001000,0.001000,0.001000
1005.884615,0.016329,0.001000,0.001000,0.001000,0.001000,0.001000
1005.903846,0.014918,0.001000,0.001000,0.001000,0.001000,0.001000
1005.923077,0.013494,0.001000,0.001000,0.001000,0.001000,0.001000
1005.942308,0.012057,0.001000,0.001000,0.001000,0.001000,0.001000
1005.961538,0.010611,0.001000,0.001000,0.001000,0.001000,0.001000
1005.980769,0.009154,0.001000,0.001000,0.001000,0.001000,0.001000
1006.000000,0.007690,0.001000,0.001000,0.001000,0.001000,0.001000
1006.019231,0.006219,0.001000,0.001000,0.001000,0.001000,0.001000
1006.038462,0.004742,0.001000,0.001000,0.001000,0.001000,0.001000
1006.057692,0.003261,0.001000,0.001000,0.001000,0.001000,0.001000
1006.076923,0.001778,0.001000,0.001000,0.001000,0.001000,0.001000
1006.096154,0.000292,0.001000,0.001000,0.001000,0.001000,0.001000
1006.115385,-0.001193,0.001000,0.001000,0.001000,0.001000,0.001000
1006.134615,-0.002678,0.001000,0.001000,0.001000,0.001000,0.001000
1006.153846,-0.004160,0.001000,0.001000,0.001000,0.001000,0.001000
1006.173077,-0.005638,0.001000,0.001000,0.001000,0.001000,0.001000
1006.192308,-0.007112,0.001000,0.001000,0.001000,0.001000,0.001000
1006.211538,-0.008579,0.001000,0.001000,0.001000,0.001000,0.001000
1006.230769,-0.010038,0.001000,0.001000,0.001000,0.001000,0.001000
1006.250000,-0.011489,0.001000,0.001000,0.001000,0.001000,0.001000
1006.269231,-0.012930,0.001000,0.001000,0.001000,0.001000,0.001000
1006.288462,-0.014359,0.001000,0.001000,0.001000,0.001000,0.001000
1006.307692,-0.015775,0.001000,0.001000,0.001000,0.001000,0.001000
1006.326923,-0.017178,0.001000,0.001000,0.001000,0.001000,0.001000
1006.346154,-0.018565,0.001000,0.001000,0.001000,0.001000,0.001000
1006.365385,-0.019936,0.001000,0.001000,0.001000,0.001000,0.001000
1006.384615,-0.021290,0.001000,0.001000,0.001000,0.001000,0.001000
1006.403846,-0.022625,0.001000,0.001000,0.001000,0.001000,0.001000
1006.423077,-0.023939,0.001000,0.001000,0.001000,0.001000,0.001000
1006.442308,-0.025233,0.001000,0.001000,0.001000,0.001000,0.001000
1006.461538,-0.026504,0.001000,0.001000,0.001000,0.001000,0.001000
1006.480769,-0.027752,0.001000,0.001000,0.001000,0.001000,0.001000
1006.500000,-0.028975,0.001000,0.001000,0.001000,0.001000,0.001000
1006.519231,-0.030173,0.001000,0.001000,0.001000,0.001000,0.001000
1006.538462,-0.031344,0.001000,0.001000,0.001000,0.001000,0.001000
1006.557692,-0.032488,0.001000,0.001000,0.001000,0.001000,0.001000
1006.576923,-0.033602,0.001000,0.001000,0.001000,0.001000,0.001000
1006.596154,-0.034687,0.001000,0.001000,0.001000,0.001000,0.001000
1006.615385,-0.035742,0.001000,0.001000,0.001000,0.001000,0.001000
1006.634615,-0.036765,0.001000,0.001000,0.001000,0.001000,0.001000
1006.653846,-0.037755,0.001000,0.001000,0.001000,0.001000,0.001000
1006.673077,-0.038713,0.001000,0.001000,0.001000,0.001000,0.001000
1006.692308,-0.039636,0.001000,0.001000,0.001000,0.001000,0.001000
1006.711538,-0.040524,0.001000,0.001000,0.001000,0.001000,0.001000
1006.730769,-0.041376,0.001000,0.001000,0.001000,0.001000,0.001000
1006.750000,-0.042192,0.001000,0.001000,0.001000,0.001000,0.001000
1006.769231,-0.042970,0.001000,0.001000,0.001000,0.001000,0.001000
1006.788462,-0.043711,0.001000,0.001000,0.001000,0.001000,0.001000
1006.807692,-0.044413,0.001000,0.001000,0.001000,0.001000,0.001000
1006.826923,-0.045075,0.001000,0.001000,0.001000,0.001000,0.001000
1006.846154,-0.045698,0.001000,0.001000,0.001000,0.001000,0.001000
1006.865385,-0.046281,0.001000,0.001000,0.001000,0.001000,0.001000
1006.884615,-0.046823,0.001000,0.001000,0.001000,0.001000,0.001000
1006.903846,-0.047323,0.001000,0.001000,0.001000,0.001000,0.001000
1006.923077,-0.047782,0.001000,0.001000,0.001000,0.001000,0.001000
1006.942308,-0.048198,0.001000,0.001000,0.001000,0.001000,0.001000
1006.961538,-0.048572,0.001000,0.001000,0.001000,0.001000,0.001000
1006.980769,-0.048903,0.001000,0.001000,0.001000,0.001000,0.001000
1007.000000,-0.049191,0.001000,0.001000,0.001000,0.001000,0.001000
1007.019231,-0.049435,0.001000,0.001000,0.001000,0.001000,0.001000
1007.038462,-0.049636,0.001000,0.001000,0.001000,0.001000,0.001000
1007.057692,-0.049793,0.001000,0.001000,0.001000,0.001000,0.001000
1007.076923,-0.049906,0.001000,0.001000,0.001000,0.001000,0.001000
1007.096154,-0.049975,0.001000,0.001000,0.001000,0.001000,0.001000
1007.115385,-0.050000,0.001000,0.001000,0.001000,0.001000,0.001000
1007.134615,-0.049981,0.001000,0.001000,0.001000,0.001000,0.001000
1007.153846,-0.049917,0.001000,0.001000,0.001000,0.001000,0.001000
1007.173077,-0.049810,0.001000,0.001000,0.001000,0.001000,0.001000
1007.192308,-0.049658,0.001000,0.001000,0.001000,0.001000,0.001000
1007.211538,-0.049463,0.001000,0.001000,0.001000,0.001000,0.001000
1007.230769,-0.049224,0.001000,0.001000,0.001000,0.001000,0.001000
1007.250000,-0.048942,0.001000,0.001000,0.001000,0.001000,0.001000
1007.269231,-0.048616,0.001000,0.001000,0.001000,0.001000,0.001000
1007.288462,-0.048247,0.001000,0.001000,0.001000,0.001000,0.001000
1007.307692,-0.047836,0.001000,0.001000,0.001000,0.001000,0.001000
1007.326923,-0.047383,0.001000,0.001000,0.001000,0.001000,0.001000
1007.346154,-0.046888,0.001000,0.001000,0.001000,0.001000,0.001000
1007.365385,-0.046351,0.001000,0.001000,0.001000,0.001000,0.001000
1007.384615,-0.045774,0.001000,0.001000,0.001000,0.001000,0.001000
1007.403846,-0.045156,0.001000,0.001000,0.001000,0.001000,0.001000
1007.423077,-0.044498,0.001000,0.001000,0.001000,0.001000,0.001000
1007.442308,-0.043801,0.001000,0.001000,0.001000,0.001000,0.001000
1007.461538,-0.043065,0.001000,0.001000,0.001000,0.001000,0.001000
1007.480769,-0.042292,0.001000,0.001000,0.001000,0.001000,0.001000
1007.500000,-0.041481,0.001000,0.001000,0.001000,0.001000,0.001000
1007.519231,-0.040633,0.001000,0.001000,0.001000,0.001000,0.001000
1007.538462,-0.039749,0.001000,0.001000,0.001000,0.001000,0.001000
1007.557692,-0.038831,0.001000,0.001000,0.001000,0.001000,0.001000
1007.576923,-0.037878,0.001000,0.001000,0.001000,0.001000,0.001000
1007.596154,-0.036891,0.001000,0.001000,0.001000,0.001000,0.001000
1007.615385,-0.035873,0.001000,0.001000,0.001000,0.001000,0.001000
1007.634615,-0.034822,0.001000,0.001000,0.001000,0.001000,0.001000
1007.653846,-0.033741,0.001000,0.001000,0.001000,0.001000,0.001000
1007.673077,-0.032630,0.001000,0.001000,0.001000,0.001000,0.001000
1007.692308,-0.031490,0.001000,0.001000,0.001000,0.001000,0.001000
1007.711538,-0.030322,0.001000,0.001000,0.001000,0.001000,0.001000
1007.730769,-0.029127,0.001000,0.001000,0.001000,0.001000,0.001000
1007.750000,-0.027907,0.001000,0.001000,0.001000,0.001000,0.001000
1007.769231,-0.026662,0.001000,0.001000,0.001000,0.001000,0.001000
1007.788462,-0.025394,0.001000,0.001000,0.001000,0.001000,0.001000
1007.807692,-0.024103,0.001000,0.001000,0.001000,0.001000,0.001000
1007.826923,-0.022791,0.001000,0.001000,0.001000,0.001000,0.001000
1007.846154,-0.021459,0.001000,0.001000,0.001000,0.001000,0.001000
1007.865385,-0.020108,0.001000,0.001000,0.001000,0.001000,0.001000
1007.884615,-0.018739,0.001000,0.001000,0.001000,0.001000,0.001000
1007.903846,-0.017354,0.001000,0.001000,0.001000,0.001000,0.001000
1007.923077,-0.015953,0.001000,0.001000,0.001000,0.001000,0.001000
1007.942308,-0.014538,0.001000,0.001000,0.001000,0.001000,0.001000
1007.961538,-0.013110,0.001000,0.001000,0.001000,0.001000,0.001000
1007.980769,-0.011671,0.001000,0.001000,0.001000,0.001000,0.001000
1008.000000,-0.010222,0.001000,0.001000,0.001000,0.001000,0.001000
1008.019231,-0.008763,0.001000,0.001000,0.001000,0.001000,0.001000
1008.038462,-0.007297,0.001000,0.001000,0.001000,0.001000,0.001000
1008.057692,-0.005824,0.001000,0.001000,0.001000,0.001000,0.001000
1008.076923,-0.004346,0.001000,0.001000,0.001000,0.001000,0.001000
1008.096154,-0.002864,0.001000,0.001000,0.001000,0.001000,0.001000
1008.115385,-0.001380,0.001000,0.001000,0.001000,0.001000,0.001000
1008.134615,0.000105,0.001000,0.001000,0.001000,0.001000,0.001000
1008.153846,0.001591,0.001000,0.001000,0.001000,0.001000,0.001000
1008.173077,0.003075,0.001000,0.001000,0.001000,0.001000,0.001000
1008.192308,0.004556,0.001000,0.001000,0.001000,0.001000,0.001000
1008.211538,0.006033,0.001000,0.001000,0.001000,0.001000,0.001000
1008.230769,0.007505,0.001000,0.001000,0.001000,0.001000,0.001000
1008.250000,0.008970,0.001000,0.001000,0.001000,0.001000,0.001000
1008.269231,0.010428,0.001000,0.001000,0.001000,0.001000,0.001000
1008.288462,0.011876,0.001000,0.001000,0.001000,0.001000,0.001000
1008.307692,0.013314,0.001000,0.001000,0.001000,0.001000,0.001000
1008.326923,0.014739,0.001000,0.001000,0.001000,0.001000,0.001000
1008.346154,0.016152,0.001000,0.001000,0.001000,0.001000,0.001000
1008.365385,0.017551,0.001000,0.001000,0.001000,0.001000,0.001000
1008.384615,0.018934,0.001000,0.001000,0.001000,0.001000,0.001000
1008.403846,0.020301,0.001000,0.001000,0.001000,0.001000,0.001000
1008.423077,0.021649,0.001000,0.001000,0.001000,0.001000,0.001000
1008.442308,0.022978,0.001000,0.001000,0.001000,0.001000,0.001000
1008.461538,0.024288,0.001000,0.001000,0.001000,0.001000,0.001000
1008.480769,0.025575,0.001000,0.001000,0.001000,0.001000,0.001000
1008.500000,0.026840,0.001000,0.001000,0.001000,0.001000,0.001000
1008.519231,0.028082,0.001000,0.001000,0.001000,0.001000,0.001000
1008.538462,0.029298,0.001000,0.001000,0.001000,0.001000,0.001000
1008.557692,0.030489,0.001000,0.001000,0.001000,0.001000,0.001000
1008.576923,0.031653,0.001000,0.001000,0.001000,0.001000,0.001000
1008.596154,0.032789,0.001000,0.001000,0.001000,0.001000,0.001000
1008.615385,0.033896,0.001000,0.001000,0.001000,0.001000,0.001000
1008.634615,0.034973,0.001000,0.001000,0.001000,0.001000,0.001000
1008.653846,0.036019,0.001000,0.001000,0.001000,0.001000,0.001000
1008.673077,0.037033,0.001000,0.001000,0.001000,0.001000,0.001000
1008.692308,0.038015,0.001000,0.001000,0.001000,0.001000,0.001000
1008.711538,0.038963,0.001000,0.001000,0.001000,0.001000,0.001000
1008.730769,0.039877,0.001000,0.001000,0.001000,0.001000,0.001000
1008.750000,0.040755,0.001000,0.001000,0.001000,0.001000,0.001000
1008.769231,0.041598,0.001000,0.001000,0.001000,0.001000,0.001000
1008.788462,0.042404,0.001000,0.001000,0.001000,0.001000,0.001000
1008.807692,0.043172,0.001000,0.001000,0.001000,0.001000,0.001000
1008.826923,0.043902,0.001000,0.001000,0.001000,0.001000,0.001000
1008.846154,0.044594,0.001000,0.001000,0.001000,0.001000,0.001000
1008.865385,0.045246,0.001000,0.001000,0.001000,0.001000,0.001000
1008.884615,0.045858,0.001000,0.001000,0.001000,0.001000,0.001000
1008.903846,0.046430,0.001000,0.001000,0.001000,0.001000,0.001000
1008.923077,0.046961,0.001000,0.001000,0.001000,0.001000,0.001000
1008.942308,0.047450,0.001000,0.001000,0.001000,0.001000,0.001000
1008.961538,0.047897,0.001000,0.001000,0.001000,0.001000,0.001000
1008.980769,0.048302,0.001000,0.001000,0.001000,0.001000,0.001000
1009.000000,0.048665,0.001000,0.001000,0.001000,0.001000,0.001000
1009.019231,0.048984,0.001000,0.001000,0.001000,0.001000,0.001000
1009.038462,0.049261,0.001000,0.001000,0.001000,0.001000,0.001000
1009.057692,0.049493,0.001000,0.001000,0.001000,0.001000,0.001000
1009.076923,0.049682,0.001000,0.001000,0.001000,0.001000,0.001000
1009.096154,0.049828,0.001000,0.001000,0.001000,0.001000,0.001000
1009.115385,0.049929,0.001000,0.001000,0.001000,0.001000,0.001000
1009.134615,0.049986,0.001000,0.001000,0.001000,0.001000,0.001000
1009.153846,0.049999,0.001000,0.001000,0.001000,0.001000,0.001000
1009.173077,0.049968,0.001000,0.001000,0.001000,0.001000,0.001000
1009.192308,0.049893,0.001000,0.001000,0.001000,0.001000,0.001000
1009.211538,0.049773,0.001000,0.001000,0.001000,0.001000,0.001000
1009.230769,0.049610,0.001000,0.001000,0.001000,0.001000,0.001000
1009.250000,0.049403,0.001000,0.001000,0.001000,0.001000,0.001000
1009.269231,0.049153,0.001000,0.001000,0.001000,0.001000,0.001000
1009.288462,0.048859,0.001000,0.001000,0.001000,0.001000,0.001000
1009.307692,0.048522,0.001000,0.001000,0.001000,0.001000,0.001000
1009.326923,0.048142,0.001000,0.001000,0.001000,0.001000,0.001000
1009.346154,0.047719,0.001000,0.001000,0.001000,0.001000,0.001000
1009.365385,0.047255,0.001000,0.001000,0.001000,0.001000,0.001000
1009.384615,0.046748,0.001000,0.001000,0.001000,0.001000,0.001000
1009.403846,0.046201,0.001000,0.001000,0.001000,0.001000,0.001000
1009.423077,0.045612,0.001000,0.001000,0.001000,0.001000,0.001000
1009.442308,0.044984,0.001000,0.001000,0.001000,0.001000,0.001000
1009.461538,0.044315,0.001000,0.001000,0.001000,0.001000,0.001000
1009.480769,0.043608,0.001000,0.001000,0.001000,0.001000,0.001000
1009.500000,0.042862,0.001000,0.001000,0.001000,0.001000,0.001000
1009.519231,0.042078,0.001000,0.001000,0.001000,0.001000,0.001000
1009.538462,0.041257,0.001000,0.001000,0.001000,0.001000,0.001000
1009.557692,0.040400,0.001000,0.001000,0.001000,0.001000,0.001000
1009.576923,0.039507,0.001000,0.001000,0.001000,0.001000,0.001000
1009.596154,0.038579,0.001000,0.001000,0.001000,0.001000,0.001000
1009.615385,0.037617,0.001000,0.001000,0.001000,0.001000,0.001000
1009.634615,0.036622,0.001000,0.001000,0.001000,0.001000,0.001000
1009.653846,0.035594,0.001000,0.001000,0.001000,0.001000,0.001000
1009.673077,0.034535,0.001000,0.001000,0.001000,0.001000,0.001000
1009.692308,0.033446,0.001000,0.001000,0.001000,0.001000,0.001000
1009.711538,0.032327,0.001000,0.001000,0.001000,0.001000,0.001000
1009.730769,0.031180,0.001000,0.001000,0.001000,0.001000,0.001000
1009.750000,0.030005,0.001000,0.001000,0.001000,0.001000,0.001000
1009.769231,0.028803,0.001000,0.001000,0.001000,0.001000,0.001000
1009.788462,0.027576,0.001000,0.001000,0.001000,0.001000,0.001000
1009.807692,0.026325,0.001000,0.001000,0.001000,0.001000,0.001000
1009.826923,0.025051,0.001000,0.001000,0.001000,0.001000,0.001000
1009.846154,0.023754,0.001000,0.001000,0.001000,0.001000,0.001000
1009.865385,0.022436,0.001000,0.001000,0.001000,0.001000,0.001000
1009.884615,0.021099,0.001000,0.001000,0.001000,0.001000,0.001000
1009.903846,0.019743,0.001000,0.001000,0.001000,0.001000,0.001000
1009.923077,0.018370,0.001000,0.001000,0.001000,0.001000,0.001000
1009.942308,0.016980,0.001000,0.001000,0.001000,0.001000,0.001000
1009.961538,0.015575,0.001000,0.001000,0.001000,0.001000,0.001000
1009.980769,0.014157,0.001000,0.001000,0.001000,0.001000,0.001000
1010.000000,0.012726,0.001000,0.001000,0.001000,0.001000,0.001000
1010.019231,0.011284,0.001000,0.001000,0.001000,0.001000,0.001000
1010.038462,0.009832,0.001000,0.001000,0.001000,0.001000,0.001000
1010.057692,0.008371,0.001000,0.001000,0.001000,0.001000,0.001000
1010.076923,0.006903,0.001000,0.001000,0.001000,0.001000,0.001000
1010.096154,0.005429,0.001000,0.001000,0.001000,0.001000,0.001000
1010.115385,0.003950,0.001000,0.001000,0.001000,0.001000,0.001000
1010.134615,0.002467,0.001000,0.001000,0.001000,0.001000,0.001000
1010.153846,0.000982,0.001000,0.001000,0.001000,0.001000,0.001000
1010.173077,-0.000503,0.001000,0.001000,0.001000,0.001000,0.001000
1010.192308,-0.001988,0.001000,0.001000,0.001000,0.001000,0.001000
1010.211538,-0.003472,0.001000,0.001000,0.001000,0.001000,0.001000
1010.230769,-0.004952,0.001000,0.001000,0.001000,0.001000,0.001000
1010.250000,-0.006428,0.001000,0.001000,0.001000,0.001000,0.001000
1010.269231,-0.007898,0.001000,0.001000,0.001000,0.001000,0.001000
1010.288462,-0.009361,0.001000,0.001000,0.001000,0.001000,0.001000
1010.307692,-0.010816,0.001000,0.001000,0.001000,0.001000,0.001000
1010.326923,-0.012262,0.001000,0.001000,0.001000,0.001000,0.001000
1010.346154,-0.013696,0.001000,0.001000,0.001000,0.001000,0.001000
1010.365385,-0.015119,0.001000,0.001000,0.001000,0.001000,0.001000
1010.384615,-0.016528,0.001000,0.001000,0.001000,0.001000,0.001000
1010.403846,-0.017923,0.001000,0.001000,0.001000,0.001000,0.001000
1010.423077,-0.019302,0.001000,0.001000,0.001000,0.001000,0.001000
1010.442308,-0.020663,0.001000,0.001000,0.001000,0.001000,0.001000
1010.461538,-0.022007,0.001000,0.001000,0.001000,0.001000,0.001000
1010.480769,-0.023331,0.001000,0.001000,0.001000,0.001000,0.001000
1010.500000,-0.024635,0.001000,0.001000,0.001000,0.001000,0.001000
1010.519231,-0.025916,0.001000,0.001000,0.001000,0.001000,0.001000
1010.538462,-0.027175,0.001000,0.001000,0.001000,0.001000,0.001000
1010.557692,-0.028410,0.001000,0.001000,0.001000,0.001000,0.001000
1010.576923,-0.029620,0.001000,0.001000,0.001000,0.001000,0.001000
1010.596154,-0.030803,0.001000,0.001000,0.001000,0.001000,0.001000
1010.615385,-0.031960,0.001000,0.001000,0.001000,0.001000,0.001000
1010.634615,-0.033088,0.001000,0.001000,0.001000,0.001000,0.001000
1010.653846,-0.034187,0.001000,0.001000,0.001000,0.001000,0.001000
1010.673077,-0.035256,0.001000,0.001000,0.001000,0.001000,0.001000
1010.692308,-0.036294,0.001000,0.001000,0.001000,0.001000,0.001000
1010.711538,-0.037299,0.001000,0.001000,0.001000,0.001000,0.001000
1010.730769,-0.038272,0.001000,0.001000,0.001000,0.001000,0.001000
1010.750000,-0.039211,0.001000,0.001000,0.001000,0.001000,0.001000
1010.769231,-0.040116,0.001000,0.001000,0.001000,0.001000,0.001000
1010.788462,-0.040984,0.001000,0.001000,0.001000,0.001000,0.001000
1010.807692,-0.041817,0.001000,0.001000,0.001000,0.001000,0.001000
1010.826923,-0.042613,0.001000,0.001000,0.001000,0.001000,0.001000
1010.846154,-0.043371,0.001000,0.001000,0.001000,0.001000,0.001000
1010.865385,-0.044091,0.001000,0.001000,0.001000,0.001000,0.001000
1010.884615,-0.044772,0.001000,0.001000,0.001000,0.001000,0.001000
1010.903846,-0.045414,0.001000,0.001000,0.001000,0.001000,0.001000
1010.923077,-0.046015,0.001000,0.001000,0.001000,0.001000,0.001000
1010.942308,-0.046576,0.001000,0.001000,0.001000,0.001000,0.001000
1010.961538,-0.047096,0.001000,0.001000,0.001000,0.001000,0.001000
1010.980769,-0.047574,0.001000,0.001000,0.001000,0.001000,0.001000
1011.000000,-0.048010,0.001000,0.001000,0.001000,0.001000,0.001000
1011.019231,-0.048404,0.001000,0.001000,0.001000,0.001000,0.001000
1011.038462,-0.048755,0.001000,0.001000,0.001000,0.001000,0.001000
1011.057692,-0.049063,0.001000,0.001000,0.001000,0.001000,0.001000
1011.076923,-0.049327,0.001000,0.001000,0.001000,0.001000,0.001000
1011.096154,-0.049548,0.001000,0.001000,0.001000,0.001000,0.001000
1011.115385,-0.049726,0.001000,0.001000,0.001000,0.001000,0.001000
1011.134615,-0.049859,0.001000,0.001000,0.001000,0.001000,0.001000
1011.153846,-0.049949,0.001000,0.001000,0.001000,0.001000,0.001000
1011.173077,-0.049994,0.001000,0.001000,0.001000,0.001000,0.001000
1011.192308,-0.049995,0.001000,0.001000,0.001000,0.001000,0.001000
1011.211538,-0.049952,0.001000,0.001000,0.001000,0.001000,0.001000
1011.230769,-0.049865,0.001000,0.001000,0.001000,0.001000,0.001000
1011.250000,-0.049734,0.001000,0.001000,0.001000,0.001000,0.001000
1011.269231,-0.049559,0.001000,0.001000,0.001000,0.001000,0.001000
1011.288462,-0.049340,0.001000,0.001000,0.001000,0.001000,0.001000
1011.307692,-0.049078,0.001000,0.001000,0.001000,0.001000,0.001000
1011.326923,-0.048773,0.001000,0.001000,0.001000,0.001000,0.001000
1011.346154,-0.048424,0.001000,0.001000,0.001000,0.001000,0.001000
1011.365385,-0.048033,0.001000,0.001000,0.001000,0.001000,0.001000
1011.384615,-0.047599,0.001000,0.001000,0.001000,0.001000,0.001000
1011.403846,-0.047123,0.001000,0.001000,0.001000,0.001000,0.001000
1011.423077,-0.046606,0.001000,0.001000,0.001000,0.001000,0.001000
1011.442308,-0.046047,0.001000,0.001000,0.001000,0.001000,0.001000
1011.461538,-0.045448,0.001000,0.001000,0.001000,0.001000,0.001000
1011.480769,-0.044809,0.001000,0.001000,0.001000,0.001000,0.001000
1011.500000,-0.044130,0.001000,0.001000,0.001000,0.001000,0.001000
1011.519231,-0.043412,0.001000,0.001000,0.001000,0.001000,0.001000
1011.538462,-0.042656,0.001000,0.001000,0.001000,0.001000,0.001000
1011.557692,-0.041862,0.001000,0.001000,0.001000,0.001000,0.001000
1011.576923,-0.041031,0.001000,0.001000,0.001000,0.001000,0.001000
1011.596154,-0.040164,0.001000,0.001000,0.001000,0.001000,0.001000
1011.615385,-0.039262,0.001000,0.001000,0.001000,0.001000,0.001000
1011.634615,-0.038325,0.001000,0.001000,0.001000,0.001000,0.001000
1011.653846,-0.037354,0.001000,0.001000,0.001000,0.001000,0.001000
1011.673077,-0.036350,0.001000,0.001000,0.001000,0.001000,0.001000
1011.692308,-0.035314,0.001000,0.001000,0.001000,0.001000,0.001000
1011.711538,-0.034247,0.001000,0.001000,0.001000,0.001000,0.001000
1011.730769,-0.033149,0.001000,0.001000,0.001000,0.001000,0.001000
1011.750000,-0.032023,0.001000,0.001000,0.001000,0.001000,0.001000
1011.769231,-0.030868,0.001000,0.001000,0.001000,0.001000,0.001000
1011.788462,-0.029686,0.001000,0.001000,0.001000,0.001000,0.001000
1011.807692,-0.028477,0.001000,0.001000,0.001000,0.001000,0.001000
1011.826923,-0.027244,0.001000,0.001000,0.001000,0.001000,0.001000
1011.846154,-0.025986,0.001000,0.001000,0.001000,0.001000,0.001000
1011.865385,-0.024706,0.001000,0.001000,0.001000,0.001000,0.001000
1011.884615,-0.023403,0.001000,0.001000,0.001000,0.001000,0.001000
1011.903846,-0.022080,0.001000,0.001000,0.001000,0.001000,0.001000
1011.923077,-0.020738,0.001000,0.001000,0.001000,0.001000,0.001000
1011.942308,-0.019377,0.001000,0.001000,0.001000,0.001000,0.001000
1011.961538,-0.017999,0.001000,0.001000,0.001000,0.001000,0.001000
1011.980769,-0.016605,0.001000,0.001000,0.001000,0.001000,0.001000
1012.000000,-0.015197,0.001000,0.001000,0.001000,0.001000,0.001000
1012.019231,-0.013775,0.001000,0.001000,0.001000,0.001000,0.001000
1012.038462,-0.012341,0.001000,0.001000,0.001000,0.001000,0.001000
1012.057692,-0.010896,0.001000,0.001000,0.001000,0.001000,0.001000
1012.076923,-0.009442,0.001000,0.001000,0.001000,0.001000,0.001000
1012.096154,-0.007979,0.001000,0.001000,0.001000,0.001000,0.001000
1012.115385,-0.006509,0.001000,0.001000,0.001000,0.001000,0.001000
1012.134615,-0.005033,0.001000,0.001000,0.001000,0.001000,0.001000
1012.153846,-0.003553,0.001000,0.001000,0.001000,0.001000,0.001000
1012.173077,-0.002070,0.001000,0.001000,0.001000,0.001000,0.001000
1012.192308,-0.000585,0.001000,0.001000,0.001000,0.001000,0.001000
1012.211538,0.000901,0.001000,0.001000,0.001000,0.001000,0.001000
1012.230769,0.002386,0.001000,0.001000,0.001000,0.001000,0.001000
1012.250000,0.003868,0.001000,0.001000,0.001000,0.001000,0.001000
1012.269231,0.005348,0.001000,0.001000,0.001000,0.001000,0.001000
1012.288462,0.006822,0.001000,0.001000,0.001000,0.001000,0.001000
1012.307692,0.008291,0.001000,0.001000,0.001000,0.001000,0.001000
1012.326923,0.009752,0.001000,0.001000,0.001000,0.001000,0.001000
1012.346154,0.011204,0.001000,0.001000,0.001000,0.001000,0.001000
1012.365385,0.012647,0.001000,0.001000,0.001000,0.001000,0.001000
1012.384615,0.014079,0.001000,0.001000,0.001000,0.001000,0.001000
1012.403846,0.015498,0.001000,0.001000,0.001000,0.001000,0.001000
1012.423077,0.016903,0.001000,0.001000,0.001000,0.001000,0.001000
1012.442308,0.018294,0.001000,0.001000,0.001000,0.001000,0.001000
1012.461538,0.019668,0.001000,0.001000,0.001000,0.001000,0.001000
1012.480769,0.021025,0.001000,0.001000,0.001000,0.001000,0.001000
1012.500000,0.022363,0.001000,0.001000,0.001000,0.001000,0.001000
1012.519231,0.023682,0.001000,0.001000,0.001000,0.001000,0.001000
1012.538462,0.024980,0.001000,0.001000,0.001000,0.001000,0.001000
1012.557692,0.026256,0.001000,0.001000,0.001000,0.001000,0.001000
1012.576923,0.027508,0.001000,0.001000,0.001000,0.001000,0.001000
1012.596154,0.028736,0.001000,0.001000,0.001000,0.001000,0.001000
1012.615385,0.029939,0.001000,0.001000,0.001000,0.001000,0.001000
1012.634615,0.031116,0.001000,0.001000,0.001000,0.001000,0.001000
1012.653846,0.032265,0.001000,0.001000,0.001000,0.001000,0.001000
1012.673077,0.033385,0.001000,0.001000,0.001000,0.001000,0.001000
1012.692308,0.034476,0.001000,0.001000,0.001000,0.001000,0.001000
1012.711538,0.035537,0.001000,0.001000,0.001000,0.001000,0.001000
1012.730769,0.036566,0.001000,0.001000,0.001000,0.001000,0.001000
1012.750000,0.037563,0.001000,0.001000,0.001000,0.001000,0.001000
1012.769231,0.038527,0.001000,0.001000,0.001000,0.001000,0.001000
1012.788462,0.039457,0.001000,0.001000,0.001000,0.001000,0.001000
1012.807692,0.040352,0.001000,0.001000,0.001000,0.001000,0.001000
1012.826923,0.041211,0.001000,0.001000,0.001000,0.001000,0.001000
1012.846154,0.042034,0.001000,0.001000,0.001000,0.001000,0.001000
1012.865385,0.042820,0.001000,0.001000,0.001000,0.001000,0.001000
1012.884615,0.043568,0.001000,0.001000,0.001000,0.001000,0.001000
1012.903846,0.044277,0.001000,0.001000,0.001000,0.001000,0.001000
1012.923077,0.044948,0.001000,0.001000,0.001000,0.001000,0.001000
1012.942308,0.045579,0.001000,0.001000,0.001000,0.001000,0.001000
1012.961538,0.046169,0.001000,0.001000,0.001000,0.001000,0.001000
1012.980769,0.046719,0.001000,0.001000,0.001000,0.001000,0.001000
1013.000000,0.047228,0.001000,0.001000,0.001000,0.001000,0.001000
1013.019231,0.047695,0.001000,0.001000,0.001000,0.001000,0.001000
1013.038462,0.048119,0.001000,0.001000,0.001000,0.001000,0.001000
1013.057692,0.048502,0.001000,0.001000,0.001000,0.001000,0.001000
1013.076923,0.048841,0.001000,0.001000,0.001000,0.001000,0.001000
1013.096154,0.049138,0.001000,0.001000,0.001000,0.001000,0.001000
1013.115385,0.049391,0.001000,0.001000,0.001000,0.001000,0.001000
1013.134615,0.049600,0.001000,0.001000,0.001000,0.001000,0.001000
1013.153846,0.049766,0.001000,0.001000,0.001000,0.001000,0.001000
1013.173077,0.049887,0.001000,0.001000,0.001000,0.001000,0.001000
1013.192308,0.049965,0.001000,0.001000,0.001000,0.001000,0.001000
1013.211538,0.049999,0.001000,0.001000,0.001000,0.001000,0.001000
1013.230769,0.049988,0.001000,0.001000,0.001000,0.001000,0.001000
1013.250000,0.049933,0.001000,0.001000,0.001000,0.001000,0.001000
1013.269231,0.049834,0.001000,0.001000,0.001000,0.001000,0.001000
1013.288462,0.049692,0.001000,0.001000,0.001000,0.001000,0.001000
1013.307692,0.049505,0.001000,0.001000,0.001000,0.001000,0.001000
1013.326923,0.049275,0.001000,0.001000,0.001000,0.001000,0.001000
1013.346154,0.049001,0.001000,0.001000,0.001000,0.001000,0.001000
1013.365385,0.048684,0.001000,0.001000,0.001000,0.001000,0.001000
1013.384615,0.048323,0.001000,0.001000,0.001000,0.001000,0.001000
1013.403846,0.047921,0.001000,0.001000,0.001000,0.001000,0.001000
1013.423077,0.047476,0.001000,0.001000,0.001000,0.001000,0.001000
1013.442308,0.046989,0.001000,0.001000,0.001000,0.001000,0.001000
1013.461538,0.046460,0.001000,0.001000,0.001000,0.001000,0.001000
1013.480769,0.045891,0.001000,0.001000,0.001000,0.001000,0.001000
1013.500000,0.045281,0.001000,0.001000,0.001000,0.001000,0.001000
1013.519231,0.044631,0.001000,0.001000,0.001000,0.001000,0.001000
1013.538462,0.043941,0.001000,0.001000,0.001000,0.001000,0.001000
1013.557692,0.043213,0.001000,0.001000,0.001000,0.001000,0.001000
1013.576923,0.042447,0.001000,0.001000,0.001000,0.001000,0.001000
1013.596154,0.041643,0.001000,0.001000,0.001000,0.001000,0.001000
1013.615385,0.040803,0.001000,0.001000,0.001000,0.001000,0.001000
1013.634615,0.039926,0.001000,0.001000,0.001000,0.001000,0.001000
1013.653846,0.039014,0.001000,0.001000,0.001000,0.001000,0.001000
1013.673077,0.038068,0.001000,0.001000,0.001000,0.001000,0.001000
1013.692308,0.037088,0.001000,0.001000,0.001000,0.001000,0.001000
1013.711538,0.036076,0.001000,0.001000,0.001000,0.001000,0.001000
1013.730769,0.035031,0.001000,0.001000,0.001000,0.001000,0.001000
1013.750000,0.033956,0.001000,0.001000,0.001000,0.001000,0.001000
1013.769231,0.032850,0.001000,0.001000,0.001000,0.001000,0.001000
1013.788462,0.031716,0.001000,0.001000,0.001000,0.001000,0.001000
1013.807692,0.030554,0.001000,0.001000,0.001000,0.001000,0.001000
1013.826923,0.029365,0.001000,0.001000,0.001000,0.001000,0.001000
1013.846154,0.028149,0.001000,0.001000,0.001000,0.001000,0.001000
1013.865385,0.026909,0.001000,0.001000,0.001000,0.001000,0.001000
1013.884615,0.025645,0.001000,0.001000,0.001000,0.001000,0.001000
1013.903846,0.024359,0.001000,0.001000,0.001000,0.001000,0.001000
1013.923077,0.023051,0.001000,0.001000,0.001000,0.001000,0.001000
1013.942308,0.021723,0.001000,0.001000,0.001000,0.001000,0.001000
1013.961538,0.020375,0.001000,0.001000,0.001000,0.001000,0.001000
1013.980769,0.019010,0.001000,0.001000,0.001000,0.001000,0.001000
1014.000000,0.017627,0.001000,0.001000,0.001000,0.001000,0.001000
1014.019231,0.016230,0.001000,0.001000,0.001000,0.001000,0.001000
1014.038462,0.014817,0.001000,0.001000,0.001000,0.001000,0.001000
1014.057692,0.013392,0.001000,0.001000,0.001000,0.001000,0.001000
1014.076923,0.011955,0.001000,0.001000,0.001000,0.001000,0.001000
1014.096154,0.010508,0.001000,0.001000,0.001000,0.001000,0.001000
1014.115385,0.009051,0.001000,0.001000,0.001000,0.001000,0.001000
1014.134615,0.007586,0.001000,0.001000,0.001000,0.001000,0.001000
1014.153846,0.006114,0.001000,0.001000,0.001000,0.001000,0.001000
1014.173077,0.004637,0.001000,0.001000,0.001000,0.001000,0.001000
1014.192308,0.003156,0.001000,0.001000,0.001000,0.001000,0.001000
1014.211538,0.001672,0.001000,0.001000,0.001000,0.001000,0.001000
1014.230769,0.000187,0.001000,0.001000,0.001000,0.001000,0.001000
1014.250000,-0.001298,0.001000,0.001000,0.001000,0.001000,0.001000
1014.269231,-0.002783,0.001000,0.001000,0.001000,0.001000,0.001000
1014.288462,-0.004265,0.001000,0.001000,0.001000,0.001000,0.001000
1014.307692,-0.005743,0.001000,0.001000,0.001000,0.001000,0.001000
1014.326923,-0.007216,0.001000,0.001000,0.001000,0.001000,0.001000
1014.346154,-0.008683,0.001000,0.001000,0.001000,0.001000,0.001000
1014.365385,-0.010142,0.001000,0.001000,0.001000,0.001000,0.001000
1014.384615,-0.011592,0.001000,0.001000,0.001000,0.001000,0.001000
1014.403846,-0.013031,0.001000,0.001000,0.001000,0.001000,0.001000
1014.423077,-0.014460,0.001000,0.001000,0.001000,0.001000,0.001000
1014.442308,-0.015875,0.001000,0.001000,0.001000,0.001000,0.001000
1014.461538,-0.017277,0.001000,0.001000,0.001000,0.001000,0.001000
1014.480769,-0.018663,0.001000,0.001000,0.001000,0.001000,0.001000
1014.500000,-0.020033,0.001000,0.001000,0.001000,0.001000,0.001000
1014.519231,-0.021385,0.001000,0.001000,0.001000,0.001000,0.001000
1014.538462,-0.022718,0.001000,0.001000,0.001000,0.001000,0.001000
1014.557692,-0.024032,0.001000,0.001000,0.001000,0.001000,0.001000
1014.576923,-0.025324,0.001000,0.001000,0.001000,0.001000,0.001000
1014.596154,-0.026593,0.001000,0.001000,0.001000,0.001000,0.001000
1014.615385,-0.027839,0.001000,0.001000,0.001000,0.001000,0.001000
1014.634615,-0.029061,0.001000,0.001000,0.001000,0.001000,0.001000
1014.653846,-0.030257,0.001000,0.001000,0.001000,0.001000,0.001000
1014.673077,-0.031426,0.001000,0.001000,0.001000,0.001000,0.001000
1014.692308,-0.032568,0.001000,0.001000,0.001000,0.001000,0.001000
1014.711538,-0.033680,0.001000,0.001000,0.001000,0.001000,0.001000
1014.730769,-0.034763,0.001000,0.001000,0.001000,0.001000,0.001000
1014.750000,-0.035816,0.001000,0.001000,0.001000,0.001000,0.001000
1014.769231,-0.036836,0.001000,0.001000,0.001000,0.001000,0.001000
1014.788462,-0.037824,0.001000,0.001000,0.001000,0.001000,0.001000
1014.807692,-0.038779,0.001000,0.001000,0.001000,0.001000,0.001000
1014.826923,-0.039700,0.001000,0.001000,0.001000,0.001000,0.001000
1014.846154,-0.040585,0.001000,0.001000,0.001000,0.001000,0.001000
1014.865385,-0.041435,0.001000,0.001000,0.001000,0.001000,0.001000
1014.884615,-0.042248,0.001000,0.001000,0.001000,0.001000,0.001000
1014.903846,-0.043024,0.001000,0.001000,0.001000,0.001000,0.001000
1014.923077,-0.043762,0.001000,0.001000,0.001000,0.001000,0.001000
1014.942308,-0.044461,0.001000,0.001000,0.001000,0.001000,0.001000
1014.961538,-0.045121,0.001000,0.001000,0.001000,0.001000,0.001000
1014.980769,-0.045741,0.001000,0.001000,0.001000,0.001000,0.001000
1015.000000,-0.046321,0.001000,0.001000,0.001000,0.001000,0.001000
1015.019231,-0.046859,0.001000,0.001000,0.001000,0.001000,0.001000
1015.038462,-0.047357,0.001000,0.001000,0.001000,0.001000,0.001000
1015.057692,-0.047813,0.001000,0.001000,0.001000,0.001000,0.001000
1015.076923,-0.048226,0.001000,0.001000,0.001000,0.001000,0.001000
1015.096154,-0.048597,0.001000,0.001000,0.001000,0.001000,0.001000
1015.115385,-0.048925,0.001000,0.001000,0.001000,0.001000,0.001000
1015.134615,-0.049210,0.001000,0.001000,0.001000,0.001000,0.001000
1015.153846,-0.049451,0.001000,0.001000,0.001000,0.001000,0.001000
1015.173077,-0.049649,0.001000,0.001000,0.001000,0.001000,0.001000
1015.192308,-0.049803,0.001000,0.001000,0.001000,0.001000,0.001000
1015.211538,-0.049912,0.001000,0.001000,0.001000,0.001000,0.001000
1015.230769,-0.049978,0.001000,0.001000,0.001000,0.001000,0.001000
1015.250000,-0.050000,0.001000,0.001000,0.001000,0.001000,0.001000
1015.269231,-0.049978,0.001000,0.001000,0.001000,0.001000,0.001000
1015.288462,-0.049911,0.001000,0.001000,0.001000,0.001000,0.001000
1015.307692,-0.049800,0.001000,0.001000,0.001000,0.001000,0.001000
1015.326923,-0.049646,0.001000,0.001000,0.001000,0.001000,0.001000
1015.346154,-0.049447,0.001000,0.001000,0.001000,0.001000,0.001000
1015.365385,-0.049205,0.001000,0.001000,0.001000,0.001000,0.001000
1015.384615,-0.048920,0.001000,0.001000,0.001000,0.001000,0.001000
1015.403846,-0.048591,0.001000,0.001000,0.001000,0.001000,0.001000
1015.423077,-0.048220,0.001000,0.001000,0.001000,0.001000,0.001000
1015.442308,-0.047806,0.001000,0.001000,0.001000,0.001000,0.001000
1015.461538,-0.047349,0.001000,0.001000,0.001000,0.001000,0.001000
1015.480769,-0.046851,0.001000,0.001000,0.001000,0.001000,0.001000
1015.500000,-0.046312,0.001000,0.001000,0.001000,0.001000,0.001000
1015.519231,-0.045731,0.001000,0.001000,0.001000,0.001000,0.001000
1015.538462,-0.045111,0.001000,0.001000,0.001000,0.001000,0.001000
1015.557692,-0.044450,0.001000,0.001000,0.001000,0.001000,0.001000
1015.576923,-0.043750,0.001000,0.001000,0.001000,0.001000,0.001000
1015.596154,-0.043012,0.001000,0.001000,0.001000,0.001000,0.001000
1015.615385,-0.042235,0.001000,0.001000,0.001000,0.001000,0.001000
1015.634615,-0.041422,0.001000,0.001000,0.001000,0.001000,0.001000
1015.653846,-0.040571,0.001000,0.001000,0.001000,0.001000,0.001000
1015.673077,-0.039685,0.001000,0.001000,0.001000,0.001000,0.001000
1015.692308,-0.038764,0.001000,0.001000,0.001000,0.001000,0.001000
1015.711538,-0.037809,0.001000,0.001000,0.001000,0.001000,0.001000
1015.730769,-0.036820,0.001000,0.001000,0.001000,0.001000,0.001000
1015.750000,-0.035799,0.001000,0.001000,0.001000,0.001000,0.001000
1015.769231,-0.034746,0.001000,0.001000,0.001000,0.001000,0.001000
1015.788462,-0.033663,0.001000,0.001000,0.001000,0.001000,0.001000
1015.807692,-0.032550,0.001000,0.001000,0.001000,0.001000,0.001000
1015.826923,-0.031408,0.001000,0.001000,0.001000,0.001000,0.001000
1015.846154,-0.030238,0.001000,0.001000,0.001000,0.001000,0.001000
1015.865385,-0.029042,0.001000,0.001000,0.001000,0.001000,0.001000
1015.884615,-0.027820,0.001000,0.001000,0.001000,0.001000,0.001000
1015.903846,-0.026573,0.001000,0.001000,0.001000,0.001000,0.001000
1015.923077,-0.025303,0.001000,0.001000,0.001000,0.001000,0.001000
1015.942308,-0.024011,0.001000,0.001000,0.001000,0.001000,0.001000
1015.961538,-0.022697,0.001000,0.001000,0.001000,0.001000,0.001000
1015.980769,-0.021364,0.001000,0.001000,0.001000,0.001000,0.001000
1016.000000,-0.020011,0.001000,0.001000,0.001000,0.001000,0.001000
1016.019231,-0.018641,0.001000,0.001000,0.001000,0.001000,0.001000
1016.038462,-0.017255,0.001000,0.001000,0.001000,0.001000,0.001000
1016.057692,-0.015853,0.001000,0.001000,0.001000,0.001000,0.001000
1016.076923,-0.014437,0.001000,0.001000,0.001000,0.001000,0.001000
1016.096154,-0.013009,0.001000,0.001000,0.001000,0.001000,0.001000
1016.115385,-0.011569,0.001000,0.001000,0.001000,0.001000,0.001000
1016.134615,-0.010118,0.001000,0.001000,0.001000,0.001000,0.001000
1016.153846,-0.008659,0.001000,0.001000,0.001000,0.001000,0.001000
1016.173077,-0.007192,0.001000,0.001000,0.001000,0.001000,0.001000
1016.192308,-0.005719,0.001000,0.001000,0.001000,0.001000,0.001000
1016.211538,-0.004241,0.001000,0.001000,0.001000,0.001000,0.001000
1016.230769,-0.002759,0.001000,0.001000,0.001000,0.001000,0.001000
1016.250000,-0.001275,0.001000,0.001000,0.001000,0.001000,0.001000
1016.269231,0.000211,0.001000,0.001000,0.001000,0.001000,0.001000
1016.288462,0.001696,0.001000,0.001000,0.001000,0.001000,0.001000
1016.307692,0.003180,0.001000,0.001000,0.001000,0.001000,0.001000
1016.326923,0.004661,0.001000,0.001000,0.001000,0.001000,0.001000
1016.346154,0.006138,0.001000,0.001000,0.001000,0.001000,0.001000
1016.365385,0.007609,0.001000,0.001000,0.001000,0.001000,0.001000
1016.384615,0.009074,0.001000,0.001000,0.001000,0.001000,0.001000
1016.403846,0.010531,0.001000,0.001000,0.001000,0.001000,0.001000
1016.423077,0.011978,0.001000,0.001000,0.001000,0.001000,0.001000
1016.442308,0.013415,0.001000,0.001000,0.001000,0.001000,0.001000
1016.461538,0.014840,0.001000,0.001000,0.001000,0.001000,0.001000
1016.480769,0.016252,0.001000,0.001000,0.001000,0.001000,0.001000
1016.500000,0.017650,0.001000,0.001000,0.001000,0.001000,0.001000
1016.519231,0.019032,0.001000,0.001000,0.001000,0.001000,0.001000
1016.538462,0.020397,0.001000,0.001000,0.001000,0.001000,0.001000
1016.557692,0.021744,0.001000,0.001000,0.001000,0.001000,0.001000
1016.576923,0.023072,0.001000,0.001000,0.001000,0.001000,0.001000
1016.596154,0.024380,0.001000,0.001000,0.001000,0.001000,0.001000
1016.615385,0.025666,0.001000,0.001000,0.001000,0.001000,0.001000
1016.634615,0.026929,0.001000,0.001000,0.001000,0.001000,0.001000
1016.653846,0.028169,0.001000,0.001000,0.001000,0.001000,0.001000
1016.673077,0.029384,0.001000,0.001000,0.001000,0.001000,0.001000
1016.692308,0.030573,0.001000,0.001000,0.001000,0.001000,0.001000
1016.711538,0.031734,0.001000,0.001000,0.001000,0.001000,0.001000
1016.730769,0.032868,0.001000,0.001000,0.001000,0.001000,0.001000
1016.750000,0.033973,0.001000,0.001000,0.001000,0.001000,0.001000
1016.769231,0.035048,0.001000,0.001000,0.001000,0.001000,0.001000
1016.788462,0.036092,0.001000,0.001000,0.001000,0.001000,0.001000
1016.807692,0.037104,0.001000,0.001000,0.001000,0.001000,0.001000
1016.826923,0.038083,0.001000,0.001000,0.001000,0.001000,0.001000
1016.846154,0.039029,0.001000,0.001000,0.001000,0.001000,0.001000
1016.865385,0.039940,0.001000,0.001000,0.001000,0.001000,0.001000
1016.884615,0.040816,0.001000,0.001000,0.001000,0.001000,0.001000
1016.903846,0.041656,0.001000,0.001000,0.001000,0.001000,0.001000
1016.923077,0.042459,0.001000,0.001000,0.001000,0.001000,0.001000
1016.942308,0.043225,0.001000,0.001000,0.001000,0.001000,0.001000
1016.961538,0.043953,0.001000,0.001000,0.001000,0.001000,0.001000
1016.980769,0.044641,0.001000,0.001000,0.001000,0.001000,0.001000
1017.000000,0.045291,0.001000,0.001000,0.001000,0.001000,0.001000
1017.019231,0.045900,0.001000,0.001000,0.001000,0.001000,0.001000
1017.038462,0.046469,0.001000,0.001000,0.001000,0.001000,0.001000
1017.057692,0.046997,0.001000,0.001000,0.001000,0.001000,0.001000
1017.076923,0.047483,0.001000,0.001000,0.001000,0.001000,0.001000
1017.096154,0.047927,0.001000,0.001000,0.001000,0.001000,0.001000
1017.115385,0.048329,0.001000,0.001000,0.001000,0.001000,0.001000
1017.134615,0.048689,0.001000,0.001000,0.001000,0.001000,0.001000
1017.153846,0.049005,0.001000,0.001000,0.001000,0.001000,0.001000
1017.173077,0.049279,0.001000,0.001000,0.001000,0.001000,0.001000
1017.192308,0.049508,0.001000,0.001000,0.001000,0.001000,0.001000
1017.211538,0.049694,0.001000,0.001000,0.001000,0.001000,0.001000
1017.230769,0.049836,0.001000,0.001000,0.001000,0.001000,0.001000
1017.250000,0.049934,0.001000,0.001000,0.001000,0.001000,0.001000
1017.269231,0.049988,0.001000,0.001000,0.001000,0.001000,0.001000
1017.288462,0.049998,0.001000,0.001000,0.001000,0.001000,0.001000
1017.307692,0.049964,0.001000,0.001000,0.001000,0.001000,0.001000
1017.326923,0.049886,0.001000,0.001000,0.001000,0.001000,0.001000
1017.346154,0.049763,0.001000,0.001000,0.001000,0.001000,0.001000
1017.365385,0.049597,0.001000,0.001000,0.001000,0.001000,0.001000
1017.384615,0.049387,0.001000,0.001000,0.001000,0.001000,0.001000
1017.403846,0.049133,0.001000,0.001000,0.001000,0.001000,0.001000
1017.423077,0.048836,0.001000,0.001000,0.001000,0.001000,0.001000
1017.442308,0.048496,0.001000,0.001000,0.001000,0.001000,0.001000
1017.461538,0.048113,0.001000,0.001000,0.001000,0.001000,0.001000
1017.480769,0.047688,0.001000,0.001000,0.001000,0.001000,0.001000
1017.500000,0.047220,0.001000,0.001000,0.001000,0.001000,0.001000
1017.519231,0.046711,0.001000,0.001000,0.001000,0.001000,0.001000
1017.538462,0.046160,0.001000,0.001000,0.001000,0.001000,0.001000
1017.557692,0.045569,0.001000,0.001000,0.001000,0.001000,0.001000
1017.576923,0.044938,0.001000,0.001000,0.001000,0.001000,0.001000
1017.596154,0.044266,0.001000,0.001000,0.001000,0.001000,0.001000
1017.615385,0.043556,0.001000,0.001000,0.001000,0.001000,0.001000
1017.634615,0.042808,0.001000,0.001000,0.001000,0.001000,0.001000
1017.653846,0.042021,0.001000,0.001000,0.001000,0.001000,0.001000
1017.673077,0.041198,0.001000,0.001000,0.001000,0.001000,0.001000
1017.692308,0.040338,0.001000,0.001000,0.001000,0.001000,0.001000
1017.711538,0.039442,0.001000,0.001000,0.001000,0.001000,0.001000
1017.730769,0.038512,0.001000,0.001000,0.001000,0.001000,0.001000
1017.750000,0.037547,0.001000,0.001000,0.001000,0.001000,0.001000
1017.769231,0.036550,0.001000,0.001000,0.001000,0.001000,0.001000
1017.788462,0.035520,0.001000,0.001000,0.001000,0.001000,0.001000
1017.807692,0.034459,0.001000,0.001000,0.001000,0.001000,0.001000
1017.826923,0.033368,0.001000,0.001000,0.001000,0.001000,0.001000
1017.846154,0.032247,0.001000,0.001000,0.001000,0.001000,0.001000
1017.865385,0.031097,0.001000,0.001000,0.001000,0.001000,0.001000
1017.884615,0.029920,0.001000,0.001000,0.001000,0.001000,0.001000
1017.903846,0.028717,0.001000,0.001000,0.001000,0.001000,0.001000
1017.923077,0.027488,0.001000,0.001000,0.001000,0.001000,0.001000
1017.942308,0.026235,0.001000,0.001000,0.001000,0.001000,0.001000
1017.961538,0.024959,0.001000,0.001000,0.001000,0.001000,0.001000
1017.980769,0.023661,0.001000,0.001000,0.001000,0.001000,0.001000
1018.000000,0.022342,0.001000,0.001000,0.001000,0.001000,0.001000
1018.019231,0.021003,0.001000,0.001000,0.001000,0.001000,0.001000
1018.038462,0.019646,0.001000,0.001000,0.001000,0.001000,0.001000
1018.057692,0.018272,0.001000,0.001000,0.001000,0.001000,0.001000
1018.076923,0.016881,0.001000,0.001000,0.001000,0.001000,0.001000
1018.096154,0.015475,0.001000,0.001000,0.001000,0.001000,0.001000
1018.115385,0.014056,0.001000,0.001000,0.001000,0.001000,0.001000
1018.134615,0.012624,0.001000,0.001000,0.001000,0.001000,0.001000
1018.153846,0.011181,0.001000,0.001000,0.001000,0.001000,0.001000
1018.173077,0.009729,0.001000,0.001000,0.001000,0.001000,0.001000
1018.192308,0.008267,0.001000,0.001000,0.001000,0.001000,0.001000
1018.211538,0.006799,0.001000,0.001000,0.001000,0.001000,0.001000
1018.230769,0.005324,0.001000,0.001000,0.001000,0.001000,0.001000
1018.250000,0.003845,0.001000,0.001000,0.001000,0.001000,0.001000
1018.269231,0.002362,0.001000,0.001000,0.001000,0.001000,0.001000
1018.288462,0.000877,0.001000,0.001000,0.001000,0.001000,0.001000
1018.307692,-0.000608,0.001000,0.001000,0.001000,0.001000,0.001000
1018.326923,-0.002094,0.001000,0.001000,0.001000,0.001000,0.001000
1018.346154,-0.003577,0.001000,0.001000,0.001000,0.001000,0.001000
1018.365385,-0.005057,0.001000,0.001000,0.001000,0.001000,0.001000
1018.384615,-0.006532,0.001000,0.001000,0.001000,0.001000,0.001000
1018.403846,-0.008002,0.001000,0.001000,0.001000,0.001000,0.001000
1018.423077,-0.009465,0.001000,0.001000,0.001000,0.001000,0.001000
1018.442308,-0.010919,0.001000,0.001000,0.001000,0.001000,0.001000
1018.461538,-0.012364,0.001000,0.001000,0.001000,0.001000,0.001000
1018.480769,-0.013798,0.001000,0.001000,0.001000,0.001000,0.001000
1018.500000,-0.015219,0.001000,0.001000,0.001000,0.001000,0.001000
1018.519231,-0.016628,0.001000,0.001000,0.001000,0.001000,0.001000
1018.538462,-0.018021,0.001000,0.001000,0.001000,0.001000,0.001000
1018.557692,-0.019399,0.001000,0.001000,0.001000,0.001000,0.001000
1018.576923,-0.020759,0.001000,0.001000,0.001000,0.001000,0.001000
1018.596154,-0.022101,0.001000,0.001000,0.001000,0.001000,0.001000
1018.615385,-0.023424,0.001000,0.001000,0.001000,0.001000,0.001000
1018.634615,-0.024726,0.001000,0.001000,0.001000,0.001000,0.001000
1018.653846,-0.026006,0.001000,0.001000,0.001000,0.001000,0.001000
1018.673077,-0.027263,0.001000,0.001000,0.001000,0.001000,0.001000
1018.692308,-0.028497,0.001000,0.001000,0.001000,0.001000,0.001000
1018.711538,-0.029705,0.001000,0.001000,0.001000,0.001000,0.001000
1018.730769,-0.030886,0.001000,0.001000,0.001000,0.001000,0.001000
1018.750000,-0.032041,0.001000,0.001000,0.001000,0.001000,0.001000
1018.769231,-0.033167,0.001000,0.001000,0.001000,0.001000,0.001000
1018.788462,-0.034264,0.001000,0.001000,0.001000,0.001000,0.001000
1018.807692,-0.035331,0.001000,0.001000,0.001000,0.001000,0.001000
1018.826923,-0.036366,0.001000,0.001000,0.001000,0.001000,0.001000
1018.846154,-0.037370,0.001000,0.001000,0.001000,0.001000,0.001000
1018.865385,-0.038340,0.001000,0.001000,0.001000,0.001000,0.001000
1018.884615,-0.039276,0.001000,0.001000,0.001000,0.001000,0.001000
1018.903846,-0.040178,0.001000,0.001000,0.001000,0.001000,0.001000
1018.923077,-0.041045,0.001000,0.001000,0.001000,0.001000,0.001000
1018.942308,-0.041875,0.001000,0.001000,0.001000,0.001000,0.001000
1018.961538,-0.042668,0.001000,0.001000,0.001000,0.001000,0.001000
1018.980769,-0.043424,0.001000,0.001000,0.001000,0.001000,0.001000
1019.000000,-0.044141,0.001000,0.001000,0.001000,0.001000,0.001000
1019.019231,-0.044819,0.001000,0.001000,0.001000,0.001000,0.001000
1019.038462,-0.045458,0.001000,0.001000,0.001000,0.001000,0.001000
1019.057692,-0.046056,0.001000,0.001000,0.001000,0.001000,0.001000
1019.076923,-0.046614,0.001000,0.001000,0.001000,0.001000,0.001000
1019.096154,-0.047131,0.001000,0.001000,0.001000,0.001000,0.001000
1019.115385,-0.047606,0.001000,0.001000,0.001000,0.001000,0.001000
1019.134615,-0.048039,0.001000,0.001000,0.001000,0.001000,0.001000
1019.153846,-0.048430,0.001000,0.001000,0.001000,0.001000,0.001000
1019.173077,-0.048778,0.001000,0.001000,0.001000,0.001000,0.001000
1019.192308,-0.049083,0.001000,0.001000,0.001000,0.001000,0.001000
1019.211538,-0.049344,0.001000,0.001000,0.001000,0.001000,0.001000
1019.230769,-0.049562,0.001000,0.001000,0.001000,0.001000,0.001000
1019.250000,-0.049737,0.001000,0.001000,0.001000,0.001000,0.001000
1019.269231,-0.049867,0.001000,0.001000,0.001000,0.001000,0.001000
1019.288462,-0.049953,0.001000,0.001000,0.001000,0.001000,0.001000
1019.307692,-0.049995,0.001000,0.001000,0.001000,0.001000,0.001000
1019.326923,-0.049993,0.001000,0.001000,0.001000,0.001000,0.001000
1019.346154,-0.049947,0.001000,0.001000,0.001000,0.001000,0.001000
1019.365385,-0.049857,0.001000,0.001000,0.001000,0.001000,0.001000
1019.384615,-0.049723,0.001000,0.001000,0.001000,0.001000,0.001000
1019.403846,-0.049545,0.001000,0.001000,0.001000,0.001000,0.001000
1019.423077,-0.049323,0.001000,0.001000,0.001000,0.001000,0.001000
1019.442308,-0.049058,0.001000,0.001000,0.001000,0.001000,0.001000
1019.461538,-0.048749,0.001000,0.001000,0.001000,0.001000,0.001000
1019.480769,-0.048398,0.001000,0.001000,0.001000,0.001000,0.001000
1019.500000,-0.048003,0.001000,0.001000,0.001000,0.001000,0.001000
1019.519231,-0.047566,0.001000,0.001000,0.001000,0.001000,0.001000
1019.538462,-0.047088,0.001000,0.001000,0.001000,0.001000,0.001000
1019.557692,-0.046567,0.001000,0.001000,0.001000,0.001000,0.001000
1019.576923,-0.046006,0.001000,0.001000,0.001000,0.001000,0.001000
1019.596154,-0.045404,0.001000,0.001000,0.001000,0.001000,0.001000
1019.615385,-0.044762,0.001000,0.001000,0.001000,0.001000,0.001000
1019.634615,-0.044080,0.001000,0.001000,0.001000,0.001000,0.001000
1019.653846,-0.043360,0.001000,0.001000,0.001000,0.001000,0.001000
1019.673077,-0.042601,0.001000,0.001000,0.001000,0.001000,0.001000
1019.692308,-0.041804,0.001000,0.001000,0.001000,0.001000,0.001000
1019.711538,-0.040971,0.001000,0.001000,0.001000,0.001000,0.001000
1019.730769,-0.040101,0.001000,0.001000,0.001000,0.001000,0.001000
1019.750000,-0.039196,0.001000,0.001000,0.001000,0.001000,0.001000
1019.769231,-0.038257,0.001000,0.001000,0.001000,0.001000,0.001000
1019.788462,-0.037284,0.001000,0.001000,0.001000,0.001000,0.001000
1019.807692,-0.036277,0.001000,0.001000,0.001000,0.001000,0.001000
1019.826923,-0.035239,0.001000,0.001000,0.001000,0.001000,0.001000
1019.846154,-0.034170,0.001000,0.001000,0.001000,0.001000,0.001000
1019.865385,-0.033070,0.001000,0.001000,0.001000,0.001000,0.001000
1019.884615,-0.031942,0.001000,0.001000,0.001000,0.001000,0.001000
1019.903846,-0.030785,0.001000,0.001000,0.001000,0.001000,0.001000
1019.923077,-0.029601,0.001000,0.001000,0.001000,0.001000,0.001000
1019.942308,-0.028390,0.001000,0.001000,0.001000,0.001000,0.001000
1019.961538,-0.027155,0.001000,0.001000,0.001000,0.001000,0.001000
1019.980769,-0.025896,0.001000,0.001000,0.001000,0.001000,0.001000
1020.000000,-0.024614,0.001000,0.001000,0.001000,0.001000,0.001000
1020.019231,-0.023310,0.001000,0.001000,0.001000,0.001000,0.001000
1020.038462,-0.021986,0.001000,0.001000,0.001000,0.001000,0.001000
1020.057692,-0.020642,0.001000,0.001000,0.001000,0.001000,0.001000
1020.076923,-0.019280,0.001000,0.001000,0.001000,0.001000,0.001000
1020.096154,-0.017901,0.001000,0.001000,0.001000,0.001000,0.001000
1020.115385,-0.016506,0.001000,0.001000,0.001000,0.001000,0.001000
1020.134615,-0.015096,0.001000,0.001000,0.001000,0.001000,0.001000
1020.153846,-0.013674,0.001000,0.001000,0.001000,0.001000,0.001000
1020.173077,-0.012239,0.001000,0.001000,0.001000,0.001000,0.001000
1020.192308,-0.010793,0.001000,0.001000,0.001000,0.001000,0.001000
1020.211538,-0.009338,0.001000,0.001000,0.001000,0.001000,0.001000
1020.230769,-0.007875,0.001000,0.001000,0.001000,0.001000,0.001000
1020.250000,-0.006404,0.001000,0.001000,0.001000,0.001000,0.001000
1020.269231,-0.004928,0.001000,0.001000,0.001000,0.001000,0.001000
1020.288462,-0.003448,0.001000,0.001000,0.001000,0.001000,0.001000
1020.307692,-0.001965,0.001000,0.001000,0.001000,0.001000,0.001000
1020.326923,-0.000479,0.001000,0.001000,0.001000,0.001000,0.001000
1020.346154,0.001006,0.001000,0.001000,0.001000,0.001000,0.001000
1020.365385,0.002491,0.001000,0.001000,0.001000,0.001000,0.001000
1020.384615,0.003973,0.001000,0.001000,0.001000,0.001000,0.001000
1020.403846,0.005452,0.001000,0.001000,0.001000,0.001000,0.001000
1020.423077,0.006926,0.001000,0.001000,0.001000,0.001000,0.001000
1020.442308,0.008394,0.001000,0.001000,0.001000,0.001000,0.001000
1020.461538,0.009855,0.001000,0.001000,0.001000,0.001000,0.001000
1020.480769,0.011307,0.001000,0.001000,0.001000,0.001000,0.001000
1020.500000,0.012749,0.001000,0.001000,0.001000,0.001000,0.001000
1020.519231,0.014180,0.001000,0.001000,0.001000,0.001000,0.001000
1020.538462,0.015598,0.001000,0.001000,0.001000,0.001000,0.001000
1020.557692,0.017002,0.001000,0.001000,0.001000,0.001000,0.001000
1020.576923,0.018392,0.001000,0.001000,0.001000,0.001000,0.001000
1020.596154,0.019765,0.001000,0.001000,0.001000,0.001000,0.001000
1020.615385,0.021121,0.001000,0.001000,0.001000,0.001000,0.001000
1020.634615,0.022458,0.001000,0.001000,0.001000,0.001000,0.001000
1020.653846,0.023775,0.001000,0.001000,0.001000,0.001000,0.001000
1020.673077,0.025071,0.001000,0.001000,0.001000,0.001000,0.001000
1020.692308,0.026345,0.001000,0.001000,0.001000,0.001000,0.001000
1020.711538,0.027596,0.001000,0.001000,0.001000,0.001000,0.001000
1020.730769,0.028823,0.001000,0.001000,0.001000,0.001000,0.001000
1020.750000,0.030024,0.001000,0.001000,0.001000,0.001000,0.001000
1020.769231,0.031198,0.001000,0.001000,0.001000,0.001000,0.001000
1020.788462,0.032345,0.001000,0.001000,0.001000,0.001000,0.001000
1020.807692,0.033464,0.001000,0.001000,0.001000,0.001000,0.001000
1020.826923,0.034553,0.001000,0.001000,0.001000,0.001000,0.001000
1020.846154,0.035611,0.001000,0.001000,0.001000,0.001000,0.001000
1020.865385,0.036638,0.001000,0.001000,0.001000,0.001000,0.001000
1020.884615,0.037633,0.001000,0.001000,0.001000,0.001000,0.001000
1020.903846,0.038594,0.001000,0.001000,0.001000,0.001000,0.001000
1020.923077,0.039521,0.001000,0.001000,0.001000,0.001000,0.001000
1020.942308,0.040414,0.001000,0.001000,0.001000,0.001000,0.001000
1020.961538,0.041271,0.001000,0.001000,0.001000,0.001000,0.001000
1020.980769,0.042091,0.001000,0.001000,0.001000,0.001000,0.001000
1021.000000,0.042874,0.001000,0.001000,0.001000,0.001000,0.001000
1021.019231,0.043619,0.001000,0.001000,0.001000,0.001000,0.001000
1021.038462,0.044326,0.001000,0.001000,0.001000,0.001000,0.001000
1021.057692,0.044994,0.001000,0.001000,0.001000,0.001000,0.001000
1021.076923,0.045622,0.001000,0.001000,0.001000,0.001000,0.001000
1021.096154,0.046210,0.001000,0.001000,0.001000,0.001000,0.001000
1021.115385,0.046757,0.001000,0.001000,0.001000,0.001000,0.001000
1021.134615,0.047262,0.001000,0.001000,0.001000,0.001000,0.001000
1021.153846,0.047726,0.001000,0.001000,0.001000,0.001000,0.001000
1021.173077,0.048148,0.001000,0.001000,0.001000,0.001000,0.001000
1021.192308,0.048527,0.001000,0.001000,0.001000,0.001000,0.001000
1021.211538,0.048864,0.001000,0.001000,0.001000,0.001000,0.001000
1021.230769,0.049157,0.001000,0.001000,0.001000,0.001000,0.001000
1021.250000,0.049407,0.001000,0.001000,0.001000,0.001000,0.001000
1021.269231,0.049613,0.001000,0.001000,0.001000,0.001000,0.001000
1021.288462,0.049776,0.001000,0.001000,0.001000,0.001000,0.001000
1021.307692,0.049894,0.001000,0.001000,0.001000,0.001000,0.001000
1021.326923,0.049969,0.001000,0.001000,0.001000,0.001000,0.001000
1021.346154,0.049999,0.001000,0.001000,0.001000,0.001000,0.001000
1021.365385,0.049985,0.001000,0.001000,0.001000,0.001000,0.001000
1021.384615,0.049928,0.001000,0.001000,0.001000,0.001000,0.001000
1021.403846,0.049826,0.001000,0.001000,0.001000,0.001000,0.001000
1021.423077,0.049680,0.001000,0.001000,0.001000,0.001000,0.001000
1021.442308,0.049490,0.001000,0.001000,0.001000,0.001000,0.001000
1021.461538,0.049257,0.001000,0.001000,0.001000,0.001000,0.001000
1021.480769,0.048980,0.001000,0.001000,0.001000,0.001000,0.001000
1021.500000,0.048659,0.001000,0.001000,0.001000,0.001000,0.001000
1021.519231,0.048296,0.001000,0.001000,0.001000,0.001000,0.001000
1021.538462,0.047890,0.001000,0.001000,0.001000,0.001000,0.001000
1021.557692,0.047442,0.001000,0.001000,0.001000,0.001000,0.001000
1021.576923,0.046952,0.001000,0.001000,0.001000,0.001000,0.001000
1021.596154,0.046421,0.001000,0.001000,0.001000,0.001000,0.001000
1021.615385,0.045849,0.001000,0.001000,0.001000,0.001000,0.001000
1021.634615,0.045236,0.001000,0.001000,0.001000,0.001000,0.001000
1021.653846,0.044583,0.001000,0.001000,0.001000,0.001000,0.001000
1021.673077,0.043891,0.001000,0.001000,0.001000,0.001000,0.001000
1021.692308,0.043160,0.001000,0.001000,0.001000,0.001000,0.001000
1021.711538,0.042391,0.001000,0.001000,0.001000,0.001000,0.001000
1021.730769,0.041585,0.001000,0.001000,0.001000,0.001000,0.001000
1021.750000,0.040742,0.001000,0.001000,0.001000,0.001000,0.001000
1021.769231,0.039863,0.001000,0.001000,0.001000,0.001000,0.001000
1021.788462,0.038948,0.001000,0.001000,0.001000,0.001000,0.001000
1021.807692,0.038000,0.001000,0.001000,0.001000,0.001000,0.001000
1021.826923,0.037017,0.001000,0.001000,0.001000,0.001000,0.001000
1021.846154,0.036003,0.001000,0.001000,0.001000,0.001000,0.001000
1021.865385,0.034956,0.001000,0.001000,0.001000,0.001000,0.001000
1021.884615,0.033878,0.001000,0.001000,0.001000,0.001000,0.001000
1021.903846,0.032771,0.001000,0.001000,0.001000,0.001000,0.001000
1021.923077,0.031635,0.001000,0.001000,0.001000,0.001000,0.001000
1021.942308,0.030470,0.001000,0.001000,0.001000,0.001000,0.001000
1021.961538,0.029279,0.001000,0.001000,0.001000,0.001000,0.001000
1021.980769,0.028062,0.001000,0.001000,0.001000,0.001000,0.001000
1022.000000,0.026820,0.001000,0.001000,0.001000,0.001000,0.001000
1022.019231,0.025555,0.001000,0.001000,0.001000,0.001000,0.001000
1022.038462,0.024267,0.001000,0.001000,0.001000,0.001000,0.001000
1022.057692,0.022957,0.001000,0.001000,0.001000,0.001000,0.001000
1022.076923,0.021628,0.001000,0.001000,0.001000,0.001000,0.001000
1022.096154,0.020279,0.001000,0.001000,0.001000,0.001000,0.001000
1022.115385,0.018912,0.001000,0.001000,0.001000,0.001000,0.001000
1022.134615,0.017529,0.001000,0.001000,0.001000,0.001000,0.001000
1022.153846,0.016130,0.001000,0.001000,0.001000,0.001000,0.001000
1022.173077,0.014717,0.001000,0.001000,0.001000,0.001000,0.001000
1022.192308,0.013291,0.001000,0.001000,0.001000,0.001000,0.001000
1022.211538,0.011853,0.001000,0.001000,0.001000,0.001000,0.001000
1022.230769,0.010405,0.001000,0.001000,0.001000,0.001000,0.001000
1022.250000,0.008947,0.001000,0.001000,0.001000,0.001000,0.001000
1022.269231,0.007482,0.001000,0.001000,0.001000,0.001000,0.001000
1022.288462,0.006010,0.001000,0.001000,0.001000,0.001000,0.001000
1022.307692,0.004532,0.001000,0.001000,0.001000,0.001000,0.001000
1022.326923,0.003051,0.001000,0.001000,0.001000,0.001000,0.001000
1022.346154,0.001567,0.001000,0.001000,0.001000,0.001000,0.001000
1022.365385,0.000082,0.001000,0.001000,0.001000,0.001000,0.001000
1022.384615,-0.001404,0.001000,0.001000,0.001000,0.001000,0.001000
1022.403846,-0.002888,0.001000,0.001000,0.001000,0.001000,0.001000
1022.423077,-0.004370,0.001000,0.001000,0.001000,0.001000,0.001000
1022.442308,-0.005847,0.001000,0.001000,0.001000,0.001000,0.001000
1022.461538,-0.007320,0.001000,0.001000,0.001000,0.001000,0.001000
1022.480769,-0.008786,0.001000,0.001000,0.001000,0.001000,0.001000
1022.500000,-0.010245,0.001000,0.001000,0.001000,0.001000,0.001000
1022.519231,-0.011694,0.001000,0.001000,0.001000,0.001000,0.001000
1022.538462,-0.013133,0.001000,0.001000,0.001000,0.001000,0.001000
1022.557692,-0.014561,0.001000,0.001000,0.001000,0.001000,0.001000
1022.576923,-0.015975,0.001000,0.001000,0.001000,0.001000,0.001000
1022.596154,-0.017376,0.001000,0.001000,0.001000,0.001000,0.001000
1022.615385,-0.018761,0.001000,0.001000,0.001000,0.001000,0.001000
1022.634615,-0.020130,0.001000,0.001000,0.001000,0.001000,0.001000
1022.653846,-0.021480,0.001000,0.001000,0.001000,0.001000,0.001000
1022.673077,-0.022812,0.001000,0.001000,0.001000,0.001000,0.001000
1022.692308,-0.024124,0.001000,0.001000,0.001000,0.001000,0.001000
1022.711538,-0.025414,0.001000,0.001000,0.001000,0.001000,0.001000
1022.730769,-0.026682,0.001000,0.001000,0.001000,0.001000,0.001000
1022.750000,-0.027927,0.001000,0.001000,0.001000,0.001000,0.001000
1022.769231,-0.029147,0.001000,0.001000,0.001000,0.001000,0.001000
1022.788462,-0.030341,0.001000,0.001000,0.001000,0.001000,0.001000
1022.807692,-0.031508,0.001000,0.001000,0.001000,0.001000,0.001000
1022.826923,-0.032647,0.001000,0.001000,0.001000,0.001000,0.001000
1022.846154,-0.033758,0.001000,0.001000,0.001000,0.001000,0.001000
1022.865385,-0.034839,0.001000,0.001000,0.001000,0.001000,0.001000
1022.884615,-0.035889,0.001000,0.001000,0.001000,0.001000,0.001000
1022.903846,-0.036907,0.001000,0.001000,0.001000,0.001000,0.001000
1022.923077,-0.037893,0.001000,0.001000,0.001000,0.001000,0.001000
1022.942308,-0.038846,0.001000,0.001000,0.001000,0.001000,0.001000
1022.961538,-0.039764,0.001000,0.001000,0.001000,0.001000,0.001000
1022.980769,-0.040647,0.001000,0.001000,0.001000,0.001000,0.001000
1023.000000,-0.041494,0.001000,0.001000,0.001000,0.001000,0.001000
1023.019231,-0.042304,0.001000,0.001000,0.001000,0.001000,0.001000
1023.038462,-0.043077,0.001000,0.001000,0.001000,0.001000,0.001000
1023.057692,-0.043813,0.001000,0.001000,0.001000,0.001000,0.001000
1023.076923,-0.044509,0.001000,0.001000,0.001000,0.001000,0.001000
1023.096154,-0.045166,0.001000,0.001000,0.001000,0.001000,0.001000
1023.115385,-0.045783,0.001000,0.001000,0.001000,0.001000,0.001000
1023.134615,-0.046360,0.001000,0.001000,0.001000,0.001000,0.001000
1023.153846,-0.046896,0.001000,0.001000,0.001000,0.001000,0.001000
1023.173077,-0.047391,0.001000,0.001000,0.001000,0.001000,0.001000
1023.192308,-0.047843,0.001000,0.001000,0.001000,0.001000,0.001000
1023.211538,-0.048254,0.001000,0.001000,0.001000,0.001000,0.001000
1023.230769,-0.048622,0.001000,0.001000,0.001000,0.001000,0.001000
1023.250000,-0.048946,0.001000,0.001000,0.001000,0.001000,0.001000
1023.269231,-0.049228,0.001000,0.001000,0.001000,0.001000,0.001000
1023.288462,-0.049466,0.001000,0.001000,0.001000,0.001000,0.001000
1023.307692,-0.049661,0.001000,0.001000,0.001000,0.001000,0.001000
1023.326923,-0.049812,0.001000,0.001000,0.001000,0.001000,0.001000
1023.346154,-0.049919,0.001000,0.001000,0.001000,0.001000,0.001000
1023.365385,-0.049981,0.001000,0.001000,0.001000,0.001000,0.001000
1023.384615,-0.050000,0.001000,0.001000,0.001000,0.001000,0.001000
1023.403846,-0.049974,0.001000,0.001000,0.001000,0.001000,0.001000
1023.423077,-0.049905,0.001000,0.001000,0.001000,0.001000,0.001000
1023.442308,-0.049791,0.001000,0.001000,0.001000,0.001000,0.001000
1023.461538,-0.049633,0.001000,0.001000,0.001000,0.001000,0.001000
1023.480769,-0.049432,0.001000,0.001000,0.001000,0.001000,0.001000
1023.500000,-0.049187,0.001000,0.001000,0.001000,0.001000,0.001000
1023.519231,-0.048898,0.001000,0.001000,0.001000,0.001000,0.001000
1023.538462,-0.048566,0.001000,0.001000,0.001000,0.001000,0.001000
1023.557692,-0.048192,0.001000,0.001000,0.001000,0.001000,0.001000
1023.576923,-0.047775,0.001000,0.001000,0.001000,0.001000,0.001000
1023.596154,-0.047315,0.001000,0.001000,0.001000,0.001000,0.001000
1023.615385,-0.046814,0.001000,0.001000,0.001000,0.001000,0.001000
1023.634615,-0.046272,0.001000,0.001000,0.001000,0.001000,0.001000
1023.653846,-0.045689,0.001000,0.001000,0.001000,0.001000,0.001000
1023.673077,-0.045065,0.001000,0.001000,0.001000,0.001000,0.001000
1023.692308,-0.044402,0.001000,0.001000,0.001000,0.001000,0.001000
1023.711538,-0.043699,0.001000,0.001000,0.001000,0.001000,0.001000
1023.730769,-0.042958,0.001000,0.001000,0.001000,0.001000,0.001000
1023.750000,-0.042179,0.001000,0.001000,0.001000,0.001000,0.001000
1023.769231,-0.041363,0.001000,0.001000,0.001000,0.001000,0.001000
1023.788462,-0.040510,0.001000,0.001000,0.001000,0.001000,0.001000
1023.807692,-0.039621,0.001000,0.001000,0.001000,0.001000,0.001000
1023.826923,-0.038698,0.001000,0.001000,0.001000,0.001000,0.001000
1023.846154,-0.037740,0.001000,0.001000,0.001000,0.001000,0.001000
1023.865385,-0.036749,0.001000,0.001000,0.001000,0.001000,0.001000
1023.884615,-0.035725,0.001000,0.001000,0.001000,0.001000,0.001000
1023.903846,-0.034670,0.001000,0.001000,0.001000,0.001000,0.001000
1023.923077,-0.033585,0.001000,0.001000,0.001000,0.001000,0.001000
1023.942308,-0.032470,0.001000,0.001000,0.001000,0.001000,0.001000
1023.961538,-0.031326,0.001000,0.001000,0.001000,0.001000,0.001000
1023.980769,-0.030154,0.001000,0.001000,0.001000,0.001000,0.001000
1024.000000,-0.028956,0.001000,0.001000,0.001000,0.001000,0.001000
1024.019231,-0.027732,0.001000,0.001000,0.001000,0.001000,0.001000
1024.038462,-0.026484,0.001000,0.001000,0.001000,0.001000,0.001000
1024.057692,-0.025212,0.001000,0.001000,0.001000,0.001000,0.001000
1024.076923,-0.023918,0.001000,0.001000,0.001000,0.001000,0.001000
1024.096154,-0.022603,0.001000,0.001000,0.001000,0.001000,0.001000
1024.115385,-0.021268,0.001000,0.001000,0.001000,0.001000,0.001000
1024.134615,-0.019915,0.001000,0.001000,0.001000,0.001000,0.001000
1024.153846,-0.018543,0.001000,0.001000,0.001000,0.001000,0.001000
1024.173077,-0.017156,0.001000,0.001000,0.001000,0.001000,0.001000
1024.192308,-0.015753,0.001000,0.001000,0.001000,0.001000,0.001000
1024.211538,-0.014336,0.001000,0.001000,0.001000,0.001000,0.001000
1024.230769,-0.012907,0.001000,0.001000,0.001000,0.001000,0.001000
1024.250000,-0.011466,0.001000,0.001000,0.001000,0.001000,0.001000
1024.269231,-0.010015,0.001000,0.001000,0.001000,0.001000,0.001000
1024.288462,-0.008555,0.001000,0.001000,0.001000,0.001000,0.001000
1024.307692,-0.007088,0.001000,0.001000,0.001000,0.001000,0.001000
1024.326923,-0.005615,0.001000,0.001000,0.001000,0.001000,0.001000
1024.346154,-0.004136,0.001000,0.001000,0.001000,0.001000,0.001000
1024.365385,-0.002654,0.001000,0.001000,0.001000,0.001000,0.001000
1024.384615,-0.001169,0.001000,0.001000,0.001000,0.001000,0.001000
1024.403846,0.000316,0.001000,0.001000,0.001000,0.001000,0.001000
1024.423077,0.001801,0.001000,0.001000,0.001000,0.001000,0.001000
1024.442308,0.003285,0.001000,0.001000,0.001000,0.001000,0.001000
1024.461538,0.004766,0.001000,0.001000,0.001000,0.001000,0.001000
1024.480769,0.006242,0.001000,0.001000,0.001000,0.001000,0.001000
1024.500000,0.007713,0.001000,0.001000,0.001000,0.001000,0.001000
1024.519231,0.009178,0.001000,0.001000,0.001000,0.001000,0.001000
1024.538462,0.010634,0.001000,0.001000,0.001000,0.001000,0.001000
1024.557692,0.012080,0.001000,0.001000,0.001000,0.001000,0.001000
1024.576923,0.013517,0.001000,0.001000,0.001000,0.001000,0.001000
1024.596154,0.014941,0.001000,0.001000,0.001000,0.001000,0.001000
1024.615385,0.016352,0.001000,0.001000,0.001000,0.001000,0.001000
1024.634615,0.017748,0.001000,0.001000,0.001000,0.001000,0.001000
1024.653846,0.019129,0.001000,0.001000,0.001000,0.001000,0.001000
1024.673077,0.020493,0.001000,0.001000,0.001000,0.001000,0.001000
1024.692308,0.021839,0.001000,0.001000,0.001000,0.001000,0.001000
1024.711538,0.023165,0.001000,0.001000,0.001000,0.001000,0.001000
1024.730769,0.024472,0.001000,0.001000,0.001000,0.001000,0.001000
1024.750000,0.025756,0.001000,0.001000,0.001000,0.001000,0.001000
1024.769231,0.027018,0.001000,0.001000,0.001000,0.001000,0.001000
1024.788462,0.028256,0.001000,0.001000,0.001000,0.001000,0.001000
1024.807692,0.029469,0.001000,0.001000,0.001000,0.001000,0.001000
1024.826923,0.030656,0.001000,0.001000,0.001000,0.001000,0.001000
1024.846154,0.031816,0.001000,0.001000,0.001000,0.001000,0.001000
1024.865385,0.032948,0.001000,0.001000,0.001000,0.001000,0.001000
1024.884615,0.034050,0.001000,0.001000,0.001000,0.001000,0.001000
1024.903846,0.035123,0.001000,0.001000,0.001000,0.001000,0.001000
1024.923077,0.036165,0.001000,0.001000,0.001000,0.001000,0.001000
1024.942308,0.037175,0.001000,0.001000,0.001000,0.001000,0.001000
1024.961538,0.038152,0.001000,0.001000,0.001000,0.001000,0.001000
1024.980769,0.039095,0.001000,0.001000,0.001000,0.001000,0.001000
1025.000000,0.040004,0.001000,0.001000,0.001000,0.001000,0.001000
1025.019231,0.040877,0.001000,0.001000,0.001000,0.001000,0.001000
1025.038462,0.041714,0.001000,0.001000,0.001000,0.001000,0.001000
1025.057692,0.042515,0.001000,0.001000,0.001000,0.001000,0.001000
1025.076923,0.043278,0.001000,0.001000,0.001000,0.001000,0.001000
1025.096154,0.044003,0.001000,0.001000,0.001000,0.001000,0.001000
1025.115385,0.044689,0.001000,0.001000,0.001000,0.001000,0.001000
1025.134615,0.045335,0.001000,0.001000,0.001000,0.001000,0.001000
1025.153846,0.045942,0.001000,0.001000,0.001000,0.001000,0.001000
1025.173077,0.046508,0.001000,0.001000,0.001000,0.001000,0.001000
1025.192308,0.047033,0.001000,0.001000,0.001000,0.001000,0.001000
1025.211538,0.047516,0.001000,0.001000,0.001000,0.001000,0.001000
1025.230769,0.047957,0.001000,0.001000,0.001000,0.001000,0.001000
1025.250000,0.048356,0.001000,0.001000,0.001000,0.001000,0.001000
1025.269231,0.048713,0.001000,0.001000,0.001000,0.001000,0.001000
1025.288462,0.049026,0.001000,0.001000,0.001000,0.001000,0.001000
1025.307692,0.049296,0.001000,0.001000,0.001000,0.001000,0.001000
1025.326923,0.049523,0.001000,0.001000,0.001000,0.001000,0.001000
1025.346154,0.049706,0.001000,0.001000,0.001000,0.001000,0.001000
1025.365385,0.049845,0.001000,0.001000,0.001000,0.001000,0.001000
1025.384615,0.049940,0.001000,0.001000,0.001000,0.001000,0.001000
1025.403846,0.049991,0.001000,0.001000,0.001000,0.001000,0.001000
1025.423077,0.049997,0.001000,0.001000,0.001000,0.001000,0.001000
1025.442308,0.049960,0.001000,0.001000,0.001000,0.001000,0.001000
1025.461538,0.049879,0.001000,0.001000,0.001000,0.001000,0.001000
1025.480769,0.049753,0.001000,0.001000,0.001000,0.001000,0.001000
1025.500000,0.049584,0.001000,0.001000,0.001000,0.001000,0.001000
1025.519231,0.049370,0.001000,0.001000,0.001000,0.001000,0.001000
1025.538462,0.049114,0.001000,0.001000,0.001000,0.001000,0.001000
1025.557692,0.048813,0.001000,0.001000,0.001000,0.001000,0.001000
1025.576923,0.048470,0.001000,0.001000,0.001000,0.001000,0.001000
1025.596154,0.048084,0.001000,0.001000,0.001000,0.001000,0.001000
1025.615385,0.047656,0.001000,0.001000,0.001000,0.001000,0.001000
1025.634615,0.047185,0.001000,0.001000,0.001000,0.001000,0.001000
1025.653846,0.046673,0.001000,0.001000,0.001000,0.001000,0.001000
1025.673077,0.046120,0.001000,0.001000,0.001000,0.001000,0.001000
1025.692308,0.045526,0.001000,0.001000,0.001000,0.001000,0.001000
1025.711538,0.044891,0.001000,0.001000,0.001000,0.001000,0.001000
1025.730769,0.044217,0.001000,0.001000,0.001000,0.001000,0.001000
1025.750000,0.043504,0.001000,0.001000,0.001000,0.001000,0.001000
1025.769231,0.042753,0.001000,0.001000,0.001000,0.001000,0.001000
1025.788462,0.041964,0.001000,0.001000,0.001000,0.001000,0.001000
1025.807692,0.041138,0.001000,0.001000,0.001000,0.001000,0.001000
1025.826923,0.040275,0.001000,0.001000,0.001000,0.001000,0.001000
1025.846154,0.039377,0.001000,0.001000,0.001000,0.001000,0.001000
1025.865385,0.038445,0.001000,0.001000,0.001000,0.001000,0.001000
1025.884615,0.037478,0.001000,0.001000,0.001000,0.001000,0.001000
1025.903846,0.036478,0.001000,0.001000,0.001000,0.001000,0.001000
1025.923077,0.035446,0.001000,0.001000,0.001000,0.001000,0.001000
1025.942308,0.034383,0.001000,0.001000,0.001000,0.001000,0.001000
1025.961538,0.033289,0.001000,0.001000,0.001000,0.001000,0.001000
1025.980769,0.032166,0.001000,0.001000,0.001000,0.001000,0.001000
1026.000000,0.031015,0.001000,0.001000,0.001000,0.001000,0.001000
1026.019231,0.029836,0.001000,0.001000,0.001000,0.001000,0.001000
1026.038462,0.028631,0.001000,0.001000,0.001000,0.001000,0.001000
1026.057692,0.027400,0.001000,0.001000,0.001000,0.001000,0.001000
1026.076923,0.026146,0.001000,0.001000,0.001000,0.001000,0.001000
1026.096154,0.024868,0.001000,0.001000,0.001000,0.001000,0.001000
1026.115385,0.023568,0.001000,0.001000,0.001000,0.001000,0.001000
1026.134615,0.022248,0.001000,0.001000,0.001000,0.001000,0.001000
1026.153846,0.020908,0.001000,0.001000,0.001000,0.001000,0.001000
1026.173077,0.019549,0.001000,0.001000,0.001000,0.001000,0.001000
1026.192308,0.018173,0.001000,0.001000,0.001000,0.001000,0.001000
1026.211538,0.016782,0.001000,0.001000,0.001000,0.001000,0.001000
1026.230769,0.015375,0.001000,0.001000,0.001000,0.001000,0.001000
1026.250000,0.013955,0.001000,0.001000,0.001000,0.001000,0.001000
1026.269231,0.012522,0.001000,0.001000,0.001000,0.001000,0.001000
1026.288462,0.011079,0.001000,0.001000,0.001000,0.001000,0.001000
1026.307692,0.009625,0.001000,0.001000,0.001000,0.001000,0.001000
1026.326923,0.008163,0.001000,0.001000,0.001000,0.001000,0.001000
1026.346154,0.006694,0.001000,0.001000,0.001000,0.001000,0.001000
1026.365385,0.005219,0.001000,0.001000,0.001000,0.001000,0.001000
1026.384615,0.003740,0.001000,0.001000,0.001000,0.001000,0.001000
1026.403846,0.002257,0.001000,0.001000,0.001000,0.001000,0.001000
1026.423077,0.000772,0.001000,0.001000,0.001000,0.001000,0.001000
1026.442308,-0.000714,0.001000,0.001000,0.001000,0.001000,0.001000
1026.461538,-0.002199,0.001000,0.001000,0.001000,0.001000,0.001000
1026.480769,-0.003682,0.001000,0.001000,0.001000,0.001000,0.001000
1026.500000,-0.005162,0.001000,0.001000,0.001000,0.001000,0.001000
1026.519231,-0.006637,0.001000,0.001000,0.001000,0.001000,0.001000
1026.538462,-0.008106,0.001000,0.001000,0.001000,0.001000,0.001000
1026.557692,-0.009568,0.001000,0.001000,0.001000,0.001000,0.001000
1026.576923,-0.011022,0.001000,0.001000,0.001000,0.001000,0.001000
1026.596154,-0.012466,0.001000,0.001000,0.001000,0.001000,0.001000
1026.615385,-0.013899,0.001000,0.001000,0.001000,0.001000,0.001000
1026.634615,-0.015320,0.001000,0.001000,0.001000,0.001000,0.001000
1026.653846,-0.016727,0.001000,0.001000,0.001000,0.001000,0.001000
1026.673077,-0.018119,0.001000,0.001000,0.001000,0.001000,0.001000
1026.692308,-0.019496,0.001000,0.001000,0.001000,0.001000,0.001000
1026.711538,-0.020855,0.001000,0.001000,0.001000,0.001000,0.001000
1026.730769,-0.022196,0.001000,0.001000,0.001000,0.001000,0.001000
1026.750000,-0.023517,0.001000,0.001000,0.001000,0.001000,0.001000
1026.769231,-0.024818,0.001000,0.001000,0.001000,0.001000,0.001000
1026.788462,-0.026096,0.001000,0.001000,0.001000,0.001000,0.001000
1026.807692,-0.027352,0.001000,0.001000,0.001000,0.001000,0.001000
1026.826923,-0.028583,0.001000,0.001000,0.001000,0.001000,0.001000
1026.846154,-0.029789,0.001000,0.001000,0.001000,0.001000,0.001000
1026.865385,-0.030969,0.001000,0.001000,0.001000,0.001000,0.001000
1026.884615,-0.032122,0.001000,0.001000,0.001000,0.001000,0.001000
1026.903846,-0.033246,0.001000,0.001000,0.001000,0.001000,0.001000
1026.923077,-0.034341,0.001000,0.001000,0.001000,0.001000,0.001000
1026.942308,-0.035405,0.001000,0.001000,0.001000,0.001000,0.001000
1026.961538,-0.036438,0.001000,0.001000,0.001000,0.001000,0.001000
1026.980769,-0.037439,0.001000,0.001000,0.001000,0.001000,0.001000
1027.000000,-0.038407,0.001000,0.001000,0.001000,0.001000,0.001000
1027.019231,-0.039342,0.001000,0.001000,0.001000,0.001000,0.001000
1027.038462,-0.040241,0.001000,0.001000,0.001000,0.001000,0.001000
1027.057692,-0.041105,0.001000,0.001000,0.001000,0.001000,0.001000
1027.076923,-0.041932,0.001000,0.001000,0.001000,0.001000,0.001000
1027.096154,-0.042723,0.001000,0.001000,0.001000,0.001000,0.001000
1027.115385,-0.043476,0.001000,0.001000,0.001000,0.001000,0.001000
1027.134615,-0.044190,0.001000,0.001000,0.001000,0.001000,0.001000
1027.153846,-0.044866,0.001000,0.001000,0.001000,0.001000,0.001000
1027.173077,-0.045502,0.001000,0.001000,0.001000,0.001000,0.001000
1027.192308,-0.046097,0.001000,0.001000,0.001000,0.001000,0.001000
1027.211538,-0.046652,0.001000,0.001000,0.001000,0.001000,0.001000
1027.230769,-0.047166,0.001000,0.001000,0.001000,0.001000,0.001000
1027.250000,-0.047638,0.001000,0.001000,0.001000,0.001000,0.001000
1027.269231,-0.048068,0.001000,0.001000,0.001000,0.001000,0.001000
1027.288462,-0.048456,0.001000,0.001000,0.001000,0.001000,0.001000
1027.307692,-0.048801,0.001000,0.001000,0.001000,0.001000,0.001000
1027.326923,-0.049103,0.001000,0.001000,0.001000,0.001000,0.001000
1027.346154,-0.049361,0.001000,0.001000,0.001000,0.001000,0.001000
1027.365385,-0.049576,0.001000,0.001000,0.001000,0.001000,0.001000
1027.384615,-0.049747,0.001000,0.001000,0.001000,0.001000,0.001000
1027.403846,-0.049874,0.001000,0.001000,0.001000,0.001000,0.001000
1027.423077,-0.049958,0.001000,0.001000,0.001000,0.001000,0.001000
1027.442308,-0.049997,0.001000,0.001000,0.001000,0.001000,0.001000
1027.461538,-0.049992,0.001000,0.001000,0.001000,0.001000,0.001000
1027.480769,-0.049942,0.001000,0.001000,0.001000,0.001000,0.001000
1027.500000,-0.049849,0.001000,0.001000,0.001000,0.001000,0.001000
1027.519231,-0.049712,0.001000,0.001000,0.001000,0.001000,0.001000
1027.538462,-0.049531,0.001000,0.001000,0.001000,0.001000,0.001000
1027.557692,-0.049306,0.001000,0.001000,0.001000,0.001000,0.001000
1027.576923,-0.049037,0.001000,0.001000,0.001000,0.001000,0.001000
1027.596154,-0.048726,0.001000,0.001000,0.001000,0.001000,0.001000
1027.615385,-0.048371,0.001000,0.001000,0.001000,0.001000,0.001000
1027.634615,-0.047974,0.001000,0.001000,0.001000,0.001000,0.001000
1027.653846,-0.047534,0.001000,0.001000,0.001000,0.001000,0.001000
1027.673077,-0.047052,0.001000,0.001000,0.001000,0.001000,0.001000
1027.692308,-0.046529,0.001000,0.001000,0.001000,0.001000,0.001000
1027.711538,-0.045965,0.001000,0.001000,0.001000,0.001000,0.001000
1027.730769,-0.045360,0.001000,0.001000,0.001000,0.001000,0.001000
1027.750000,-0.044715,0.001000,0.001000,0.001000,0.001000,0.001000
1027.769231,-0.044030,0.001000,0.001000,0.001000,0.001000,0.001000
1027.788462,-0.043307,0.001000,0.001000,0.001000,0.001000,0.001000
1027.807692,-0.042545,0.001000,0.001000,0.001000,0.001000,0.001000
1027.826923,-0.041746,0.001000,0.001000,0.001000,0.001000,0.001000
1027.846154,-0.040910,0.001000,0.001000,0.001000,0.001000,0.001000
1027.865385,-0.040038,0.001000,0.001000,0.001000,0.001000,0.001000
1027.884615,-0.039131,0.001000,0.001000,0.001000,0.001000,0.001000
1027.903846,-0.038189,0.001000,0.001000,0.001000,0.001000,0.001000
1027.923077,-0.037213,0.001000,0.001000,0.001000,0.001000,0.001000
1027.942308,-0.036205,0.001000,0.001000,0.001000,0.001000,0.001000
1027.961538,-0.035164,0.001000,0.001000,0.001000,0.001000,0.001000
1027.980769,-0.034093,0.001000,0.001000,0.001000,0.001000,0.001000
1028.000000,-0.032991,0.001000,0.001000,0.001000,0.001000,0.001000
1028.019231,-0.031861,0.001000,0.001000,0.001000,0.001000,0.001000
1028.038462,-0.030702,0.001000,0.001000,0.001000,0.001000,0.001000
1028.057692,-0.029516,0.001000,0.001000,0.001000,0.001000,0.001000
1028.076923,-0.028304,0.001000,0.001000,0.001000,0.001000,0.001000
1028.096154,-0.027067,0.001000,0.001000,0.001000,0.001000,0.001000
1028.115385,-0.025806,0.001000,0.001000,0.001000,0.001000,0.001000
1028.134615,-0.024522,0.001000,0.001000,0.001000,0.001000,0.001000
1028.153846,-0.023217,0.001000,0.001000,0.001000,0.001000,0.001000
1028.173077,-0.021891,0.001000,0.001000,0.001000,0.001000,0.001000
1028.192308,-0.020546,0.001000,0.001000,0.001000,0.001000,0.001000
1028.211538,-0.019183,0.001000,0.001000,0.001000,0.001000,0.001000
1028.230769,-0.017802,0.001000,0.001000,0.001000,0.001000,0.001000
1028.250000,-0.016406,0.001000,0.001000,0.001000,0.001000,0.001000
1028.269231,-0.014996,0.001000,0.001000,0.001000,0.001000,0.001000
1028.288462,-0.013572,0.001000,0.001000,0.001000,0.001000,0.001000
1028.307692,-0.012137,0.001000,0.001000,0.001000,0.001000,0.001000
1028.326923,-0.010690,0.001000,0.001000,0.001000,0.001000,0.001000
1028.346154,-0.009235,0.001000,0.001000,0.001000,0.001000,0.001000
1028.365385,-0.007771,0.001000,0.001000,0.001000,0.001000,0.001000
1028.384615,-0.006300,0.001000,0.001000,0.001000,0.001000,0.001000
1028.403846,-0.004823,0.001000,0.001000,0.001000,0.001000,0.001000
1028.423077,-0.003343,0.001000,0.001000,0.001000,0.001000,0.001000
1028.442308,-0.001859,0.001000,0.001000,0.001000,0.001000,0.001000
1028.461538,-0.000374,0.001000,0.001000,0.001000,0.001000,0.001000
1028.480769,0.001112,0.001000,0.001000,0.001000,0.001000,0.001000
1028.500000,0.002596,0.001000,0.001000,0.001000,0.001000,0.001000
1028.519231,0.004078,0.001000,0.001000,0.001000,0.001000,0.001000
1028.538462,0.005557,0.001000,0.001000,0.001000,0.001000,0.001000
1028.557692,0.007031,0.001000,0.001000,0.001000,0.001000,0.001000
1028.576923,0.008498,0.001000,0.001000,0.001000,0.001000,0.001000
1028.596154,0.009958,0.001000,0.001000,0.001000,0.001000,0.001000
1028.615385,0.011410,0.001000,0.001000,0.001000,0.001000,0.001000
1028.634615,0.012851,0.001000,0.001000,0.001000,0.001000,0.001000
1028.653846,0.014281,0.001000,0.001000,0.001000,0.001000,0.001000
1028.673077,0.015698,0.001000,0.001000,0.001000,0.001000,0.001000
1028.692308,0.017101,0.001000,0.001000,0.001000,0.001000,0.001000
1028.711538,0.018490,0.001000,0.001000,0.001000,0.001000,0.001000
1028.730769,0.019862,0.001000,0.001000,0.001000,0.001000,0.001000
1028.750000,0.021216,0.001000,0.001000,0.001000,0.001000,0.001000
1028.769231,0.022552,0.001000,0.001000,0.001000,0.001000,0.001000
1028.788462,0.023867,0.001000,0.001000,0.001000,0.001000,0.001000
1028.807692,0.025162,0.001000,0.001000,0.001000,0.001000,0.001000
1028.826923,0.026435,0.001000,0.001000,0.001000,0.001000,0.001000
1028.846154,0.027684,0.001000,0.001000,0.001000,0.001000,0.001000
1028.865385,0.028909,0.001000,0.001000,0.001000,0.001000,0.001000
1028.884615,0.030108,0.001000,0.001000,0.001000,0.001000,0.001000
1028.903846,0.031280,0.001000,0.001000,0.001000,0.001000,0.001000
1028.923077,0.032425,0.001000,0.001000,0.001000,0.001000,0.001000
1028.942308,0.033542,0.001000,0.001000,0.001000,0.001000,0.001000
1028.961538,0.034629,0.001000,0.001000,0.001000,0.001000,0.001000
1028.980769,0.035685,0.001000,0.001000,0.001000,0.001000,0.001000
1029.000000,0.036710,0.001000,0.001000,0.001000,0.001000,0.001000
1029.019231,0.037702,0.001000,0.001000,0.001000,0.001000,0.001000
1029.038462,0.038661,0.001000,0.001000,0.001000,0.001000,0.001000
1029.057692,0.039586,0.001000,0.001000,0.001000,0.001000,0.001000
1029.076923,0.040476,0.001000,0.001000,0.001000,0.001000,0.001000
1029.096154,0.041330,0.001000,0.001000,0.001000,0.001000,0.001000
1029.115385,0.042148,0.001000,0.001000,0.001000,0.001000,0.001000
1029.134615,0.042928,0.001000,0.001000,0.001000,0.001000,0.001000
1029.153846,0.043671,0.001000,0.001000,0.001000,0.001000,0.001000
1029.173077,0.044375,0.001000,0.001000,0.001000,0.001000,0.001000
1029.192308,0.045040,0.001000,0.001000,0.001000,0.001000,0.001000
1029.211538,0.045665,0.001000,0.001000,0.001000,0.001000,0.001000
1029.230769,0.046250,0.001000,0.001000,0.001000,0.001000,0.001000
1029.250000,0.046794,0.001000,0.001000,0.001000,0.001000,0.001000
1029.269231,0.047297,0.001000,0.001000,0.001000,0.001000,0.001000
1029.288462,0.047757,0.001000,0.001000,0.001000,0.001000,0.001000
1029.307692,0.048176,0.001000,0.001000,0.001000,0.001000,0.001000
1029.326923,0.048553,0.001000,0.001000,0.001000,0.001000,0.001000
1029.346154,0.048886,0.001000,0.001000,0.001000,0.001000,0.001000
1029.365385,0.049176,0.001000,0.001000,0.001000,0.001000,0.001000
1029.384615,0.049423,0.001000,0.001000,0.001000,0.001000,0.001000
1029.403846,0.049626,0.001000,0.001000,0.001000,0.001000,0.001000
1029.423077,0.049786,0.001000,0.001000,0.001000,0.001000,0.001000
1029.442308,0.049901,0.001000,0.001000,0.001000,0.001000,0.001000
1029.461538,0.049972,0.001000,0.001000,0.001000,0.001000,0.001000
1029.480769,0.050000,0.001000,0.001000,0.001000,0.001000,0.001000
1029.500000,0.049983,0.001000,0.001000,0.001000,0.001000,0.001000
1029.519231,0.049922,0.001000,0.001000,0.001000,0.001000,0.001000
1029.538462,0.049817,0.001000,0.001000,0.001000,0.001000,0.001000
1029.557692,0.049668,0.001000,0.001000,0.001000,0.001000,0.001000
1029.576923,0.049475,0.001000,0.001000,0.001000,0.001000,0.001000
1029.596154,0.049238,0.001000,0.001000,0.001000,0.001000,0.001000
1029.615385,0.048958,0.001000,0.001000,0.001000,0.001000,0.001000
1029.634615,0.048635,0.001000,0.001000,0.001000,0.001000,0.001000
1029.653846,0.048269,0.001000,0.001000,0.001000,0.001000,0.001000
1029.673077,0.047860,0.001000,0.001000,0.001000,0.001000,0.001000
1029.692308,0.047409,0.001000,0.001000,0.001000,0.001000,0.001000
1029.711538,0.046916,0.001000,0.001000,0.001000,0.001000,0.001000
1029.730769,0.046382,0.001000,0.001000,0.001000,0.001000,0.001000
1029.750000,0.045807,0.001000,0.001000,0.001000,0.001000,0.001000
1029.769231,0.045191,0.001000,0.001000,0.001000,0.001000,0.001000
1029.788462,0.044535,0.001000,0.001000,0.001000,0.001000,0.001000
1029.807692,0.043840,0.001000,0.001000,0.001000,0.001000,0.001000
1029.826923,0.043107,0.001000,0.001000,0.001000,0.001000,0.001000
1029.846154,0.042335,0.001000,0.001000,0.001000,0.001000,0.001000
1029.865385,0.041526,0.001000,0.001000,0.001000,0.001000,0.001000
1029.884615,0.040680,0.001000,0.001000,0.001000,0.001000,0.001000
1029.903846,0.039799,0.001000,0.001000,0.001000,0.001000,0.001000
1029.923077,0.038882,0.001000,0.001000,0.001000,0.001000,0.001000
1029.942308,0.037931,0.001000,0.001000,0.001000,0.001000,0.001000
1029.961538,0.036947,0.001000,0.001000,0.001000,0.001000,0.001000
1029.980769,0.035929,0.001000,0.001000,0.001000,0.001000,0.001000
1030.000000,0.000000,0.001000,0.001000,0.001000,0.001000,0.001000
1030.019231,0.001447,0.001000,0.001000,0.001000,0.001000,0.001000
1030.038462,0.002893,0.001000,0.001000,0.001000,0.001000,0.001000
1030.057692,0.004337,0.001000,0.001000,0.001000,0.001000,0.001000
1030.076923,0.005777,0.001000,0.001000,0.001000,0.001000,0.001000
1030.096154,0.007212,0.001000,0.001000,0.001000,0.001000,0.001000
1030.115385,0.008641,0.001000,0.001000,0.001000,0.001000,0.001000
1030.134615,0.010063,0.001000,0.001000,0.001000,0.001000,0.001000
1030.153846,0.011477,0.001000,0.001000,0.001000,0.001000,0.001000
1030.173077,0.012880,0.001000,0.001000,0.001000,0.001000,0.001000
1030.192308,0.014274,0.001000,0.001000,0.001000,0.001000,0.001000
1030.211538,0.015655,0.001000,0.001000,0.001000,0.001000,0.001000
1030.230769,0.017023,0.001000,0.001000,0.001000,0.001000,0.001000
1030.250000,0.018376,0.001000,0.001000,0.001000,0.001000,0.001000
1030.269231,0.019715,0.001000,0.001000,0.001000,0.001000,0.001000
1030.288462,0.021036,0.001000,0.001000,0.001000,0.001000,0.001000
1030.307692,0.022340,0.001000,0.001000,0.001000,0.001000,0.001000
1030.326923,0.023626,0.001000,0.001000,0.001000,0.001000,0.001000
1030.346154,0.024892,0.001000,0.001000,0.001000,0.001000,0.001000
1030.365385,0.026136,0.001000,0.001000,0.001000,0.001000,0.001000
1030.384615,0.027359,0.001000,0.001000,0.001000,0.001000,0.001000
1030.403846,0.028559,0.001000,0.001000,0.001000,0.001000,0.001000
1030.423077,0.029735,0.001000,0.001000,0.001000,0.001000,0.001000
1030.442308,0.030886,0.001000,0.001000,0.001000,0.001000,0.001000
1030.461538,0.032011,0.001000,0.001000,0.001000,0.001000,0.001000
1030.480769,0.033110,0.001000,0.001000,0.001000,0.001000,0.001000
1030.500000,0.034180,0.001000,0.001000,0.001000,0.001000,0.001000
1030.519231,0.035222,0.001000,0.001000,0.001000,0.001000,0.001000
1030.538462,0.036235,0.001000,0.001000,0.001000,0.001000,0.001000
1030.557692,0.037217,0.001000,0.001000,0.001000,0.001000,0.001000
1030.576923,0.038168,0.001000,0.001000,0.001000,0.001000,0.001000
1030.596154,0.039087,0.001000,0.001000,0.001000,0.001000,0.001000
1030.615385,0.039973,0.001000,0.001000,0.001000,0.001000,0.001000
1030.634615,0.040826,0.001000,0.001000,0.001000,0.001000,0.001000
1030.653846,0.041644,0.001000,0.001000,0.001000,0.001000,0.001000
1030.673077,0.042428,0.001000,0.001000,0.001000,0.001000,0.001000
1030.692308,0.043176,0.001000,0.001000,0.001000,0.001000,0.001000
1030.711538,0.043887,0.001000,0.001000,0.001000,0.001000,0.001000
1030.730769,0.044562,0.001000,0.001000,0.001000,0.001000,0.001000
1030.750000,0.045200,0.001000,0.001000,0.001000,0.001000,0.001000
1030.769231,0.045800,0.001000,0.001000,0.001000,0.001000,0.001000
1030.788462,0.046361,0.001000,0.001000,0.001000,0.001000,0.001000
1030.807692,0.046884,0.001000,0.001000,0.001000,0.001000,0.001000
1030.826923,0.047367,0.001000,0.001000,0.001000,0.001000,0.001000
1030.846154,0.047811,0.001000,0.001000,0.001000,0.001000,0.001000
1030.865385,0.048214,0.001000,0.001000,0.001000,0.001000,0.001000
1030.884615,0.048577,0.001000,0.001000,0.001000,0.001000,0.001000
1030.903846,0.048900,0.001000,0.001000,0.001000,0.001000,0.001000
1030.923077,0.049181,0.001000,0.001000,0.001000,0.001000,0.001000
1030.942308,0.049422,0.001000,0.001000,0.001000,0.001000,0.001000
1030.961538,0.049620,0.001000,0.001000,0.001000,0.001000,0.001000
1030.980769,0.049778,0.001000,0.001000,0.001000,0.001000,0.001000
1031.000000,0.049893,0.001000,0.001000,0.001000,0.001000,0.001000
1031.019231,0.049967,0.001000,0.001000,0.001000,0.001000,0.001000
1031.038462,0.049999,0.001000,0.001000,0.001000,0.001000,0.001000
1031.057692,0.049989,0.001000,0.001000,0.001000,0.001000,0.001000
1031.076923,0.049937,0.001000,0.001000,0.001000,0.001000,0.001000
1031.096154,0.049843,0.001000,0.001000,0.001000,0.001000,0.001000
1031.115385,0.049707,0.001000,0.001000,0.001000,0.001000,0.001000
1031.134615,0.049530,0.001000,0.001000,0.001000,0.001000,0.001000
1031.153846,0.049311,0.001000,0.001000,0.001000,0.001000,0.001000
1031.173077,0.049051,0.001000,0.001000,0.001000,0.001000,0.001000
1031.192308,0.048750,0.001000,0.001000,0.001000,0.001000,0.001000
1031.211538,0.048408,0.001000,0.001000,0.001000,0.001000,0.001000
1031.230769,0.048025,0.001000,0.001000,0.001000,0.001000,0.001000
1031.250000,0.047602,0.001000,0.001000,0.001000,0.001000,0.001000
1031.269231,0.047140,0.001000,0.001000,0.001000,0.001000,0.001000
1031.288462,0.046637,0.001000,0.001000,0.001000,0.001000,0.001000
1031.307692,0.046096,0.001000,0.001000,0.001000,0.001000,0.001000
1031.326923,0.045516,0.001000,0.001000,0.001000,0.001000,0.001000
1031.346154,0.044898,0.001000,0.001000,0.001000,0.001000,0.001000
1031.365385,0.044242,0.001000,0.001000,0.001000,0.001000,0.001000
1031.384615,0.043549,0.001000,0.001000,0.001000,0.001000,0.001000
1031.403846,0.042820,0.001000,0.001000,0.001000,0.001000,0.001000
1031.423077,0.042055,0.001000,0.001000,0.001000,0.001000,0.001000
1031.442308,0.041254,0.001000,0.001000,0.001000,0.001000,0.001000
1031.461538,0.040419,0.001000,0.001000,0.001000,0.001000,0.001000
1031.480769,0.039551,0.001000,0.001000,0.001000,0.001000,0.001000
1031.500000,0.038649,0.001000,0.001000,0.001000,0.001000,0.001000
1031.519231,0.037714,0.001000,0.001000,0.001000,0.001000,0.001000
1031.538462,0.036748,0.001000,0.001000,0.001000,0.001000,0.001000
1031.557692,0.035751,0.001000,0.001000,0.001000,0.001000,0.001000
1031.576923,0.034725,0.001000,0.001000,0.001000,0.001000,0.001000
1031.596154,0.033669,0.001000,0.001000,0.001000,0.001000,0.001000
1031.615385,0.032585,0.001000,0.001000,0.001000,0.001000,0.001000
1031.634615,0.031473,0.001000,0.001000,0.001000,0.001000,0.001000
1031.653846,0.030335,0.001000,0.001000,0.001000,0.001000,0.001000
1031.673077,0.029172,0.001000,0.001000,0.001000,0.001000,0.001000
1031.692308,0.027985,0.001000,0.001000,0.001000,0.001000,0.001000
1031.711538,0.026773,0.001000,0.001000,0.001000,0.001000,0.001000
1031.730769,0.025540,0.001000,0.001000,0.001000,0.001000,0.001000
1031.750000,0.024285,0.001000,0.001000,0.001000,0.001000,0.001000
1031.769231,0.023010,0.001000,0.001000,0.001000,0.001000,0.001000
1031.788462,0.021715,0.001000,0.001000,0.001000,0.001000,0.001000
1031.807692,0.020402,0.001000,0.001000,0.001000,0.001000,0.001000
1031.826923,0.019073,0.001000,0.001000,0.001000,0.001000,0.001000
1031.846154,0.017727,0.001000,0.001000,0.001000,0.001000,0.001000
1031.865385,0.016366,0.001000,0.001000,0.001000,0.001000,0.001000
1031.884615,0.014992,0.001000,0.001000,0.001000,0.001000,0.001000
1031.903846,0.013605,0.001000,0.001000,0.001000,0.001000,0.001000
1031.923077,0.012206,0.001000,0.001000,0.001000,0.001000,0.001000
1031.942308,0.010798,0.001000,0.001000,0.001000,0.001000,0.001000
1031.961538,0.009380,0.001000,0.001000,0.001000,0.001000,0.001000
1031.980769,0.007954,0.001000,0.001000,0.001000,0.001000,0.001000
1032.000000,0.006522,0.001000,0.001000,0.001000,0.001000,0.001000
1032.019231,0.005085,0.001000,0.001000,0.001000,0.001000,0.001000
1032.038462,0.003643,0.001000,0.001000,0.001000,0.001000,0.001000
1032.057692,0.002198,0.001000,0.001000,0.001000,0.001000,0.001000
1032.076923,0.000751,0.001000,0.001000,0.001000,0.001000,0.001000
1032.096154,-0.000697,0.001000,0.001000,0.001000,0.001000,0.001000
1032.115385,-0.002143,0.001000,0.001000,0.001000,0.001000,0.001000
1032.134615,-0.003588,0.001000,0.001000,0.001000,0.001000,0.001000
1032.153846,-0.005031,0.001000,0.001000,0.001000,0.001000,0.001000
1032.173077,-0.006468,0.001000,0.001000,0.001000,0.001000,0.001000
1032.192308,-0.007901,0.001000,0.001000,0.001000,0.001000,0.001000
1032.211538,-0.009327,0.001000,0.001000,0.001000,0.001000,0.001000
1032.230769,-0.010745,0.001000,0.001000,0.001000,0.001000,0.001000
1032.250000,-0.012154,0.001000,0.001000,0.001000,0.001000,0.001000
1032.269231,-0.013552,0.001000,0.001000,0.001000,0.001000,0.001000
1032.288462,-0.014940,0.001000,0.001000,0.001000,0.001000,0.001000
1032.307692,-0.016315,0.001000,0.001000,0.001000,0.001000,0.001000
1032.326923,-0.017676,0.001000,0.001000,0.001000,0.001000,0.001000
1032.346154,-0.019022,0.001000,0.001000,0.001000,0.001000,0.001000
1032.365385,-0.020353,0.001000,0.001000,0.001000,0.001000,0.001000
1032.384615,-0.021666,0.001000,0.001000,0.001000,0.001000,0.001000
1032.403846,-0.022961,0.001000,0.001000,0.001000,0.001000,0.001000
1032.423077,-0.024238,0.001000,0.001000,0.001000,0.001000,0.001000
1032.442308,-0.025493,0.001000,0.001000,0.001000,0.001000,0.001000
1032.461538,-0.026728,0.001000,0.001000,0.001000,0.001000,0.001000
1032.480769,-0.027940,0.001000,0.001000,0.001000,0.001000,0.001000
1032.500000,-0.029128,0.001000,0.001000,0.001000,0.001000,0.001000
1032.519231,-0.030292,0.001000,0.001000,0.001000,0.001000,0.001000
1032.538462,-0.031431,0.001000,0.001000,0.001000,0.001000,0.001000
1032.557692,-0.032543,0.001000,0.001000,0.001000,0.001000,0.001000
1032.576923,-0.033628,0.001000,0.001000,0.001000,0.001000,0.001000
1032.596154,-0.034685,0.001000,0.001000,0.001000,0.001000,0.001000
1032.615385,-0.035713,0.001000,0.001000,0.001000,0.001000,0.001000
1032.634615,-0.036711,0.001000,0.001000,0.001000,0.001000,0.001000
1032.653846,-0.037678,0.001000,0.001000,0.001000,0.001000,0.001000
1032.673077,-0.038614,0.001000,0.001000,0.001000,0.001000,0.001000
1032.692308,-0.039517,0.001000,0.001000,0.001000,0.001000,0.001000
1032.711538,-0.040387,0.001000,0.001000,0.001000,0.001000,0.001000
1032.730769,-0.041224,0.001000,0.001000,0.001000,0.001000,0.001000
1032.750000,-0.042025,0.001000,0.001000,0.001000,0.001000,0.001000
1032.769231,-0.042792,0.001000,0.001000,0.001000,0.001000,0.001000
1032.788462,-0.043523,0.001000,0.001000,0.001000,0.001000,0.001000
1032.807692,-0.044217,0.001000,0.001000,0.001000,0.001000,0.001000
1032.826923,-0.044874,0.001000,0.001000,0.001000,0.001000,0.001000
1032.846154,-0.045494,0.001000,0.001000,0.001000,0.001000,0.001000
1032.865385,-0.046075,0.001000,0.001000,0.001000,0.001000,0.001000
1032.884615,-0.046618,0.001000,0.001000,0.001000,0.001000,0.001000
1032.903846,-0.047121,0.001000,0.001000,0.001000,0.001000,0.001000
1032.923077,-0.047586,0.001000,0.001000,0.001000,0.001000,0.001000
1032.942308,-0.048010,0.001000,0.001000,0.001000,0.001000,0.001000
1032.961538,-0.048394,0.001000,0.001000,0.001000,0.001000,0.001000
1032.980769,-0.048738,0.001000,0.001000,0.001000,0.001000,0.001000
1033.000000,-0.049040,0.001000,0.001000,0.001000,0.001000,0.001000
1033.019231,-0.049302,0.001000,0.001000,0.001000,0.001000,0.001000
1033.038462,-0.049522,0.001000,0.001000,0.001000,0.001000,0.001000
1033.057692,-0.049701,0.001000,0.001000,0.001000,0.001000,0.001000
1033.076923,-0.049838,0.001000,0.001000,0.001000,0.001000,0.001000
1033.096154,-0.049934,0.001000,0.001000,0.001000,0.001000,0.001000
1033.115385,-0.049987,0.001000,0.001000,0.001000,0.001000,0.001000
1033.134615,-0.049999,0.001000,0.001000,0.001000,0.001000,0.001000
1033.153846,-0.049969,0.001000,0.001000,0.001000,0.001000,0.001000
1033.173077,-0.049897,0.001000,0.001000,0.001000,0.001000,0.001000
1033.192308,-0.049783,0.001000,0.001000,0.001000,0.001000,0.001000
1033.211538,-0.049627,0.001000,0.001000,0.001000,0.001000,0.001000
1033.230769,-0.049430,0.001000,0.001000,0.001000,0.001000,0.001000
1033.250000,-0.049191,0.001000,0.001000,0.001000,0.001000,0.001000
1033.269231,-0.048911,0.001000,0.001000,0.001000,0.001000,0.001000
1033.288462,-0.048590,0.001000,0.001000,0.001000,0.001000,0.001000
1033.307692,-0.048229,0.001000,0.001000,0.001000,0.001000,0.001000
1033.326923,-0.047827,0.001000,0.001000,0.001000,0.001000,0.001000
1033.346154,-0.047385,0.001000,0.001000,0.001000,0.001000,0.001000
1033.365385,-0.046903,0.001000,0.001000,0.001000,0.001000,0.001000
1033.384615,-0.046382,0.001000,0.001000,0.001000,0.001000,0.001000
1033.403846,-0.045822,0.001000,0.001000,0.001000,0.001000,0.001000
1033.423077,-0.045223,0.001000,0.001000,0.001000,0.001000,0.001000
1033.442308,-0.044587,0.001000,0.001000,0.001000,0.001000,0.001000
1033.461538,-0.043913,0.001000,0.001000,0.001000,0.001000,0.001000
1033.480769,-0.043203,0.001000,0.001000,0.001000,0.001000,0.001000
1033.500000,-0.042456,0.001000,0.001000,0.001000,0.001000,0.001000
1033.519231,-0.041674,0.001000,0.001000,0.001000,0.001000,0.001000
1033.538462,-0.040857,0.001000,0.001000,0.001000,0.001000,0.001000
1033.557692,-0.040006,0.001000,0.001000,0.001000,0.001000,0.001000
1033.576923,-0.039121,0.001000,0.001000,0.001000,0.001000,0.001000
1033.596154,-0.038203,0.001000,0.001000,0.001000,0.001000,0.001000
1033.615385,-0.037253,0.001000,0.001000,0.001000,0.001000,0.001000
1033.634615,-0.036272,0.001000,0.001000,0.001000,0.001000,0.001000
1033.653846,-0.035261,0.001000,0.001000,0.001000,0.001000,0.001000
1033.673077,-0.034220,0.001000,0.001000,0.001000,0.001000,0.001000
1033.692308,-0.033150,0.001000,0.001000,0.001000,0.001000,0.001000
1033.711538,-0.032053,0.001000,0.001000,0.001000,0.001000,0.001000
1033.730769,-0.030929,0.001000,0.001000,0.001000,0.001000,0.001000
1033.750000,-0.029779,0.001000,0.001000,0.001000,0.001000,0.001000
1033.769231,-0.028604,0.001000,0.001000,0.001000,0.001000,0.001000
1033.788462,-0.027405,0.001000,0.001000,0.001000,0.001000,0.001000
1033.807692,-0.026183,0.001000,0.001000,0.001000,0.001000,0.001000
1033.826923,-0.024939,0.001000,0.001000,0.001000,0.001000,0.001000
1033.846154,-0.023674,0.001000,0.001000,0.001000,0.001000,0.001000
1033.865385,-0.022389,0.001000,0.001000,0.001000,0.001000,0.001000
1033.884615,-0.021086,0.001000,0.001000,0.001000,0.001000,0.001000
1033.903846,-0.019764,0.001000,0.001000,0.001000,0.001000,0.001000
1033.923077,-0.018427,0.001000,0.001000,0.001000,0.001000,0.001000
1033.942308,-0.017074,0.001000,0.001000,0.001000,0.001000,0.001000
1033.961538,-0.015706,0.001000,0.001000,0.001000,0.001000,0.001000
1033.980769,-0.014326,0.001000,0.001000,0.001000,0.001000,0.001000
1034.000000,-0.012933,0.001000,0.001000,0.001000,0.001000,0.001000
1034.019231,-0.011530,0.001000,0.001000,0.001000,0.001000,0.001000
1034.038462,-0.010116,0.001000,0.001000,0.001000,0.001000,0.001000
1034.057692,-0.008695,0.001000,0.001000,0.001000,0.001000,0.001000
1034.076923,-0.007266,0.001000,0.001000,0.001000,0.001000,0.001000
1034.096154,-0.005831,0.001000,0.001000,0.001000,0.001000,0.001000
1034.115385,-0.004391,0.001000,0.001000,0.001000,0.001000,0.001000
1034.134615,-0.002948,0.001000,0.001000,0.001000,0.001000,0.001000
1034.153846,-0.001502,0.001000,0.001000,0.001000,0.001000,0.001000
1034.173077,-0.000054,0.001000,0.001000,0.001000,0.001000,0.001000
1034.192308,0.001393,0.001000,0.001000,0.001000,0.001000,0.001000
1034.211538,0.002839,0.001000,0.001000,0.001000,0.001000,0.001000
1034.230769,0.004283,0.001000,0.001000,0.001000,0.001000,0.001000
1034.250000,0.005723,0.001000,0.001000,0.001000,0.001000,0.001000
1034.269231,0.007158,0.001000,0.001000,0.001000,0.001000,0.001000
1034.288462,0.008588,0.001000,0.001000,0.001000,0.001000,0.001000
1034.307692,0.010010,0.001000,0.001000,0.001000,0.001000,0.001000
1034.326923,0.011424,0.001000,0.001000,0.001000,0.001000,0.001000
1034.346154,0.012828,0.001000,0.001000,0.001000,0.001000,0.001000
1034.365385,0.014221,0.001000,0.001000,0.001000,0.001000,0.001000
1034.384615,0.015603,0.001000,0.001000,0.001000,0.001000,0.001000
1034.403846,0.016971,0.001000,0.001000,0.001000,0.001000,0.001000
1034.423077,0.018326,0.001000,0.001000,0.001000,0.001000,0.001000
1034.442308,0.019665,0.001000,0.001000,0.001000,0.001000,0.001000
1034.461538,0.020987,0.001000,0.001000,0.001000,0.001000,0.001000
1034.480769,0.022292,0.001000,0.001000,0.001000,0.001000,0.001000
1034.500000,0.023578,0.001000,0.001000,0.001000,0.001000,0.001000
1034.519231,0.024844,0.001000,0.001000,0.001000,0.001000,0.001000
1034.538462,0.026090,0.001000,0.001000,0.001000,0.001000,0.001000
1034.557692,0.027314,0.001000,0.001000,0.001000,0.001000,0.001000
1034.576923,0.028514,0.001000,0.001000,0.001000,0.001000,0.001000
1034.596154,0.029691,0.001000,0.001000,0.001000,0.001000,0.001000
1034.615385,0.030843,0.001000,0.001000,0.001000,0.001000,0.001000
1034.634615,0.031970,0.001000,0.001000,0.001000,0.001000,0.001000
1034.653846,0.033069,0.001000,0.001000,0.001000,0.001000,0.001000
1034.673077,0.034141,0.001000,0.001000,0.001000,0.001000,0.001000
