timestamp,ax,ay,az,gx,gy,gz
1000.000000,0.000000,0.001000,0.001000,0.001000,0.001000,0.001000
1000.019231,0.001456,0.001000,0.001000,0.001000,0.001000,0.001000
1000.038462,0.002912,0.001000,0.001000,0.001000,0.001000,0.001000
1000.057692,0.004364,0.001000,0.001000,0.001000,0.001000,0.001000
1000.076923,0.005814,0.001000,0.001000,0.001000,0.001000,0.001000
1000.096154,0.007258,0.001000,0.001000,0.001000,0.001000,0.001000
1000.115385,0.008696,0.001000,0.001000,0.001000,0.001000,0.001000
1000.134615,0.010126,0.001000,0.001000,0.001000,0.001000,0.001000
1000.153846,0.011548,0.001000,0.001000,0.001000,0.001000,0.001000
1000.173077,0.012960,0.001000,0.001000,0.001000,0.001000,0.001000
1000.192308,0.014362,0.001000,0.001000,0.001000,0.001000,0.001000
1000.211538,0.015751,0.001000,0.001000,0.001000,0.001000,0.001000
1000.230769,0.017126,0.001000,0.001000,0.001000,0.001000,0.001000
1000.250000,0.018487,0.001000,0.001000,0.001000,0.001000,0.001000
1000.269231,0.019833,0.001000,0.001000,0.001000,0.001000,0.001000
1000.288462,0.021161,0.001000,0.001000,0.001000,0.001000,0.001000
1000.307692,0.022472,0.001000,0.001000,0.001000,0.001000,0.001000
1000.326923,0.023764,0.001000,0.001000,0.001000,0.001000,0.001000
1000.346154,0.025035,0.001000,0.001000,0.001000,0.001000,0.001000
1000.365385,0.026285,0.001000,0.001000,0.001000,0.001000,0.001000
1000.384615,0.027513,0.001000,0.001000,0.001000,0.001000,0.001000
1000.403846,0.028717,0.001000,0.001000,0.001000,0.001000,0.001000
1000.423077,0.029898,0.001000,0.001000,0.001000,0.001000,0.001000
1000.442308,0.031052,0.001000,0.001000,0.001000,0.001000,0.001000
1000.461538,0.032181,0.001000,0.001000,0.001000,0.001000,0.001000
1000.480769,0.033282,0.001000,0.001000,0.001000,0.001000,0.001000
1000.500000,0.034355,0.001000,0.001000,0.001000,0.001000,0.001000
1000.519231,0.035398,0.001000,0.001000,0.001000,0.001000,0.001000
1000.538462,0.036412,0.001000,0.001000,0.001000,0.001000,0.001000
1000.557692,0.037395,0.001000,0.001000,0.001000,0.001000,0.001000
1000.576923,0.038346,0.001000,0.001000,0.001000,0.001000,0.001000
1000.596154,0.039264,0.001000,0.001000,0.001000,0.001000,0.001000
1000.615385,0.040149,0.001000,0.001000,0.001000,0.001000,0.001000
1000.634615,0.041000,0.001000,0.001000,0.001000,0.001000,0.001000
1000.653846,0.041816,0.001000,0.001000,0.001000,0.001000,0.001000
1000.673077,0.042597,0.001000,0.001000,0.001000,0.001000,0.001000
1000.692308,0.043342,0.001000,0.001000,0.001000,0.001000,0.001000
1000.711538,0.044049,0.001000,0.001000,0.001000,0.001000,0.001000
1000.730769,0.044720,0.001000,0.001000,0.001000,0.001000,0.001000
1000.750000,0.045352,0.001000,0.001000,0.001000,0.001000,0.001000
1000.769231,0.045946,0.001000,0.001000,0.001000,0.001000,0.001000
1000.788462,0.046501,0.001000,0.001000,0.001000,0.001000,0.001000
1000.807692,0.047017,0.001000,0.001000,0.001000,0.001000,0.001000
1000.826923,0.047492,0.001000,0.001000,0.001000,0.001000,0.001000
1000.846154,0.047928,0.001000,0.001000,0.001000,0.001000,0.001000
1000.865385,0.048322,0.001000,0.001000,0.001000,0.001000,0.001000
1000.884615,0.048676,0.001000,0.001000,0.001000,0.001000,0.001000
1000.903846,0.048988,0.001000,0.001000,0.001000,0.001000,0.001000
1000.923077,0.049259,0.001000,0.001000,0.001000,0.001000,0.001000
1000.942308,0.049488,0.001000,0.001000,0.001000,0.001000,0.001000
1000.961538,0.049675,0.001000,0.001000,0.001000,0.001000,0.001000
1000.980769,0.049820,0.001000,0.001000,0.001000,0.001000,0.001000
1001.000000,0.049922,0.001000,0.001000,0.001000,0.001000,0.001000
1001.019231,0.049982,0.001000,0.001000,0.001000,0.001000,0.001000
1001.038462,0.050000,0.001000,0.001000,0.001000,0.001000,0.001000
1001.057692,0.049975,0.001000,0.001000,0.001000,0.001000,0.001000
1001.076923,0.049908,0.001000,0.001000,0.001000,0.001000,0.001000
1001.096154,0.049798,0.001000,0.001000,0.001000,0.001000,0.001000
1001.115385,0.049647,0.001000,0.001000,0.001000,0.001000,0.001000
1001.134615,0.049453,0.001000,0.001000,0.001000,0.001000,0.001000
1001.153846,0.049217,0.001000,0.001000,0.001000,0.001000,0.001000
1001.173077,0.048939,0.001000,0.001000,0.001000,0.001000,0.001000
1001.192308,0.048620,0.001000,0.001000,0.001000,0.001000,0.001000
1001.211538,0.048259,0.001000,0.001000,0.001000,0.001000,0.001000
1001.230769,0.047858,0.001000,0.001000,0.001000,0.001000,0.001000
1001.250000,0.047416,0.001000,0.001000,0.001000,0.001000,0.001000
1001.269231,0.046934,0.001000,0.001000,0.001000,0.001000,0.001000
1001.288462,0.046412,0.001000,0.001000,0.001000,0.001000,0.001000
1001.307692,0.045850,0.001000,0.001000,0.001000,0.001000,0.001000
1001.326923,0.045250,0.001000,0.001000,0.001000,0.001000,0.001000
1001.346154,0.044611,0.001000,0.001000,0.001000,0.001000,0.001000
1001.365385,0.043934,0.001000,0.001000,0.001000,0.001000,0.001000
1001.384615,0.043220,0.001000,0.001000,0.001000,0.001000,0.001000
1001.403846,0.042470,0.001000,0.001000,0.001000,0.001000,0.001000
1001.423077,0.041683,0.001000,0.001000,0.001000,0.001000,0.001000
1001.442308,0.040861,0.001000,0.001000,0.001000,0.001000,0.001000
1001.461538,0.040004,0.001000,0.001000,0.001000,0.001000,0.001000
1001.480769,0.039113,0.001000,0.001000,0.001000,0.001000,0.001000
1001.500000,0.038189,0.001000,0.001000,0.001000,0.001000,0.001000
1001.519231,0.037233,0.001000,0.001000,0.001000,0.001000,0.001000
1001.538462,0.036245,0.001000,0.001000,0.001000,0.001000,0.001000
1001.557692,0.035226,0.001000,0.001000,0.001000,0.001000,0.001000
1001.576923,0.034178,0.001000,0.001000,0.001000,0.001000,0.001000
1001.596154,0.033100,0.001000,0.001000,0.001000,0.001000,0.001000
1001.615385,0.031995,0.001000,0.001000,0.001000,0.001000,0.001000
1001.634615,0.030862,0.001000,0.001000,0.001000,0.001000,0.001000
1001.653846,0.029703,0.001000,0.001000,0.001000,0.001000,0.001000
1001.673077,0.028519,0.001000,0.001000,0.001000,0.001000,0.001000
1001.692308,0.027310,0.001000,0.001000,0.001000,0.001000,0.001000
1001.711538,0.026078,0.001000,0.001000,0.001000,0.001000,0.001000
1001.730769,0.024825,0.001000,0.001000,0.001000,0.001000,0.001000
1001.750000,0.023550,0.001000,0.001000,0.001000,0.001000,0.001000
1001.769231,0.022255,0.001000,0.001000,0.001000,0.001000,0.001000
1001.788462,0.020941,0.001000,0.001000,0.001000,0.001000,0.001000
1001.807692,0.019610,0.001000,0.001000,0.001000,0.001000,0.001000
1001.826923,0.018262,0.001000,0.001000,0.001000,0.001000,0.001000
1001.846154,0.016898,0.001000,0.001000,0.001000,0.001000,0.001000
1001.865385,0.015520,0.001000,0.001000,0.001000,0.001000,0.001000
1001.884615,0.014129,0.001000,0.001000,0.001000,0.001000,0.001000
1001.903846,0.012726,0.001000,0.001000,0.001000,0.001000,0.001000
1001.923077,0.011312,0.001000,0.001000,0.001000,0.001000,0.001000
1001.942308,0.009889,0.001000,0.001000,0.001000,0.001000,0.001000
1001.961538,0.008457,0.001000,0.001000,0.001000,0.001000,0.001000
1001.980769,0.007018,0.001000,0.001000,0.001000,0.001000,0.001000
1002.000000,0.005573,0.001000,0.001000,0.001000,0.001000,0.001000
1002.019231,0.004123,0.001000,0.001000,0.001000,0.001000,0.001000
1002.038462,0.002670,0.001000,0.001000,0.001000,0.001000,0.001000
1002.057692,0.001214,0.001000,0.001000,0.001000,0.001000,0.001000
1002.076923,-0.000243,0.001000,0.001000,0.001000,0.001000,0.001000
1002.096154,-0.001699,0.001000,0.001000,0.001000,0.001000,0.001000
1002.115385,-0.003154,0.001000,0.001000,0.001000,0.001000,0.001000
1002.134615,-0.004606,0.001000,0.001000,0.001000,0.001000,0.001000
1002.153846,-0.006054,0.001000,0.001000,0.001000,0.001000,0.001000
1002.173077,-0.007498,0.001000,0.001000,0.001000,0.001000,0.001000
1002.192308,-0.008934,0.001000,0.001000,0.001000,0.001000,0.001000
1002.211538,-0.010364,0.001000,0.001000,0.001000,0.001000,0.001000
1002.230769,-0.011784,0.001000,0.001000,0.001000,0.001000,0.001000
1002.250000,-0.013195,0.001000,0.001000,0.001000,0.001000,0.001000
1002.269231,-0.014594,0.001000,0.001000,0.001000,0.001000,0.001000
1002.288462,-0.015981,0.001000,0.001000,0.001000,0.001000,0.001000
1002.307692,-0.017354,0.001000,0.001000,0.001000,0.001000,0.001000
1002.326923,-0.018713,0.001000,0.001000,0.001000,0.001000,0.001000
1002.346154,-0.020055,0.001000,0.001000,0.001000,0.001000,0.001000
1002.365385,-0.021381,0.001000,0.001000,0.001000,0.001000,0.001000
1002.384615,-0.022689,0.001000,0.001000,0.001000,0.001000,0.001000
1002.403846,-0.023977,0.001000,0.001000,0.001000,0.001000,0.001000
1002.423077,-0.025245,0.001000,0.001000,0.001000,0.001000,0.001000
1002.442308,-0.026491,0.001000,0.001000,0.001000,0.001000,0.001000
1002.461538,-0.027715,0.001000,0.001000,0.001000,0.001000,0.001000
1002.480769,-0.028916,0.001000,0.001000,0.001000,0.001000,0.001000
1002.500000,-0.030092,0.001000,0.001000,0.001000,0.001000,0.001000
1002.519231,-0.031242,0.001000,0.001000,0.001000,0.001000,0.001000
1002.538462,-0.032366,0.001000,0.001000,0.001000,0.001000,0.001000
1002.557692,-0.033462,0.001000,0.001000,0.001000,0.001000,0.001000
1002.576923,-0.034530,0.001000,0.001000,0.001000,0.001000,0.001000
1002.596154,-0.035569,0.001000,0.001000,0.001000,0.001000,0.001000
1002.615385,-0.036578,0.001000,0.001000,0.001000,0.001000,0.001000
1002.634615,-0.037555,0.001000,0.001000,0.001000,0.001000,0.001000
1002.653846,-0.038501,0.001000,0.001000,0.001000,0.001000,0.001000
1002.673077,-0.039414,0.001000,0.001000,0.001000,0.001000,0.001000
1002.692308,-0.040293,0.001000,0.001000,0.001000,0.001000,0.001000
1002.711538,-0.041138,0.001000,0.001000,0.001000,0.001000,0.001000
1002.730769,-0.041949,0.001000,0.001000,0.001000,0.001000,0.001000
1002.750000,-0.042724,0.001000,0.001000,0.001000,0.001000,0.001000
1002.769231,-0.043462,0.001000,0.001000,0.001000,0.001000,0.001000
1002.788462,-0.044164,0.001000,0.001000,0.001000,0.001000,0.001000
1002.807692,-0.044828,0.001000,0.001000,0.001000,0.001000,0.001000
1002.826923,-0.045454,0.001000,0.001000,0.001000,0.001000,0.001000
1002.846154,-0.046041,0.001000,0.001000,0.001000,0.001000,0.001000
1002.865385,-0.046590,0.001000,0.001000,0.001000,0.001000,0.001000
1002.884615,-0.047099,0.001000,0.001000,0.001000,0.001000,0.001000
1002.903846,-0.047568,0.001000,0.001000,0.001000,0.001000,0.001000
1002.923077,-0.047996,0.001000,0.001000,0.001000,0.001000,0.001000
1002.942308,-0.048384,0.001000,0.001000,0.001000,0.001000,0.001000
1002.961538,-0.048731,0.001000,0.001000,0.001000,0.001000,0.001000
1002.980769,-0.049036,0.001000,0.001000,0.001000,0.001000,0.001000
1003.000000,-0.049300,0.001000,0.001000,0.001000,0.001000,0.001000
1003.019231,-0.049522,0.001000,0.001000,0.001000,0.001000,0.001000
1003.038462,-0.049702,0.001000,0.001000,0.001000,0.001000,0.001000
1003.057692,-0.049840,0.001000,0.001000,0.001000,0.001000,0.001000
1003.076923,-0.049935,0.001000,0.001000,0.001000,0.001000,0.001000
1003.096154,-0.049988,0.001000,0.001000,0.001000,0.001000,0.001000
1003.115385,-0.049999,0.001000,0.001000,0.001000,0.001000,0.001000
1003.134615,-0.049967,0.001000,0.001000,0.001000,0.001000,0.001000
1003.153846,-0.049893,0.001000,0.001000,0.001000,0.001000,0.001000
1003.173077,-0.049776,0.001000,0.001000,0.001000,0.001000,0.001000
1003.192308,-0.049617,0.001000,0.001000,0.001000,0.001000,0.001000
1003.211538,-0.049416,0.001000,0.001000,0.001000,0.001000,0.001000
1003.230769,-0.049173,0.001000,0.001000,0.001000,0.001000,0.001000
1003.250000,-0.048889,0.001000,0.001000,0.001000,0.001000,0.001000
1003.269231,-0.048563,0.001000,0.001000,0.001000,0.001000,0.001000
1003.288462,-0.048195,0.001000,0.001000,0.001000,0.001000,0.001000
1003.307692,-0.047787,0.001000,0.001000,0.001000,0.001000,0.001000
1003.326923,-0.047338,0.001000,0.001000,0.001000,0.001000,0.001000
1003.346154,-0.046850,0.001000,0.001000,0.001000,0.001000,0.001000
1003.365385,-0.046321,0.001000,0.001000,0.001000,0.001000,0.001000
1003.384615,-0.045753,0.001000,0.001000,0.001000,0.001000,0.001000
1003.403846,-0.045146,0.001000,0.001000,0.001000,0.001000,0.001000
1003.423077,-0.044501,0.001000,0.001000,0.001000,0.001000,0.001000
1003.442308,-0.043818,0.001000,0.001000,0.001000,0.001000,0.001000
1003.461538,-0.043098,0.001000,0.001000,0.001000,0.001000,0.001000
1003.480769,-0.042341,0.001000,0.001000,0.001000,0.001000,0.001000
1003.500000,-0.041548,0.001000,0.001000,0.001000,0.001000,0.001000
1003.519231,-0.040720,0.001000,0.001000,0.001000,0.001000,0.001000
1003.538462,-0.039858,0.001000,0.001000,0.001000,0.001000,0.001000
1003.557692,-0.038962,0.001000,0.001000,0.001000,0.001000,0.001000
1003.576923,-0.038032,0.001000,0.001000,0.001000,0.001000,0.001000
1003.596154,-0.037071,0.001000,0.001000,0.001000,0.001000,0.001000
1003.615385,-0.036078,0.001000,0.001000,0.001000,0.001000,0.001000
1003.634615,-0.035054,0.001000,0.001000,0.001000,0.001000,0.001000
1003.653846,-0.034000,0.001000,0.001000,0.001000,0.001000,0.001000
1003.673077,-0.032918,0.001000,0.001000,0.001000,0.001000,0.001000
1003.692308,-0.031808,0.001000,0.001000,0.001000,0.001000,0.001000
1003.711538,-0.030671,0.001000,0.001000,0.001000,0.001000,0.001000
1003.730769,-0.029507,0.001000,0.001000,0.001000,0.001000,0.001000
1003.750000,-0.028319,0.001000,0.001000,0.001000,0.001000,0.001000
1003.769231,-0.027107,0.001000,0.001000,0.001000,0.001000,0.001000
1003.788462,-0.025871,0.001000,0.001000,0.001000,0.001000,0.001000
1003.807692,-0.024614,0.001000,0.001000,0.001000,0.001000,0.001000
1003.826923,-0.023336,0.001000,0.001000,0.001000,0.001000,0.001000
1003.846154,-0.022038,0.001000,0.001000,0.001000,0.001000,0.001000
1003.865385,-0.020721,0.001000,0.001000,0.001000,0.001000,0.001000
1003.884615,-0.019387,0.001000,0.001000,0.001000,0.001000,0.001000
1003.903846,-0.018036,0.001000,0.001000,0.001000,0.001000,0.001000
1003.923077,-0.016670,0.001000,0.001000,0.001000,0.001000,0.001000
1003.942308,-0.015289,0.001000,0.001000,0.001000,0.001000,0.001000
1003.961538,-0.013896,0.001000,0.001000,0.001000,0.001000,0.001000
1003.980769,-0.012491,0.001000,0.001000,0.001000,0.001000,0.001000
1004.000000,-0.011076,0.001000,0.001000,0.001000,0.001000,0.001000
1004.019231,-0.009651,0.001000,0.001000,0.001000,0.001000,0.001000
1004.038462,-0.008218,0.001000,0.001000,0.001000,0.001000,0.001000
1004.057692,-0.006777,0.001000,0.001000,0.001000,0.001000,0.001000
1004.076923,-0.005331,0.001000,0.001000,0.001000,0.001000,0.001000
1004.096154,-0.003881,0.001000,0.001000,0.001000,0.001000,0.001000
1004.115385,-0.002427,0.001000,0.001000,0.001000,0.001000,0.001000
1004.134615,-0.000971,0.001000,0.001000,0.001000,0.001000,0.001000
1004.153846,0.000485,0.001000,0.001000,0.001000,0.001000,0.001000
1004.173077,0.001941,0.001000,0.001000,0.001000,0.001000,0.001000
1004.192308,0.003396,0.001000,0.001000,0.001000,0.001000,0.001000
1004.211538,0.004848,0.001000,0.001000,0.001000,0.001000,0.001000
1004.230769,0.006295,0.001000,0.001000,0.001000,0.001000,0.001000
1004.250000,0.007737,0.001000,0.001000,0.001000,0.001000,0.001000
1004.269231,0.009173,0.001000,0.001000,0.001000,0.001000,0.001000
1004.288462,0.010601,0.001000,0.001000,0.001000,0.001000,0.001000
1004.307692,0.012020,0.001000,0.001000,0.001000,0.001000,0.001000
1004.326923,0.013428,0.001000,0.001000,0.001000,0.001000,0.001000
1004.346154,0.014826,0.001000,0.001000,0.001000,0.001000,0.001000
1004.365385,0.016210,0.001000,0.001000,0.001000,0.001000,0.001000
1004.384615,0.017581,0.001000,0.001000,0.001000,0.001000,0.001000
1004.403846,0.018937,0.001000,0.001000,0.001000,0.001000,0.001000
1004.423077,0.020277,0.001000,0.001000,0.001000,0.001000,0.001000
1004.442308,0.021600,0.001000,0.001000,0.001000,0.001000,0.001000
1004.461538,0.022904,0.001000,0.001000,0.001000,0.001000,0.001000
1004.480769,0.024189,0.001000,0.001000,0.001000,0.001000,0.001000
1004.500000,0.025454,0.001000,0.001000,0.001000,0.001000,0.001000
1004.519231,0.026697,0.001000,0.001000,0.001000,0.001000,0.001000
1004.538462,0.027917,0.001000,0.001000,0.001000,0.001000,0.001000
1004.557692,0.029113,0.001000,0.001000,0.001000,0.001000,0.001000
1004.576923,0.030285,0.001000,0.001000,0.001000,0.001000,0.001000
1004.596154,0.031431,0.001000,0.001000,0.001000,0.001000,0.001000
1004.615385,0.032550,0.001000,0.001000,0.001000,0.001000,0.001000
1004.634615,0.033642,0.001000,0.001000,0.001000,0.001000,0.001000
1004.653846,0.034705,0.001000,0.001000,0.001000,0.001000,0.001000
1004.673077,0.035739,0.001000,0.001000,0.001000,0.001000,0.001000
1004.692308,0.036743,0.001000,0.001000,0.001000,0.001000,0.001000
1004.711538,0.037715,0.001000,0.001000,0.001000,0.001000,0.001000
1004.730769,0.038655,0.001000,0.001000,0.001000,0.001000,0.001000
1004.750000,0.039562,0.001000,0.001000,0.001000,0.001000,0.001000
1004.769231,0.040436,0.001000,0.001000,0.001000,0.001000,0.001000
1004.788462,0.041276,0.001000,0.001000,0.001000,0.001000,0.001000
1004.807692,0.042080,0.001000,0.001000,0.001000,0.001000,0.001000
1004.826923,0.042849,0.001000,0.001000,0.001000,0.001000,0.001000
1004.846154,0.043582,0.001000,0.001000,0.001000,0.001000,0.001000
1004.865385,0.044277,0.001000,0.001000,0.001000,0.001000,0.001000
1004.884615,0.044935,0.001000,0.001000,0.001000,0.001000,0.001000
1004.903846,0.045554,0.001000,0.001000,0.001000,0.001000,0.001000
1004.923077,0.046136,0.001000,0.001000,0.001000,0.001000,0.001000
1004.942308,0.046677,0.001000,0.001000,0.001000,0.001000,0.001000
1004.961538,0.047180,0.001000,0.001000,0.001000,0.001000,0.001000
1004.980769,0.047642,0.001000,0.001000,0.001000,0.001000,0.001000
1005.000000,0.048064,0.001000,0.001000,0.001000,0.001000,0.001000
1005.019231,0.048445,0.001000,0.001000,0.001000,0.001000,0.001000
1005.038462,0.048785,0.001000,0.001000,0.001000,0.001000,0.001000
1005.057692,0.049083,0.001000,0.001000,0.001000,0.001000,0.001000
1005.076923,0.049340,0.001000,0.001000,0.001000,0.001000,0.001000
1005.096154,0.049555,0.001000,0.001000,0.001000,0.001000,0.001000
1005.115385,0.049728,0.001000,0.001000,0.001000,0.001000,0.001000
1005.134615,0.049858,0.001000,0.001000,0.001000,0.001000,0.001000
1005.153846,0.049947,0.001000,0.001000,0.001000,0.001000,0.001000
1005.173077,0.049993,0.001000,0.001000,0.001000,0.001000,0.001000
1005.192308,0.049996,0.001000,0.001000,0.001000,0.001000,0.001000
1005.211538,0.049957,0.001000,0.001000,0.001000,0.001000,0.001000
1005.230769,0.049876,0.001000,0.001000,0.001000,0.001000,0.001000
1005.250000,0.049753,0.001000,0.001000,0.001000,0.001000,0.001000
1005.269231,0.049587,0.001000,0.001000,0.001000,0.001000,0.001000
1005.288462,0.049379,0.001000,0.001000,0.001000,0.001000,0.001000
1005.307692,0.049129,0.001000,0.001000,0.001000,0.001000,0.001000
1005.326923,0.048837,0.001000,0.001000,0.001000,0.001000,0.001000
1005.346154,0.048504,0.001000,0.001000,0.001000,0.001000,0.001000
1005.365385,0.048130,0.001000,0.001000,0.001000,0.001000,0.001000
1005.384615,0.047715,0.001000,0.001000,0.001000,0.001000,0.001000
1005.403846,0.047260,0.001000,0.001000,0.001000,0.001000,0.001000
1005.423077,0.046764,0.001000,0.001000,0.001000,0.001000,0.001000
1005.442308,0.046229,0.001000,0.001000,0.001000,0.001000,0.001000
1005.461538,0.045654,0.001000,0.001000,0.001000,0.001000,0.001000
1005.480769,0.045041,0.001000,0.001000,0.001000,0.001000,0.001000
1005.500000,0.044390,0.001000,0.001000,0.001000,0.001000,0.001000
1005.519231,0.043700,0.001000,0.001000,0.001000,0.001000,0.001000
1005.538462,0.042974,0.001000,0.001000,0.001000,0.001000,0.001000
1005.557692,0.042211,0.001000,0.001000,0.001000,0.001000,0.001000
1005.576923,0.041413,0.001000,0.001000,0.001000,0.001000,0.001000
1005.596154,0.040579,0.001000,0.001000,0.001000,0.001000,0.001000
1005.615385,0.039711,0.001000,0.001000,0.001000,0.001000,0.001000
1005.634615,0.038809,0.001000,0.001000,0.001000,0.001000,0.001000
1005.653846,0.037874,0.001000,0.001000,0.001000,0.001000,0.001000
1005.673077,0.036907,0.001000,0.001000,0.001000,0.001000,0.001000
1005.692308,0.035909,0.001000,0.001000,0.001000,0.001000,0.001000
1005.711538,0.034880,0.001000,0.001000,0.001000,0.001000,0.001000
1005.730769,0.033822,0.001000,0.001000,0.001000,0.001000,0.001000
1005.750000,0.032735,0.001000,0.001000,0.001000,0.001000,0.001000
1005.769231,0.031620,0.001000,0.001000,0.001000,0.001000,0.001000
1005.788462,0.030479,0.001000,0.001000,0.001000,0.001000,0.001000
1005.807692,0.029311,0.001000,0.001000,0.001000,0.001000,0.001000
1005.826923,0.028119,0.001000,0.001000,0.001000,0.001000,0.001000
1005.846154,0.026902,0.001000,0.001000,0.001000,0.001000,0.001000
1005.865385,0.025663,0.001000,0.001000,0.001000,0.001000,0.001000
1005.884615,0.024402,0.001000,0.001000,0.001000,0.001000,0.001000
1005.903846,0.023121,0.001000,0.001000,0.001000,0.001000,0.001000
1005.923077,0.021820,0.001000,0.001000,0.001000,0.001000,0.001000
1005.942308,0.020500,0.001000,0.001000,0.001000,0.001000,0.001000
1005.961538,0.019163,0.001000,0.001000,0.001000,0.001000,0.001000
1005.980769,0.017809,0.001000,0.001000,0.001000,0.001000,0.001000
1006.000000,0.016441,0.001000,0.001000,0.001000,0.001000,0.001000
1006.019231,0.015058,0.001000,0.001000,0.001000,0.001000,0.001000
1006.038462,0.013663,0.001000,0.001000,0.001000,0.001000,0.001000
1006.057692,0.012256,0.001000,0.001000,0.001000,0.001000,0.001000
1006.076923,0.010839,0.001000,0.001000,0.001000,0.001000,0.001000
1006.096154,0.009413,0.001000,0.001000,0.001000,0.001000,0.001000
1006.115385,0.007978,0.001000,0.001000,0.001000,0.001000,0.001000
1006.134615,0.006537,0.001000,0.001000,0.001000,0.001000,0.001000
1006.153846,0.005090,0.001000,0.001000,0.001000,0.001000,0.001000
1006.173077,0.003639,0.001000,0.001000,0.001000,0.001000,0.001000
1006.192308,0.002185,0.001000,0.001000,0.001000,0.001000,0.001000
1006.211538,0.000729,0.001000,0.001000,0.001000,0.001000,0.001000
1006.230769,-0.000728,0.001000,0.001000,0.001000,0.001000,0.001000
1006.250000,-0.002184,0.001000,0.001000,0.001000,0.001000,0.001000
1006.269231,-0.003638,0.001000,0.001000,0.001000,0.001000,0.001000
1006.288462,-0.005089,0.001000,0.001000,0.001000,0.001000,0.001000
1006.307692,-0.006536,0.001000,0.001000,0.001000,0.001000,0.001000
1006.326923,-0.007977,0.001000,0.001000,0.001000,0.001000,0.001000
1006.346154,-0.009411,0.001000,0.001000,0.001000,0.001000,0.001000
1006.365385,-0.010838,0.001000,0.001000,0.001000,0.001000,0.001000
1006.384615,-0.012255,0.001000,0.001000,0.001000,0.001000,0.001000
1006.403846,-0.013662,0.001000,0.001000,0.001000,0.001000,0.001000
1006.423077,-0.015057,0.001000,0.001000,0.001000,0.001000,0.001000
1006.442308,-0.016440,0.001000,0.001000,0.001000,0.001000,0.001000
1006.461538,-0.017808,0.001000,0.001000,0.001000,0.001000,0.001000
1006.480769,-0.019162,0.001000,0.001000,0.001000,0.001000,0.001000
1006.500000,-0.020499,0.001000,0.001000,0.001000,0.001000,0.001000
1006.519231,-0.021819,0.001000,0.001000,0.001000,0.001000,0.001000
1006.538462,-0.023120,0.001000,0.001000,0.001000,0.001000,0.001000
1006.557692,-0.024401,0.001000,0.001000,0.001000,0.001000,0.001000
1006.576923,-0.025662,0.001000,0.001000,0.001000,0.001000,0.001000
1006.596154,-0.026901,0.001000,0.001000,0.001000,0.001000,0.001000
1006.615385,-0.028118,0.001000,0.001000,0.001000,0.001000,0.001000
1006.634615,-0.029310,0.001000,0.001000,0.001000,0.001000,0.001000
1006.653846,-0.030478,0.001000,0.001000,0.001000,0.001000,0.001000
1006.673077,-0.031619,0.001000,0.001000,0.001000,0.001000,0.001000
1006.692308,-0.032734,0.001000,0.001000,0.001000,0.001000,0.001000
1006.711538,-0.033821,0.001000,0.001000,0.001000,0.001000,0.001000
1006.730769,-0.034880,0.001000,0.001000,0.001000,0.001000,0.001000
1006.750000,-0.035908,0.001000,0.001000,0.001000,0.001000,0.001000
1006.769231,-0.036907,0.001000,0.001000,0.001000,0.001000,0.001000
1006.788462,-0.037874,0.001000,0.001000,0.001000,0.001000,0.001000
1006.807692,-0.038808,0.001000,0.001000,0.001000,0.001000,0.001000
1006.826923,-0.039710,0.001000,0.001000,0.001000,0.001000,0.001000
1006.846154,-0.040579,0.001000,0.001000,0.001000,0.001000,0.001000
1006.865385,-0.041412,0.001000,0.001000,0.001000,0.001000,0.001000
1006.884615,-0.042211,0.001000,0.001000,0.001000,0.001000,0.001000
1006.903846,-0.042974,0.001000,0.001000,0.001000,0.001000,0.001000
1006.923077,-0.043700,0.001000,0.001000,0.001000,0.001000,0.001000
1006.942308,-0.044389,0.001000,0.001000,0.001000,0.001000,0.001000
1006.961538,-0.045041,0.001000,0.001000,0.001000,0.001000,0.001000
1006.980769,-0.045654,0.001000,0.001000,0.001000,0.001000,0.001000
1007.000000,-0.046228,0.001000,0.001000,0.001000,0.001000,0.001000
1007.019231,-0.046764,0.001000,0.001000,0.001000,0.001000,0.001000
1007.038462,-0.047259,0.001000,0.001000,0.001000,0.001000,0.001000
1007.057692,-0.047715,0.001000,0.001000,0.001000,0.001000,0.001000
1007.076923,-0.048130,0.001000,0.001000,0.001000,0.001000,0.001000
1007.096154,-0.048504,0.001000,0.001000,0.001000,0.001000,0.001000
1007.115385,-0.048837,0.001000,0.001000,0.001000,0.001000,0.001000
1007.134615,-0.049129,0.001000,0.001000,0.001000,0.001000,0.001000
1007.153846,-0.049379,0.001000,0.001000,0.001000,0.001000,0.001000
1007.173077,-0.049587,0.001000,0.001000,0.001000,0.001000,0.001000
1007.192308,-0.049752,0.001000,0.001000,0.001000,0.001000,0.001000
1007.211538,-0.049876,0.001000,0.001000,0.001000,0.001000,0.001000
1007.230769,-0.049957,0.001000,0.001000,0.001000,0.001000,0.001000
1007.250000,-0.049996,0.001000,0.001000,0.001000,0.001000,0.001000
1007.269231,-0.049993,0.001000,0.001000,0.001000,0.001000,0.001000
1007.288462,-0.049947,0.001000,0.001000,0.001000,0.001000,0.001000
1007.307692,-0.049859,0.001000,0.001000,0.001000,0.001000,0.001000
1007.326923,-0.049728,0.001000,0.001000,0.001000,0.001000,0.001000
1007.346154,-0.049555,0.001000,0.001000,0.001000,0.001000,0.001000
1007.365385,-0.049340,0.001000,0.001000,0.001000,0.001000,0.001000
1007.384615,-0.049083,0.001000,0.001000,0.001000,0.001000,0.001000
1007.403846,-0.048785,0.001000,0.001000,0.001000,0.001000,0.001000
1007.423077,-0.048445,0.001000,0.001000,0.001000,0.001000,0.001000
1007.442308,-0.048064,0.001000,0.001000,0.001000,0.001000,0.001000
1007.461538,-0.047642,0.001000,0.001000,0.001000,0.001000,0.001000
1007.480769,-0.047180,0.001000,0.001000,0.001000,0.001000,0.001000
1007.500000,-0.046678,0.001000,0.001000,0.001000,0.001000,0.001000
1007.519231,-0.046136,0.001000,0.001000,0.001000,0.001000,0.001000
1007.538462,-0.045555,0.001000,0.001000,0.001000,0.001000,0.001000
1007.557692,-0.044935,0.001000,0.001000,0.001000,0.001000,0.001000
1007.576923,-0.044277,0.001000,0.001000,0.001000,0.001000,0.001000
1007.596154,-0.043582,0.001000,0.001000,0.001000,0.001000,0.001000
1007.615385,-0.042850,0.001000,0.001000,0.001000,0.001000,0.001000
1007.634615,-0.042081,0.001000,0.001000,0.001000,0.001000,0.001000
1007.653846,-0.041276,0.001000,0.001000,0.001000,0.001000,0.001000
1007.673077,-0.040437,0.001000,0.001000,0.001000,0.001000,0.001000
1007.692308,-0.039563,0.001000,0.001000,0.001000,0.001000,0.001000
1007.711538,-0.038656,0.001000,0.001000,0.001000,0.001000,0.001000
1007.730769,-0.037716,0.001000,0.001000,0.001000,0.001000,0.001000
1007.750000,-0.036743,0.001000,0.001000,0.001000,0.001000,0.001000
1007.769231,-0.035740,0.001000,0.001000,0.001000,0.001000,0.001000
1007.788462,-0.034706,0.001000,0.001000,0.001000,0.001000,0.001000
1007.807692,-0.033643,0.001000,0.001000,0.001000,0.001000,0.001000
1007.826923,-0.032551,0.001000,0.001000,0.001000,0.001000,0.001000
1007.846154,-0.031432,0.001000,0.001000,0.001000,0.001000,0.001000
1007.865385,-0.030286,0.001000,0.001000,0.001000,0.001000,0.001000
1007.884615,-0.029114,0.001000,0.001000,0.001000,0.001000,0.001000
1007.903846,-0.027918,0.001000,0.001000,0.001000,0.001000,0.001000
1007.923077,-0.026698,0.001000,0.001000,0.001000,0.001000,0.001000
1007.942308,-0.025455,0.001000,0.001000,0.001000,0.001000,0.001000
1007.961538,-0.024190,0.001000,0.001000,0.001000,0.001000,0.001000
1007.980769,-0.022905,0.001000,0.001000,0.001000,0.001000,0.001000
1008.000000,-0.021601,0.001000,0.001000,0.001000,0.001000,0.001000
1008.019231,-0.020278,0.001000,0.001000,0.001000,0.001000,0.001000
1008.038462,-0.018938,0.001000,0.001000,0.001000,0.001000,0.001000
1008.057692,-0.017582,0.001000,0.001000,0.001000,0.001000,0.001000
1008.076923,-0.016212,0.001000,0.001000,0.001000,0.001000,0.001000
1008.096154,-0.014827,0.001000,0.001000,0.001000,0.001000,0.001000
1008.115385,-0.013430,0.001000,0.001000,0.001000,0.001000,0.001000
1008.134615,-0.012021,0.001000,0.001000,0.001000,0.001000,0.001000
1008.153846,-0.010602,0.001000,0.001000,0.001000,0.001000,0.001000
1008.173077,-0.009174,0.001000,0.001000,0.001000,0.001000,0.001000
1008.192308,-0.007739,0.001000,0.001000,0.001000,0.001000,0.001000
1008.211538,-0.006296,0.001000,0.001000,0.001000,0.001000,0.001000
1008.230769,-0.004849,0.001000,0.001000,0.001000,0.001000,0.001000
1008.250000,-0.003397,0.001000,0.001000,0.001000,0.001000,0.001000
1008.269231,-0.001943,0.001000,0.001000,0.001000,0.001000,0.001000
1008.288462,-0.000486,0.001000,0.001000,0.001000,0.001000,0.001000
1008.307692,0.000970,0.001000,0.001000,0.001000,0.001000,0.001000
1008.326923,0.002426,0.001000,0.001000,0.001000,0.001000,0.001000
1008.346154,0.003880,0.001000,0.001000,0.001000,0.001000,0.001000
1008.365385,0.005330,0.001000,0.001000,0.001000,0.001000,0.001000
1008.384615,0.006776,0.001000,0.001000,0.001000,0.001000,0.001000
1008.403846,0.008216,0.001000,0.001000,0.001000,0.001000,0.001000
1008.423077,0.009650,0.001000,0.001000,0.001000,0.001000,0.001000
1008.442308,0.011075,0.001000,0.001000,0.001000,0.001000,0.001000
1008.461538,0.012490,0.001000,0.001000,0.001000,0.001000,0.001000
1008.480769,0.013895,0.001000,0.001000,0.001000,0.001000,0.001000
1008.500000,0.015288,0.001000,0.001000,0.001000,0.001000,0.001000
1008.519231,0.016669,0.001000,0.001000,0.001000,0.001000,0.001000
1008.538462,0.018035,0.001000,0.001000,0.001000,0.001000,0.001000
1008.557692,0.019385,0.001000,0.001000,0.001000,0.001000,0.001000
1008.576923,0.020720,0.001000,0.001000,0.001000,0.001000,0.001000
1008.596154,0.022037,0.001000,0.001000,0.001000,0.001000,0.001000
1008.615385,0.023335,0.001000,0.001000,0.001000,0.001000,0.001000
1008.634615,0.024613,0.001000,0.001000,0.001000,0.001000,0.001000
1008.653846,0.025870,0.001000,0.001000,0.001000,0.001000,0.001000
1008.673077,0.027106,0.001000,0.001000,0.001000,0.001000,0.001000
1008.692308,0.028318,0.001000,0.001000,0.001000,0.001000,0.001000
1008.711538,0.029506,0.001000,0.001000,0.001000,0.001000,0.001000
1008.730769,0.030670,0.001000,0.001000,0.001000,0.001000,0.001000
1008.750000,0.031807,0.001000,0.001000,0.001000,0.001000,0.001000
1008.769231,0.032917,0.001000,0.001000,0.001000,0.001000,0.001000
1008.788462,0.034000,0.001000,0.001000,0.001000,0.001000,0.001000
1008.807692,0.035053,0.001000,0.001000,0.001000,0.001000,0.001000
1008.826923,0.036077,0.001000,0.001000,0.001000,0.001000,0.001000
1008.846154,0.037070,0.001000,0.001000,0.001000,0.001000,0.001000
1008.865385,0.038032,0.001000,0.001000,0.001000,0.001000,0.001000
1008.884615,0.038961,0.001000,0.001000,0.001000,0.001000,0.001000
1008.903846,0.039857,0.001000,0.001000,0.001000,0.001000,0.001000
1008.923077,0.040720,0.001000,0.001000,0.001000,0.001000,0.001000
1008.942308,0.041548,0.001000,0.001000,0.001000,0.001000,0.001000
1008.961538,0.042340,0.001000,0.001000,0.001000,0.001000,0.001000
1008.980769,0.043097,0.001000,0.001000,0.001000,0.001000,0.001000
1009.000000,0.043817,0.001000,0.001000,0.001000,0.001000,0.001000
1009.019231,0.044500,0.001000,0.001000,0.001000,0.001000,0.001000
1009.038462,0.045145,0.001000,0.001000,0.001000,0.001000,0.001000
1009.057692,0.045752,0.001000,0.001000,0.001000,0.001000,0.001000
1009.076923,0.046320,0.001000,0.001000,0.001000,0.001000,0.001000
1009.096154,0.046849,0.001000,0.001000,0.001000,0.001000,0.001000
1009.115385,0.047338,0.001000,0.001000,0.001000,0.001000,0.001000
1009.134615,0.047787,0.001000,0.001000,0.001000,0.001000,0.001000
1009.153846,0.048195,0.001000,0.001000,0.001000,0.001000,0.001000
1009.173077,0.048562,0.001000,0.001000,0.001000,0.001000,0.001000
1009.192308,0.048889,0.001000,0.001000,0.001000,0.001000,0.001000
1009.211538,0.049173,0.001000,0.001000,0.001000,0.001000,0.001000
1009.230769,0.049416,0.001000,0.001000,0.001000,0.001000,0.001000
1009.250000,0.049617,0.001000,0.001000,0.001000,0.001000,0.001000
1009.269231,0.049776,0.001000,0.001000,0.001000,0.001000,0.001000
1009.288462,0.049893,0.001000,0.001000,0.001000,0.001000,0.001000
1009.307692,0.049967,0.001000,0.001000,0.001000,0.001000,0.001000
1009.326923,0.049999,0.001000,0.001000,0.001000,0.001000,0.001000
1009.346154,0.049988,0.001000,0.001000,0.001000,0.001000,0.001000
1009.365385,0.049935,0.001000,0.001000,0.001000,0.001000,0.001000
1009.384615,0.049840,0.001000,0.001000,0.001000,0.001000,0.001000
1009.403846,0.049702,0.001000,0.001000,0.001000,0.001000,0.001000
1009.423077,0.049522,0.001000,0.001000,0.001000,0.001000,0.001000
1009.442308,0.049300,0.001000,0.001000,0.001000,0.001000,0.001000
1009.461538,0.049036,0.001000,0.001000,0.001000,0.001000,0.001000
1009.480769,0.048731,0.001000,0.001000,0.001000,0.001000,0.001000
1009.500000,0.048384,0.001000,0.001000,0.001000,0.001000,0.001000
1009.519231,0.047997,0.001000,0.001000,0.001000,0.001000,0.001000
1009.538462,0.047568,0.001000,0.001000,0.001000,0.001000,0.001000
1009.557692,0.047099,0.001000,0.001000,0.001000,0.001000,0.001000
1009.576923,0.046590,0.001000,0.001000,0.001000,0.001000,0.001000
1009.596154,0.046042,0.001000,0.001000,0.001000,0.001000,0.001000
1009.615385,0.045454,0.001000,0.001000,0.001000,0.001000,0.001000
1009.634615,0.044828,0.001000,0.001000,0.001000,0.001000,0.001000
1009.653846,0.044164,0.001000,0.001000,0.001000,0.001000,0.001000
1009.673077,0.043463,0.001000,0.001000,0.001000,0.001000,0.001000
1009.692308,0.042724,0.001000,0.001000,0.001000,0.001000,0.001000
1009.711538,0.041949,0.001000,0.001000,0.001000,0.001000,0.001000
1009.730769,0.041139,0.001000,0.001000,0.001000,0.001000,0.001000
1009.750000,0.040294,0.001000,0.001000,0.001000,0.001000,0.001000
1009.769231,0.039414,0.001000,0.001000,0.001000,0.001000,0.001000
1009.788462,0.038501,0.001000,0.001000,0.001000,0.001000,0.001000
1009.807692,0.037556,0.001000,0.001000,0.001000,0.001000,0.001000
1009.826923,0.036578,0.001000,0.001000,0.001000,0.001000,0.001000
1009.846154,0.035570,0.001000,0.001000,0.001000,0.001000,0.001000
1009.865385,0.034531,0.001000,0.001000,0.001000,0.001000,0.001000
1009.884615,0.033463,0.001000,0.001000,0.001000,0.001000,0.001000
1009.903846,0.032367,0.001000,0.001000,0.001000,0.001000,0.001000
1009.923077,0.031243,0.001000,0.001000,0.001000,0.001000,0.001000
1009.942308,0.030093,0.001000,0.001000,0.001000,0.001000,0.001000
1009.961538,0.028917,0.001000,0.001000,0.001000,0.001000,0.001000
1009.980769,0.027716,0.001000,0.001000,0.001000,0.001000,0.001000
1010.000000,0.026492,0.001000,0.001000,0.001000,0.001000,0.001000
1010.019231,0.025246,0.001000,0.001000,0.001000,0.001000,0.001000
1010.038462,0.023978,0.001000,0.001000,0.001000,0.001000,0.001000
1010.057692,0.022690,0.001000,0.001000,0.001000,0.001000,0.001000
1010.076923,0.021382,0.001000,0.001000,0.001000,0.001000,0.001000
1010.096154,0.020056,0.001000,0.001000,0.001000,0.001000,0.001000
1010.115385,0.018714,0.001000,0.001000,0.001000,0.001000,0.001000
1010.134615,0.017355,0.001000,0.001000,0.001000,0.001000,0.001000
1010.153846,0.015982,0.001000,0.001000,0.001000,0.001000,0.001000
1010.173077,0.014595,0.001000,0.001000,0.001000,0.001000,0.001000
1010.192308,0.013196,0.001000,0.001000,0.001000,0.001000,0.001000
1010.211538,0.011785,0.001000,0.001000,0.001000,0.001000,0.001000
1010.230769,0.010365,0.001000,0.001000,0.001000,0.001000,0.001000
1010.250000,0.008936,0.001000,0.001000,0.001000,0.001000,0.001000
1010.269231,0.007499,0.001000,0.001000,0.001000,0.001000,0.001000
1010.288462,0.006056,0.001000,0.001000,0.001000,0.001000,0.001000
1010.307692,0.004607,0.001000,0.001000,0.001000,0.001000,0.001000
1010.326923,0.003155,0.001000,0.001000,0.001000,0.001000,0.001000
1010.346154,0.001700,0.001000,0.001000,0.001000,0.001000,0.001000
1010.365385,0.000244,0.001000,0.001000,0.001000,0.001000,0.001000
1010.384615,-0.001213,0.001000,0.001000,0.001000,0.001000,0.001000
1010.403846,-0.002668,0.001000,0.001000,0.001000,0.001000,0.001000
1010.423077,-0.004122,0.001000,0.001000,0.001000,0.001000,0.001000
1010.442308,-0.005571,0.001000,0.001000,0.001000,0.001000,0.001000
1010.461538,-0.007016,0.001000,0.001000,0.001000,0.001000,0.001000
1010.480769,-0.008456,0.001000,0.001000,0.001000,0.001000,0.001000
1010.500000,-0.009887,0.001000,0.001000,0.001000,0.001000,0.001000
1010.519231,-0.011311,0.001000,0.001000,0.001000,0.001000,0.001000
1010.538462,-0.012725,0.001000,0.001000,0.001000,0.001000,0.001000
1010.557692,-0.014128,0.001000,0.001000,0.001000,0.001000,0.001000
1010.576923,-0.015519,0.001000,0.001000,0.001000,0.001000,0.001000
1010.596154,-0.016897,0.001000,0.001000,0.001000,0.001000,0.001000
1010.615385,-0.018261,0.001000,0.001000,0.001000,0.001000,0.001000
1010.634615,-0.019609,0.001000,0.001000,0.001000,0.001000,0.001000
1010.653846,-0.020940,0.001000,0.001000,0.001000,0.001000,0.001000
1010.673077,-0.022254,0.001000,0.001000,0.001000,0.001000,0.001000
1010.692308,-0.023549,0.001000,0.001000,0.001000,0.001000,0.001000
1010.711538,-0.024824,0.001000,0.001000,0.001000,0.001000,0.001000
1010.730769,-0.026077,0.001000,0.001000,0.001000,0.001000,0.001000
1010.750000,-0.027309,0.001000,0.001000,0.001000,0.001000,0.001000
1010.769231,-0.028518,0.001000,0.001000,0.001000,0.001000,0.001000
1010.788462,-0.029702,0.001000,0.001000,0.001000,0.001000,0.001000
1010.807692,-0.030861,0.001000,0.001000,0.001000,0.001000,0.001000
1010.826923,-0.031994,0.001000,0.001000,0.001000,0.001000,0.001000
1010.846154,-0.033099,0.001000,0.001000,0.001000,0.001000,0.001000
1010.865385,-0.034177,0.001000,0.001000,0.001000,0.001000,0.001000
1010.884615,-0.035226,0.001000,0.001000,0.001000,0.001000,0.001000
1010.903846,-0.036244,0.001000,0.001000,0.001000,0.001000,0.001000
1010.923077,-0.037232,0.001000,0.001000,0.001000,0.001000,0.001000
1010.942308,-0.038189,0.001000,0.001000,0.001000,0.001000,0.001000
1010.961538,-0.039113,0.001000,0.001000,0.001000,0.001000,0.001000
1010.980769,-0.040003,0.001000,0.001000,0.001000,0.001000,0.001000
1011.000000,-0.040860,0.001000,0.001000,0.001000,0.001000,0.001000
1011.019231,-0.041682,0.001000,0.001000,0.001000,0.001000,0.001000
1011.038462,-0.042469,0.001000,0.001000,0.001000,0.001000,0.001000
1011.057692,-0.043220,0.001000,0.001000,0.001000,0.001000,0.001000
1011.076923,-0.043934,0.001000,0.001000,0.001000,0.001000,0.001000
1011.096154,-0.044610,0.001000,0.001000,0.001000,0.001000,0.001000
1011.115385,-0.045249,0.001000,0.001000,0.001000,0.001000,0.001000
1011.134615,-0.045850,0.001000,0.001000,0.001000,0.001000,0.001000
1011.153846,-0.046411,0.001000,0.001000,0.001000,0.001000,0.001000
1011.173077,-0.046933,0.001000,0.001000,0.001000,0.001000,0.001000
1011.192308,-0.047416,0.001000,0.001000,0.001000,0.001000,0.001000
1011.211538,-0.047858,0.001000,0.001000,0.001000,0.001000,0.001000
1011.230769,-0.048259,0.001000,0.001000,0.001000,0.001000,0.001000
1011.250000,-0.048620,0.001000,0.001000,0.001000,0.001000,0.001000
1011.269231,-0.048939,0.001000,0.001000,0.001000,0.001000,0.001000
1011.288462,-0.049217,0.001000,0.001000,0.001000,0.001000,0.001000
1011.307692,-0.049453,0.001000,0.001000,0.001000,0.001000,0.001000
1011.326923,-0.049646,0.001000,0.001000,0.001000,0.001000,0.001000
1011.346154,-0.049798,0.001000,0.001000,0.001000,0.001000,0.001000
1011.365385,-0.049908,0.001000,0.001000,0.001000,0.001000,0.001000
1011.384615,-0.049975,0.001000,0.001000,0.001000,0.001000,0.001000
1011.403846,-0.050000,0.001000,0.001000,0.001000,0.001000,0.001000
1011.423077,-0.049982,0.001000,0.001000,0.001000,0.001000,0.001000
1011.442308,-0.049922,0.001000,0.001000,0.001000,0.001000,0.001000
1011.461538,-0.049820,0.001000,0.001000,0.001000,0.001000,0.001000
1011.480769,-0.049675,0.001000,0.001000,0.001000,0.001000,0.001000
1011.500000,-0.049488,0.001000,0.001000,0.001000,0.001000,0.001000
1011.519231,-0.049259,0.001000,0.001000,0.001000,0.001000,0.001000
1011.538462,-0.048989,0.001000,0.001000,0.001000,0.001000,0.001000
1011.557692,-0.048676,0.001000,0.001000,0.001000,0.001000,0.001000
1011.576923,-0.048323,0.001000,0.001000,0.001000,0.001000,0.001000
1011.596154,-0.047928,0.001000,0.001000,0.001000,0.001000,0.001000
1011.615385,-0.047493,0.001000,0.001000,0.001000,0.001000,0.001000
1011.634615,-0.047017,0.001000,0.001000,0.001000,0.001000,0.001000
1011.653846,-0.046502,0.001000,0.001000,0.001000,0.001000,0.001000
1011.673077,-0.045947,0.001000,0.001000,0.001000,0.001000,0.001000
1011.692308,-0.045353,0.001000,0.001000,0.001000,0.001000,0.001000
1011.711538,-0.044720,0.001000,0.001000,0.001000,0.001000,0.001000
1011.730769,-0.044050,0.001000,0.001000,0.001000,0.001000,0.001000
1011.750000,-0.043342,0.001000,0.001000,0.001000,0.001000,0.001000
1011.769231,-0.042598,0.001000,0.001000,0.001000,0.001000,0.001000
1011.788462,-0.041817,0.001000,0.001000,0.001000,0.001000,0.001000
1011.807692,-0.041001,0.001000,0.001000,0.001000,0.001000,0.001000
1011.826923,-0.040150,0.001000,0.001000,0.001000,0.001000,0.001000
1011.846154,-0.039265,0.001000,0.001000,0.001000,0.001000,0.001000
1011.865385,-0.038346,0.001000,0.001000,0.001000,0.001000,0.001000
1011.884615,-0.037395,0.001000,0.001000,0.001000,0.001000,0.001000
1011.903846,-0.036413,0.001000,0.001000,0.001000,0.001000,0.001000
1011.923077,-0.035399,0.001000,0.001000,0.001000,0.001000,0.001000
1011.942308,-0.034355,0.001000,0.001000,0.001000,0.001000,0.001000
1011.961538,-0.033283,0.001000,0.001000,0.001000,0.001000,0.001000
1011.980769,-0.032182,0.001000,0.001000,0.001000,0.001000,0.001000
1012.000000,-0.031053,0.001000,0.001000,0.001000,0.001000,0.001000
1012.019231,-0.029898,0.001000,0.001000,0.001000,0.001000,0.001000
1012.038462,-0.028718,0.001000,0.001000,0.001000,0.001000,0.001000
1012.057692,-0.027514,0.001000,0.001000,0.001000,0.001000,0.001000
1012.076923,-0.026286,0.001000,0.001000,0.001000,0.001000,0.001000
1012.096154,-0.025036,0.001000,0.001000,0.001000,0.001000,0.001000
1012.115385,-0.023765,0.001000,0.001000,0.001000,0.001000,0.001000
1012.134615,-0.022473,0.001000,0.001000,0.001000,0.001000,0.001000
1012.153846,-0.021163,0.001000,0.001000,0.001000,0.001000,0.001000
1012.173077,-0.019834,0.001000,0.001000,0.001000,0.001000,0.001000
1012.192308,-0.018489,0.001000,0.001000,0.001000,0.001000,0.001000
1012.211538,-0.017127,0.001000,0.001000,0.001000,0.001000,0.001000
1012.230769,-0.015752,0.001000,0.001000,0.001000,0.001000,0.001000
1012.250000,-0.014363,0.001000,0.001000,0.001000,0.001000,0.001000
1012.269231,-0.012962,0.001000,0.001000,0.001000,0.001000,0.001000
1012.288462,-0.011549,0.001000,0.001000,0.001000,0.001000,0.001000
1012.307692,-0.010127,0.001000,0.001000,0.001000,0.001000,0.001000
1012.326923,-0.008697,0.001000,0.001000,0.001000,0.001000,0.001000
1012.346154,-0.007259,0.001000,0.001000,0.001000,0.001000,0.001000
1012.365385,-0.005815,0.001000,0.001000,0.001000,0.001000,0.001000
1012.384615,-0.004366,0.001000,0.001000,0.001000,0.001000,0.001000
1012.403846,-0.002913,0.001000,0.001000,0.001000,0.001000,0.001000
1012.423077,-0.001458,0.001000,0.001000,0.001000,0.001000,0.001000
1012.442308,-0.000001,0.001000,0.001000,0.001000,0.001000,0.001000
1012.461538,0.001455,0.001000,0.001000,0.001000,0.001000,0.001000
1012.480769,0.002911,0.001000,0.001000,0.001000,0.001000,0.001000
1012.500000,0.004363,0.001000,0.001000,0.001000,0.001000,0.001000
1012.519231,0.005812,0.001000,0.001000,0.001000,0.001000,0.001000
1012.538462,0.007257,0.001000,0.001000,0.001000,0.001000,0.001000
1012.557692,0.008695,0.001000,0.001000,0.001000,0.001000,0.001000
1012.576923,0.010125,0.001000,0.001000,0.001000,0.001000,0.001000
1012.596154,0.011547,0.001000,0.001000,0.001000,0.001000,0.001000
1012.615385,0.012959,0.001000,0.001000,0.001000,0.001000,0.001000
1012.634615,0.014361,0.001000,0.001000,0.001000,0.001000,0.001000
1012.653846,0.015750,0.001000,0.001000,0.001000,0.001000,0.001000
1012.673077,0.017125,0.001000,0.001000,0.001000,0.001000,0.001000
1012.692308,0.018486,0.001000,0.001000,0.001000,0.001000,0.001000
1012.711538,0.019832,0.001000,0.001000,0.001000,0.001000,0.001000
1012.730769,0.021160,0.001000,0.001000,0.001000,0.001000,0.001000
1012.750000,0.022471,0.001000,0.001000,0.001000,0.001000,0.001000
1012.769231,0.023763,0.001000,0.001000,0.001000,0.001000,0.001000
1012.788462,0.025034,0.001000,0.001000,0.001000,0.001000,0.001000
1012.807692,0.026284,0.001000,0.001000,0.001000,0.001000,0.001000
1012.826923,0.027512,0.001000,0.001000,0.001000,0.001000,0.001000
1012.846154,0.028716,0.001000,0.001000,0.001000,0.001000,0.001000
1012.865385,0.029897,0.001000,0.001000,0.001000,0.001000,0.001000
1012.884615,0.031051,0.001000,0.001000,0.001000,0.001000,0.001000
1012.903846,0.032180,0.001000,0.001000,0.001000,0.001000,0.001000
1012.923077,0.033281,0.001000,0.001000,0.001000,0.001000,0.001000
1012.942308,0.034354,0.001000,0.001000,0.001000,0.001000,0.001000
1012.961538,0.035397,0.001000,0.001000,0.001000,0.001000,0.001000
1012.980769,0.036411,0.001000,0.001000,0.001000,0.001000,0.001000
1013.000000,0.037394,0.001000,0.001000,0.001000,0.001000,0.001000
1013.019231,0.038345,0.001000,0.001000,0.001000,0.001000,0.001000
1013.038462,0.039263,0.001000,0.001000,0.001000,0.001000,0.001000
1013.057692,0.040148,0.001000,0.001000,0.001000,0.001000,0.001000
1013.076923,0.040999,0.001000,0.001000,0.001000,0.001000,0.001000
1013.096154,0.041816,0.001000,0.001000,0.001000,0.001000,0.001000
1013.115385,0.042596,0.001000,0.001000,0.001000,0.001000,0.001000
1013.134615,0.043341,0.001000,0.001000,0.001000,0.001000,0.001000
1013.153846,0.044049,0.001000,0.001000,0.001000,0.001000,0.001000
1013.173077,0.044719,0.001000,0.001000,0.001000,0.001000,0.001000
1013.192308,0.045352,0.001000,0.001000,0.001000,0.001000,0.001000
1013.211538,0.045946,0.001000,0.001000,0.001000,0.001000,0.001000
1013.230769,0.046501,0.001000,0.001000,0.001000,0.001000,0.001000
1013.250000,0.047016,0.001000,0.001000,0.001000,0.001000,0.001000
1013.269231,0.047492,0.001000,0.001000,0.001000,0.001000,0.001000
1013.288462,0.047927,0.001000,0.001000,0.001000,0.001000,0.001000
1013.307692,0.048322,0.001000,0.001000,0.001000,0.001000,0.001000
1013.326923,0.048676,0.001000,0.001000,0.001000,0.001000,0.001000
1013.346154,0.048988,0.001000,0.001000,0.001000,0.001000,0.001000
1013.365385,0.049259,0.001000,0.001000,0.001000,0.001000,0.001000
1013.384615,0.049488,0.001000,0.001000,0.001000,0.001000,0.001000
1013.403846,0.049675,0.001000,0.001000,0.001000,0.001000,0.001000
1013.423077,0.049819,0.001000,0.001000,0.001000,0.001000,0.001000
1013.442308,0.049922,0.001000,0.001000,0.001000,0.001000,0.001000
1013.461538,0.049982,0.001000,0.001000,0.001000,0.001000,0.001000
1013.480769,0.050000,0.001000,0.001000,0.001000,0.001000,0.001000
1013.500000,0.049975,0.001000,0.001000,0.001000,0.001000,0.001000
1013.519231,0.049908,0.001000,0.001000,0.001000,0.001000,0.001000
1013.538462,0.049799,0.001000,0.001000,0.001000,0.001000,0.001000
1013.557692,0.049647,0.001000,0.001000,0.001000,0.001000,0.001000
1013.576923,0.049453,0.001000,0.001000,0.001000,0.001000,0.001000
1013.596154,0.049217,0.001000,0.001000,0.001000,0.001000,0.001000
1013.615385,0.048939,0.001000,0.001000,0.001000,0.001000,0.001000
1013.634615,0.048620,0.001000,0.001000,0.001000,0.001000,0.001000
1013.653846,0.048260,0.001000,0.001000,0.001000,0.001000,0.001000
1013.673077,0.047858,0.001000,0.001000,0.001000,0.001000,0.001000
1013.692308,0.047416,0.001000,0.001000,0.001000,0.001000,0.001000
1013.711538,0.046934,0.001000,0.001000,0.001000,0.001000,0.001000
1013.730769,0.046412,0.001000,0.001000,0.001000,0.001000,0.001000
1013.750000,0.045851,0.001000,0.001000,0.001000,0.001000,0.001000
1013.769231,0.045250,0.001000,0.001000,0.001000,0.001000,0.001000
1013.788462,0.044611,0.001000,0.001000,0.001000,0.001000,0.001000
1013.807692,0.043935,0.001000,0.001000,0.001000,0.001000,0.001000
1013.826923,0.043221,0.001000,0.001000,0.001000,0.001000,0.001000
1013.846154,0.042470,0.001000,0.001000,0.001000,0.001000,0.001000
1013.865385,0.041683,0.001000,0.001000,0.001000,0.001000,0.001000
1013.884615,0.040861,0.001000,0.001000,0.001000,0.001000,0.001000
1013.903846,0.040005,0.001000,0.001000,0.001000,0.001000,0.001000
1013.923077,0.039114,0.001000,0.001000,0.001000,0.001000,0.001000
1013.942308,0.038190,0.001000,0.001000,0.001000,0.001000,0.001000
1013.961538,0.037234,0.001000,0.001000,0.001000,0.001000,0.001000
1013.980769,0.036246,0.001000,0.001000,0.001000,0.001000,0.001000
1014.000000,0.035227,0.001000,0.001000,0.001000,0.001000,0.001000
1014.019231,0.034179,0.001000,0.001000,0.001000,0.001000,0.001000
1014.038462,0.033101,0.001000,0.001000,0.001000,0.001000,0.001000
1014.057692,0.031996,0.001000,0.001000,0.001000,0.001000,0.001000
1014.076923,0.030863,0.001000,0.001000,0.001000,0.001000,0.001000
1014.096154,0.029704,0.001000,0.001000,0.001000,0.001000,0.001000
1014.115385,0.028519,0.001000,0.001000,0.001000,0.001000,0.001000
1014.134615,0.027311,0.001000,0.001000,0.001000,0.001000,0.001000
1014.153846,0.026079,0.001000,0.001000,0.001000,0.001000,0.001000
1014.173077,0.024826,0.001000,0.001000,0.001000,0.001000,0.001000
1014.192308,0.023551,0.001000,0.001000,0.001000,0.001000,0.001000
1014.211538,0.022256,0.001000,0.001000,0.001000,0.001000,0.001000
1014.230769,0.020942,0.001000,0.001000,0.001000,0.001000,0.001000
1014.250000,0.019611,0.001000,0.001000,0.001000,0.001000,0.001000
1014.269231,0.018263,0.001000,0.001000,0.001000,0.001000,0.001000
1014.288462,0.016899,0.001000,0.001000,0.001000,0.001000,0.001000
1014.307692,0.015521,0.001000,0.001000,0.001000,0.001000,0.001000
1014.326923,0.014130,0.001000,0.001000,0.001000,0.001000,0.001000
1014.346154,0.012727,0.001000,0.001000,0.001000,0.001000,0.001000
1014.365385,0.011313,0.001000,0.001000,0.001000,0.001000,0.001000
1014.384615,0.009890,0.001000,0.001000,0.001000,0.001000,0.001000
1014.403846,0.008458,0.001000,0.001000,0.001000,0.001000,0.001000
1014.423077,0.007019,0.001000,0.001000,0.001000,0.001000,0.001000
1014.442308,0.005574,0.001000,0.001000,0.001000,0.001000,0.001000
1014.461538,0.004124,0.001000,0.001000,0.001000,0.001000,0.001000
1014.480769,0.002671,0.001000,0.001000,0.001000,0.001000,0.001000
1014.500000,0.001215,0.001000,0.001000,0.001000,0.001000,0.001000
1014.519231,-0.000241,0.001000,0.001000,0.001000,0.001000,0.001000
1014.538462,-0.001698,0.001000,0.001000,0.001000,0.001000,0.001000
1014.557692,-0.003153,0.001000,0.001000,0.001000,0.001000,0.001000
1014.576923,-0.004605,0.001000,0.001000,0.001000,0.001000,0.001000
1014.596154,-0.006053,0.001000,0.001000,0.001000,0.001000,0.001000
1014.615385,-0.007496,0.001000,0.001000,0.001000,0.001000,0.001000
1014.634615,-0.008933,0.001000,0.001000,0.001000,0.001000,0.001000
1014.653846,-0.010363,0.001000,0.001000,0.001000,0.001000,0.001000
1014.673077,-0.011783,0.001000,0.001000,0.001000,0.001000,0.001000
1014.692308,-0.013193,0.001000,0.001000,0.001000,0.001000,0.001000
1014.711538,-0.014593,0.001000,0.001000,0.001000,0.001000,0.001000
1014.730769,-0.015980,0.001000,0.001000,0.001000,0.001000,0.001000
1014.750000,-0.017353,0.001000,0.001000,0.001000,0.001000,0.001000
1014.769231,-0.018712,0.001000,0.001000,0.001000,0.001000,0.001000
1014.788462,-0.020054,0.001000,0.001000,0.001000,0.001000,0.001000
1014.807692,-0.021380,0.001000,0.001000,0.001000,0.001000,0.001000
1014.826923,-0.022687,0.001000,0.001000,0.001000,0.001000,0.001000
1014.846154,-0.023976,0.001000,0.001000,0.001000,0.001000,0.001000
1014.865385,-0.025244,0.001000,0.001000,0.001000,0.001000,0.001000
1014.884615,-0.026490,0.001000,0.001000,0.001000,0.001000,0.001000
1014.903846,-0.027714,0.001000,0.001000,0.001000,0.001000,0.001000
1014.923077,-0.028915,0.001000,0.001000,0.001000,0.001000,0.001000
1014.942308,-0.030091,0.001000,0.001000,0.001000,0.001000,0.001000
1014.961538,-0.031241,0.001000,0.001000,0.001000,0.001000,0.001000
1014.980769,-0.032365,0.001000,0.001000,0.001000,0.001000,0.001000
1015.000000,-0.033461,0.001000,0.001000,0.001000,0.001000,0.001000
1015.019231,-0.034530,0.001000,0.001000,0.001000,0.001000,0.001000
1015.038462,-0.035568,0.001000,0.001000,0.001000,0.001000,0.001000
1015.057692,-0.036577,0.001000,0.001000,0.001000,0.001000,0.001000
1015.076923,-0.037554,0.001000,0.001000,0.001000,0.001000,0.001000
1015.096154,-0.038500,0.001000,0.001000,0.001000,0.001000,0.001000
1015.115385,-0.039413,0.001000,0.001000,0.001000,0.001000,0.001000
1015.134615,-0.040292,0.001000,0.001000,0.001000,0.001000,0.001000
1015.153846,-0.041138,0.001000,0.001000,0.001000,0.001000,0.001000
1015.173077,-0.041948,0.001000,0.001000,0.001000,0.001000,0.001000
1015.192308,-0.042723,0.001000,0.001000,0.001000,0.001000,0.001000
1015.211538,-0.043462,0.001000,0.001000,0.001000,0.001000,0.001000
1015.230769,-0.044163,0.001000,0.001000,0.001000,0.001000,0.001000
1015.250000,-0.044827,0.001000,0.001000,0.001000,0.001000,0.001000
1015.269231,-0.045453,0.001000,0.001000,0.001000,0.001000,0.001000
1015.288462,-0.046041,0.001000,0.001000,0.001000,0.001000,0.001000
1015.307692,-0.046589,0.001000,0.001000,0.001000,0.001000,0.001000
1015.326923,-0.047098,0.001000,0.001000,0.001000,0.001000,0.001000
1015.346154,-0.047567,0.001000,0.001000,0.001000,0.001000,0.001000
1015.365385,-0.047996,0.001000,0.001000,0.001000,0.001000,0.001000
1015.384615,-0.048384,0.001000,0.001000,0.001000,0.001000,0.001000
1015.403846,-0.048731,0.001000,0.001000,0.001000,0.001000,0.001000
1015.423077,-0.049036,0.001000,0.001000,0.001000,0.001000,0.001000
1015.442308,-0.049300,0.001000,0.001000,0.001000,0.001000,0.001000
1015.461538,-0.049522,0.001000,0.001000,0.001000,0.001000,0.001000
1015.480769,-0.049702,0.001000,0.001000,0.001000,0.001000,0.001000
1015.500000,-0.049839,0.001000,0.001000,0.001000,0.001000,0.001000
1015.519231,-0.049935,0.001000,0.001000,0.001000,0.001000,0.001000
1015.538462,-0.049988,0.001000,0.001000,0.001000,0.001000,0.001000
1015.557692,-0.049999,0.001000,0.001000,0.001000,0.001000,0.001000
1015.576923,-0.049967,0.001000,0.001000,0.001000,0.001000,0.001000
1015.596154,-0.049893,0.001000,0.001000,0.001000,0.001000,0.001000
1015.615385,-0.049776,0.001000,0.001000,0.001000,0.001000,0.001000
1015.634615,-0.049617,0.001000,0.001000,0.001000,0.001000,0.001000
1015.653846,-0.049417,0.001000,0.001000,0.001000,0.001000,0.001000
1015.673077,-0.049174,0.001000,0.001000,0.001000,0.001000,0.001000
1015.692308,-0.048889,0.001000,0.001000,0.001000,0.001000,0.001000
1015.711538,-0.048563,0.001000,0.001000,0.001000,0.001000,0.001000
1015.730769,-0.048196,0.001000,0.001000,0.001000,0.001000,0.001000
1015.750000,-0.047788,0.001000,0.001000,0.001000,0.001000,0.001000
1015.769231,-0.047339,0.001000,0.001000,0.001000,0.001000,0.001000
1015.788462,-0.046850,0.001000,0.001000,0.001000,0.001000,0.001000
1015.807692,-0.046321,0.001000,0.001000,0.001000,0.001000,0.001000
1015.826923,-0.045753,0.001000,0.001000,0.001000,0.001000,0.001000
1015.846154,-0.045146,0.001000,0.001000,0.001000,0.001000,0.001000
1015.865385,-0.044501,0.001000,0.001000,0.001000,0.001000,0.001000
1015.884615,-0.043818,0.001000,0.001000,0.001000,0.001000,0.001000
1015.903846,-0.043098,0.001000,0.001000,0.001000,0.001000,0.001000
1015.923077,-0.042342,0.001000,0.001000,0.001000,0.001000,0.001000
1015.942308,-0.041549,0.001000,0.001000,0.001000,0.001000,0.001000
1015.961538,-0.040721,0.001000,0.001000,0.001000,0.001000,0.001000
1015.980769,-0.039859,0.001000,0.001000,0.001000,0.001000,0.001000
1016.000000,-0.038962,0.001000,0.001000,0.001000,0.001000,0.001000
1016.019231,-0.038033,0.001000,0.001000,0.001000,0.001000,0.001000
1016.038462,-0.037071,0.001000,0.001000,0.001000,0.001000,0.001000
1016.057692,-0.036078,0.001000,0.001000,0.001000,0.001000,0.001000
1016.076923,-0.035055,0.001000,0.001000,0.001000,0.001000,0.001000
1016.096154,-0.034001,0.001000,0.001000,0.001000,0.001000,0.001000
1016.115385,-0.032919,0.001000,0.001000,0.001000,0.001000,0.001000
1016.134615,-0.031809,0.001000,0.001000,0.001000,0.001000,0.001000
1016.153846,-0.030671,0.001000,0.001000,0.001000,0.001000,0.001000
1016.173077,-0.029508,0.001000,0.001000,0.001000,0.001000,0.001000
1016.192308,-0.028320,0.001000,0.001000,0.001000,0.001000,0.001000
1016.211538,-0.027108,0.001000,0.001000,0.001000,0.001000,0.001000
1016.230769,-0.025872,0.001000,0.001000,0.001000,0.001000,0.001000
1016.250000,-0.024615,0.001000,0.001000,0.001000,0.001000,0.001000
1016.269231,-0.023337,0.001000,0.001000,0.001000,0.001000,0.001000
1016.288462,-0.022039,0.001000,0.001000,0.001000,0.001000,0.001000
1016.307692,-0.020722,0.001000,0.001000,0.001000,0.001000,0.001000
1016.326923,-0.019388,0.001000,0.001000,0.001000,0.001000,0.001000
1016.346154,-0.018037,0.001000,0.001000,0.001000,0.001000,0.001000
1016.365385,-0.016671,0.001000,0.001000,0.001000,0.001000,0.001000
1016.384615,-0.015291,0.001000,0.001000,0.001000,0.001000,0.001000
1016.403846,-0.013897,0.001000,0.001000,0.001000,0.001000,0.001000
1016.423077,-0.012492,0.001000,0.001000,0.001000,0.001000,0.001000
1016.442308,-0.011077,0.001000,0.001000,0.001000,0.001000,0.001000
1016.461538,-0.009652,0.001000,0.001000,0.001000,0.001000,0.001000
1016.480769,-0.008219,0.001000,0.001000,0.001000,0.001000,0.001000
1016.500000,-0.006778,0.001000,0.001000,0.001000,0.001000,0.001000
1016.519231,-0.005333,0.001000,0.001000,0.001000,0.001000,0.001000
1016.538462,-0.003882,0.001000,0.001000,0.001000,0.001000,0.001000
1016.557692,-0.002428,0.001000,0.001000,0.001000,0.001000,0.001000
1016.576923,-0.000973,0.001000,0.001000,0.001000,0.001000,0.001000
1016.596154,0.000484,0.001000,0.001000,0.001000,0.001000,0.001000
1016.615385,0.001940,0.001000,0.001000,0.001000,0.001000,0.001000
1016.634615,0.003395,0.001000,0.001000,0.001000,0.001000,0.001000
1016.653846,0.004846,0.001000,0.001000,0.001000,0.001000,0.001000
1016.673077,0.006294,0.001000,0.001000,0.001000,0.001000,0.001000
1016.692308,0.007736,0.001000,0.001000,0.001000,0.001000,0.001000
1016.711538,0.009172,0.001000,0.001000,0.001000,0.001000,0.001000
1016.730769,0.010600,0.001000,0.001000,0.001000,0.001000,0.001000
1016.750000,0.012019,0.001000,0.001000,0.001000,0.001000,0.001000
1016.769231,0.013427,0.001000,0.001000,0.001000,0.001000,0.001000
1016.788462,0.014825,0.001000,0.001000,0.001000,0.001000,0.001000
1016.807692,0.016209,0.001000,0.001000,0.001000,0.001000,0.001000
1016.826923,0.017580,0.001000,0.001000,0.001000,0.001000,0.001000
1016.846154,0.018936,0.001000,0.001000,0.001000,0.001000,0.001000
1016.865385,0.020276,0.001000,0.001000,0.001000,0.001000,0.001000
1016.884615,0.021599,0.001000,0.001000,0.001000,0.001000,0.001000
1016.903846,0.022903,0.001000,0.001000,0.001000,0.001000,0.001000
1016.923077,0.024188,0.001000,0.001000,0.001000,0.001000,0.001000
1016.942308,0.025453,0.001000,0.001000,0.001000,0.001000,0.001000
1016.961538,0.026696,0.001000,0.001000,0.001000,0.001000,0.001000
1016.980769,0.027916,0.001000,0.001000,0.001000,0.001000,0.001000
1017.000000,0.029112,0.001000,0.001000,0.001000,0.001000,0.001000
1017.019231,0.030284,0.001000,0.001000,0.001000,0.001000,0.001000
1017.038462,0.031430,0.001000,0.001000,0.001000,0.001000,0.001000
1017.057692,0.032550,0.001000,0.001000,0.001000,0.001000,0.001000
1017.076923,0.033641,0.001000,0.001000,0.001000,0.001000,0.001000
1017.096154,0.034705,0.001000,0.001000,0.001000,0.001000,0.001000
1017.115385,0.035738,0.001000,0.001000,0.001000,0.001000,0.001000
1017.134615,0.036742,0.001000,0.001000,0.001000,0.001000,0.001000
1017.153846,0.037714,0.001000,0.001000,0.001000,0.001000,0.001000
1017.173077,0.038654,0.001000,0.001000,0.001000,0.001000,0.001000
1017.192308,0.039562,0.001000,0.001000,0.001000,0.001000,0.001000
1017.211538,0.040436,0.001000,0.001000,0.001000,0.001000,0.001000
1017.230769,0.041275,0.001000,0.001000,0.001000,0.001000,0.001000
1017.250000,0.042080,0.001000,0.001000,0.001000,0.001000,0.001000
1017.269231,0.042848,0.001000,0.001000,0.001000,0.001000,0.001000
1017.288462,0.043581,0.001000,0.001000,0.001000,0.001000,0.001000
1017.307692,0.044276,0.001000,0.001000,0.001000,0.001000,0.001000
1017.326923,0.044934,0.001000,0.001000,0.001000,0.001000,0.001000
1017.346154,0.045554,0.001000,0.001000,0.001000,0.001000,0.001000
1017.365385,0.046135,0.001000,0.001000,0.001000,0.001000,0.001000
1017.384615,0.046677,0.001000,0.001000,0.001000,0.001000,0.001000
1017.403846,0.047179,0.001000,0.001000,0.001000,0.001000,0.001000
1017.423077,0.047642,0.001000,0.001000,0.001000,0.001000,0.001000
1017.442308,0.048063,0.001000,0.001000,0.001000,0.001000,0.001000
1017.461538,0.048444,0.001000,0.001000,0.001000,0.001000,0.001000
1017.480769,0.048784,0.001000,0.001000,0.001000,0.001000,0.001000
1017.500000,0.049083,0.001000,0.001000,0.001000,0.001000,0.001000
1017.519231,0.049340,0.001000,0.001000,0.001000,0.001000,0.001000
1017.538462,0.049555,0.001000,0.001000,0.001000,0.001000,0.001000
1017.557692,0.049728,0.001000,0.001000,0.001000,0.001000,0.001000
1017.576923,0.049858,0.001000,0.001000,0.001000,0.001000,0.001000
1017.596154,0.049947,0.001000,0.001000,0.001000,0.001000,0.001000
1017.615385,0.049993,0.001000,0.001000,0.001000,0.001000,0.001000
1017.634615,0.049996,0.001000,0.001000,0.001000,0.001000,0.001000
1017.653846,0.049957,0.001000,0.001000,0.001000,0.001000,0.001000
1017.673077,0.049876,0.001000,0.001000,0.001000,0.001000,0.001000
1017.692308,0.049753,0.001000,0.001000,0.001000,0.001000,0.001000
1017.711538,0.049587,0.001000,0.001000,0.001000,0.001000,0.001000
1017.730769,0.049379,0.001000,0.001000,0.001000,0.001000,0.001000
1017.750000,0.049129,0.001000,0.001000,0.001000,0.001000,0.001000
1017.769231,0.048838,0.001000,0.001000,0.001000,0.001000,0.001000
1017.788462,0.048505,0.001000,0.001000,0.001000,0.001000,0.001000
1017.807692,0.048131,0.001000,0.001000,0.001000,0.001000,0.001000
1017.826923,0.047716,0.001000,0.001000,0.001000,0.001000,0.001000
1017.846154,0.047260,0.001000,0.001000,0.001000,0.001000,0.001000
1017.865385,0.046765,0.001000,0.001000,0.001000,0.001000,0.001000
1017.884615,0.046229,0.001000,0.001000,0.001000,0.001000,0.001000
1017.903846,0.045655,0.001000,0.001000,0.001000,0.001000,0.001000
1017.923077,0.045042,0.001000,0.001000,0.001000,0.001000,0.001000
1017.942308,0.044390,0.001000,0.001000,0.001000,0.001000,0.001000
1017.961538,0.043701,0.001000,0.001000,0.001000,0.001000,0.001000
1017.980769,0.042975,0.001000,0.001000,0.001000,0.001000,0.001000
1018.000000,0.042212,0.001000,0.001000,0.001000,0.001000,0.001000
1018.019231,0.041414,0.001000,0.001000,0.001000,0.001000,0.001000
1018.038462,0.040580,0.001000,0.001000,0.001000,0.001000,0.001000
1018.057692,0.039712,0.001000,0.001000,0.001000,0.001000,0.001000
1018.076923,0.038810,0.001000,0.001000,0.001000,0.001000,0.001000
1018.096154,0.037875,0.001000,0.001000,0.001000,0.001000,0.001000
1018.115385,0.036908,0.001000,0.001000,0.001000,0.001000,0.001000
1018.134615,0.035910,0.001000,0.001000,0.001000,0.001000,0.001000
1018.153846,0.034881,0.001000,0.001000,0.001000,0.001000,0.001000
1018.173077,0.033823,0.001000,0.001000,0.001000,0.001000,0.001000
1018.192308,0.032736,0.001000,0.001000,0.001000,0.001000,0.001000
1018.211538,0.031621,0.001000,0.001000,0.001000,0.001000,0.001000
1018.230769,0.030480,0.001000,0.001000,0.001000,0.001000,0.001000
1018.250000,0.029312,0.001000,0.001000,0.001000,0.001000,0.001000
1018.269231,0.028120,0.001000,0.001000,0.001000,0.001000,0.001000
1018.288462,0.026903,0.001000,0.001000,0.001000,0.001000,0.001000
1018.307692,0.025664,0.001000,0.001000,0.001000,0.001000,0.001000
1018.326923,0.024403,0.001000,0.001000,0.001000,0.001000,0.001000
1018.346154,0.023122,0.001000,0.001000,0.001000,0.001000,0.001000
1018.365385,0.021821,0.001000,0.001000,0.001000,0.001000,0.001000
1018.384615,0.020501,0.001000,0.001000,0.001000,0.001000,0.001000
1018.403846,0.019164,0.001000,0.001000,0.001000,0.001000,0.001000
1018.423077,0.017810,0.001000,0.001000,0.001000,0.001000,0.001000
1018.442308,0.016442,0.001000,0.001000,0.001000,0.001000,0.001000
1018.461538,0.015059,0.001000,0.001000,0.001000,0.001000,0.001000
1018.480769,0.013664,0.001000,0.001000,0.001000,0.001000,0.001000
1018.500000,0.012257,0.001000,0.001000,0.001000,0.001000,0.001000
1018.519231,0.010840,0.001000,0.001000,0.001000,0.001000,0.001000
1018.538462,0.009414,0.001000,0.001000,0.001000,0.001000,0.001000
1018.557692,0.007979,0.001000,0.001000,0.001000,0.001000,0.001000
1018.576923,0.006538,0.001000,0.001000,0.001000,0.001000,0.001000
1018.596154,0.005091,0.001000,0.001000,0.001000,0.001000,0.001000
1018.615385,0.003640,0.001000,0.001000,0.001000,0.001000,0.001000
1018.634615,0.002186,0.001000,0.001000,0.001000,0.001000,0.001000
1018.653846,0.000730,0.001000,0.001000,0.001000,0.001000,0.001000
1018.673077,-0.000727,0.001000,0.001000,0.001000,0.001000,0.001000
1018.692308,-0.002183,0.001000,0.001000,0.001000,0.001000,0.001000
1018.711538,-0.003637,0.001000,0.001000,0.001000,0.001000,0.001000
1018.730769,-0.005088,0.001000,0.001000,0.001000,0.001000,0.001000
1018.750000,-0.006535,0.001000,0.001000,0.001000,0.001000,0.001000
1018.769231,-0.007976,0.001000,0.001000,0.001000,0.001000,0.001000
1018.788462,-0.009410,0.001000,0.001000,0.001000,0.001000,0.001000
1018.807692,-0.010837,0.001000,0.001000,0.001000,0.001000,0.001000
1018.826923,-0.012254,0.001000,0.001000,0.001000,0.001000,0.001000
1018.846154,-0.013661,0.001000,0.001000,0.001000,0.001000,0.001000
1018.865385,-0.015056,0.001000,0.001000,0.001000,0.001000,0.001000
1018.884615,-0.016439,0.001000,0.001000,0.001000,0.001000,0.001000
1018.903846,-0.017807,0.001000,0.001000,0.001000,0.001000,0.001000
1018.923077,-0.019161,0.001000,0.001000,0.001000,0.001000,0.001000
1018.942308,-0.020498,0.001000,0.001000,0.001000,0.001000,0.001000
1018.961538,-0.021817,0.001000,0.001000,0.001000,0.001000,0.001000
1018.980769,-0.023119,0.001000,0.001000,0.001000,0.001000,0.001000
1019.000000,-0.024400,0.001000,0.001000,0.001000,0.001000,0.001000
1019.019231,-0.025661,0.001000,0.001000,0.001000,0.001000,0.001000
1019.038462,-0.026900,0.001000,0.001000,0.001000,0.001000,0.001000
1019.057692,-0.028117,0.001000,0.001000,0.001000,0.001000,0.001000
1019.076923,-0.029309,0.001000,0.001000,0.001000,0.001000,0.001000
1019.096154,-0.030477,0.001000,0.001000,0.001000,0.001000,0.001000
1019.115385,-0.031618,0.001000,0.001000,0.001000,0.001000,0.001000
1019.134615,-0.032733,0.001000,0.001000,0.001000,0.001000,0.001000
1019.153846,-0.033820,0.001000,0.001000,0.001000,0.001000,0.001000
1019.173077,-0.034879,0.001000,0.001000,0.001000,0.001000,0.001000
1019.192308,-0.035908,0.001000,0.001000,0.001000,0.001000,0.001000
1019.211538,-0.036906,0.001000,0.001000,0.001000,0.001000,0.001000
1019.230769,-0.037873,0.001000,0.001000,0.001000,0.001000,0.001000
1019.250000,-0.038808,0.001000,0.001000,0.001000,0.001000,0.001000
1019.269231,-0.039710,0.001000,0.001000,0.001000,0.001000,0.001000
1019.288462,-0.040578,0.001000,0.001000,0.001000,0.001000,0.001000
1019.307692,-0.041412,0.001000,0.001000,0.001000,0.001000,0.001000
1019.326923,-0.042210,0.001000,0.001000,0.001000,0.001000,0.001000
1019.346154,-0.042973,0.001000,0.001000,0.001000,0.001000,0.001000
1019.365385,-0.043699,0.001000,0.001000,0.001000,0.001000,0.001000
1019.384615,-0.044389,0.001000,0.001000,0.001000,0.001000,0.001000
1019.403846,-0.045040,0.001000,0.001000,0.001000,0.001000,0.001000
1019.423077,-0.045653,0.001000,0.001000,0.001000,0.001000,0.001000
1019.442308,-0.046228,0.001000,0.001000,0.001000,0.001000,0.001000
1019.461538,-0.046763,0.001000,0.001000,0.001000,0.001000,0.001000
1019.480769,-0.047259,0.001000,0.001000,0.001000,0.001000,0.001000
1019.500000,-0.047715,0.001000,0.001000,0.001000,0.001000,0.001000
1019.519231,-0.048130,0.001000,0.001000,0.001000,0.001000,0.001000
1019.538462,-0.048504,0.001000,0.001000,0.001000,0.001000,0.001000
1019.557692,-0.048837,0.001000,0.001000,0.001000,0.001000,0.001000
1019.576923,-0.049129,0.001000,0.001000,0.001000,0.001000,0.001000
1019.596154,-0.049378,0.001000,0.001000,0.001000,0.001000,0.001000
1019.615385,-0.049586,0.001000,0.001000,0.001000,0.001000,0.001000
1019.634615,-0.049752,0.001000,0.001000,0.001000,0.001000,0.001000
1019.653846,-0.049876,0.001000,0.001000,0.001000,0.001000,0.001000
1019.673077,-0.049957,0.001000,0.001000,0.001000,0.001000,0.001000
1019.692308,-0.049996,0.001000,0.001000,0.001000,0.001000,0.001000
1019.711538,-0.049993,0.001000,0.001000,0.001000,0.001000,0.001000
1019.730769,-0.049947,0.001000,0.001000,0.001000,0.001000,0.001000
1019.750000,-0.049859,0.001000,0.001000,0.001000,0.001000,0.001000
1019.769231,-0.049728,0.001000,0.001000,0.001000,0.001000,0.001000
1019.788462,-0.049555,0.001000,0.001000,0.001000,0.001000,0.001000
1019.807692,-0.049340,0.001000,0.001000,0.001000,0.001000,0.001000
1019.826923,-0.049084,0.001000,0.001000,0.001000,0.001000,0.001000
1019.846154,-0.048785,0.001000,0.001000,0.001000,0.001000,0.001000
1019.865385,-0.048445,0.001000,0.001000,0.001000,0.001000,0.001000
1019.884615,-0.048064,0.001000,0.001000,0.001000,0.001000,0.001000
1019.903846,-0.047643,0.001000,0.001000,0.001000,0.001000,0.001000
1019.923077,-0.047180,0.001000,0.001000,0.001000,0.001000,0.001000
1019.942308,-0.046678,0.001000,0.001000,0.001000,0.001000,0.001000
1019.961538,-0.046136,0.001000,0.001000,0.001000,0.001000,0.001000
1019.980769,-0.045555,0.001000,0.001000,0.001000,0.001000,0.001000
1020.000000,-0.044936,0.001000,0.001000,0.001000,0.001000,0.001000
1020.019231,-0.044278,0.001000,0.001000,0.001000,0.001000,0.001000
1020.038462,-0.043583,0.001000,0.001000,0.001000,0.001000,0.001000
1020.057692,-0.042850,0.001000,0.001000,0.001000,0.001000,0.001000
1020.076923,-0.042082,0.001000,0.001000,0.001000,0.001000,0.001000
1020.096154,-0.041277,0.001000,0.001000,0.001000,0.001000,0.001000
1020.115385,-0.040438,0.001000,0.001000,0.001000,0.001000,0.001000
1020.134615,-0.039564,0.001000,0.001000,0.001000,0.001000,0.001000
1020.153846,-0.038657,0.001000,0.001000,0.001000,0.001000,0.001000
1020.173077,-0.037716,0.001000,0.001000,0.001000,0.001000,0.001000
1020.192308,-0.036744,0.001000,0.001000,0.001000,0.001000,0.001000
1020.211538,-0.035741,0.001000,0.001000,0.001000,0.001000,0.001000
1020.230769,-0.034707,0.001000,0.001000,0.001000,0.001000,0.001000
1020.250000,-0.033644,0.001000,0.001000,0.001000,0.001000,0.001000
1020.269231,-0.032552,0.001000,0.001000,0.001000,0.001000,0.001000
1020.288462,-0.031433,0.001000,0.001000,0.001000,0.001000,0.001000
1020.307692,-0.030287,0.001000,0.001000,0.001000,0.001000,0.001000
1020.326923,-0.029115,0.001000,0.001000,0.001000,0.001000,0.001000
1020.346154,-0.027919,0.001000,0.001000,0.001000,0.001000,0.001000
1020.365385,-0.026699,0.001000,0.001000,0.001000,0.001000,0.001000
1020.384615,-0.025456,0.001000,0.001000,0.001000,0.001000,0.001000
1020.403846,-0.024191,0.001000,0.001000,0.001000,0.001000,0.001000
1020.423077,-0.022906,0.001000,0.001000,0.001000,0.001000,0.001000
1020.442308,-0.021602,0.001000,0.001000,0.001000,0.001000,0.001000
1020.461538,-0.020279,0.001000,0.001000,0.001000,0.001000,0.001000
1020.480769,-0.018940,0.001000,0.001000,0.001000,0.001000,0.001000
1020.500000,-0.017584,0.001000,0.001000,0.001000,0.001000,0.001000
1020.519231,-0.016213,0.001000,0.001000,0.001000,0.001000,0.001000
1020.538462,-0.014828,0.001000,0.001000,0.001000,0.001000,0.001000
1020.557692,-0.013431,0.001000,0.001000,0.001000,0.001000,0.001000
1020.576923,-0.012022,0.001000,0.001000,0.001000,0.001000,0.001000
1020.596154,-0.010603,0.001000,0.001000,0.001000,0.001000,0.001000
1020.615385,-0.009175,0.001000,0.001000,0.001000,0.001000,0.001000
1020.634615,-0.007740,0.001000,0.001000,0.001000,0.001000,0.001000
1020.653846,-0.006297,0.001000,0.001000,0.001000,0.001000,0.001000
1020.673077,-0.004850,0.001000,0.001000,0.001000,0.001000,0.001000
1020.692308,-0.003398,0.001000,0.001000,0.001000,0.001000,0.001000
1020.711538,-0.001944,0.001000,0.001000,0.001000,0.001000,0.001000
1020.730769,-0.000488,0.001000,0.001000,0.001000,0.001000,0.001000
1020.750000,0.000969,0.001000,0.001000,0.001000,0.001000,0.001000
1020.769231,0.002425,0.001000,0.001000,0.001000,0.001000,0.001000
1020.788462,0.003879,0.001000,0.001000,0.001000,0.001000,0.001000
1020.807692,0.005329,0.001000,0.001000,0.001000,0.001000,0.001000
1020.826923,0.006775,0.001000,0.001000,0.001000,0.001000,0.001000
1020.846154,0.008215,0.001000,0.001000,0.001000,0.001000,0.001000
1020.865385,0.009648,0.001000,0.001000,0.001000,0.001000,0.001000
1020.884615,0.011073,0.001000,0.001000,0.001000,0.001000,0.001000
1020.903846,0.012489,0.001000,0.001000,0.001000,0.001000,0.001000
1020.923077,0.013894,0.001000,0.001000,0.001000,0.001000,0.001000
1020.942308,0.015287,0.001000,0.001000,0.001000,0.001000,0.001000
1020.961538,0.016668,0.001000,0.001000,0.001000,0.001000,0.001000
1020.980769,0.018034,0.001000,0.001000,0.001000,0.001000,0.001000
1021.000000,0.019384,0.001000,0.001000,0.001000,0.001000,0.001000
1021.019231,0.020719,0.001000,0.001000,0.001000,0.001000,0.001000
1021.038462,0.022036,0.001000,0.001000,0.001000,0.001000,0.001000
1021.057692,0.023334,0.001000,0.001000,0.001000,0.001000,0.001000
1021.076923,0.024612,0.001000,0.001000,0.001000,0.001000,0.001000
1021.096154,0.025869,0.001000,0.001000,0.001000,0.001000,0.001000
1021.115385,0.027105,0.001000,0.001000,0.001000,0.001000,0.001000
1021.134615,0.028317,0.001000,0.001000,0.001000,0.001000,0.001000
1021.153846,0.029505,0.001000,0.001000,0.001000,0.001000,0.001000
1021.173077,0.030669,0.001000,0.001000,0.001000,0.001000,0.001000
1021.192308,0.031806,0.001000,0.001000,0.001000,0.001000,0.001000
1021.211538,0.032916,0.001000,0.001000,0.001000,0.001000,0.001000
1021.230769,0.033999,0.001000,0.001000,0.001000,0.001000,0.001000
1021.250000,0.035052,0.001000,0.001000,0.001000,0.001000,0.001000
1021.269231,0.036076,0.001000,0.001000,0.001000,0.001000,0.001000
1021.288462,0.037069,0.001000,0.001000,0.001000,0.001000,0.001000
1021.307692,0.038031,0.001000,0.001000,0.001000,0.001000,0.001000
1021.326923,0.038960,0.001000,0.001000,0.001000,0.001000,0.001000
1021.346154,0.039857,0.001000,0.001000,0.001000,0.001000,0.001000
1021.365385,0.040719,0.001000,0.001000,0.001000,0.001000,0.001000
1021.384615,0.041547,0.001000,0.001000,0.001000,0.001000,0.001000
1021.403846,0.042340,0.001000,0.001000,0.001000,0.001000,0.001000
1021.423077,0.043097,0.001000,0.001000,0.001000,0.001000,0.001000
1021.442308,0.043817,0.001000,0.001000,0.001000,0.001000,0.001000
1021.461538,0.044500,0.001000,0.001000,0.001000,0.001000,0.001000
1021.480769,0.045145,0.001000,0.001000,0.001000,0.001000,0.001000
1021.500000,0.045752,0.001000,0.001000,0.001000,0.001000,0.001000
1021.519231,0.046320,0.001000,0.001000,0.001000,0.001000,0.001000
1021.538462,0.046849,0.001000,0.001000,0.001000,0.001000,0.001000
1021.557692,0.047338,0.001000,0.001000,0.001000,0.001000,0.001000
1021.576923,0.047787,0.001000,0.001000,0.001000,0.001000,0.001000
1021.596154,0.048195,0.001000,0.001000,0.001000,0.001000,0.001000
1021.615385,0.048562,0.001000,0.001000,0.001000,0.001000,0.001000
1021.634615,0.048888,0.001000,0.001000,0.001000,0.001000,0.001000
1021.653846,0.049173,0.001000,0.001000,0.001000,0.001000,0.001000
1021.673077,0.049416,0.001000,0.001000,0.001000,0.001000,0.001000
1021.692308,0.049617,0.001000,0.001000,0.001000,0.001000,0.001000
1021.711538,0.049776,0.001000,0.001000,0.001000,0.001000,0.001000
1021.730769,0.049892,0.001000,0.001000,0.001000,0.001000,0.001000
1021.750000,0.049967,0.001000,0.001000,0.001000,0.001000,0.001000
1021.769231,0.049999,0.001000,0.001000,0.001000,0.001000,0.001000
1021.788462,0.049988,0.001000,0.001000,0.001000,0.001000,0.001000
1021.807692,0.049935,0.001000,0.001000,0.001000,0.001000,0.001000
1021.826923,0.049840,0.001000,0.001000,0.001000,0.001000,0.001000
1021.846154,0.049702,0.001000,0.001000,0.001000,0.001000,0.001000
1021.865385,0.049522,0.001000,0.001000,0.001000,0.001000,0.001000
1021.884615,0.049300,0.001000,0.001000,0.001000,0.001000,0.001000
1021.903846,0.049037,0.001000,0.001000,0.001000,0.001000,0.001000
1021.923077,0.048731,0.001000,0.001000,0.001000,0.001000,0.001000
1021.942308,0.048385,0.001000,0.001000,0.001000,0.001000,0.001000
1021.961538,0.047997,0.001000,0.001000,0.001000,0.001000,0.001000
1021.980769,0.047568,0.001000,0.001000,0.001000,0.001000,0.001000
1022.000000,0.047100,0.001000,0.001000,0.001000,0.001000,0.001000
1022.019231,0.046591,0.001000,0.001000,0.001000,0.001000,0.001000
1022.038462,0.046042,0.001000,0.001000,0.001000,0.001000,0.001000
1022.057692,0.045455,0.001000,0.001000,0.001000,0.001000,0.001000
1022.076923,0.044829,0.001000,0.001000,0.001000,0.001000,0.001000
1022.096154,0.044165,0.001000,0.001000,0.001000,0.001000,0.001000
1022.115385,0.043463,0.001000,0.001000,0.001000,0.001000,0.001000
1022.134615,0.042725,0.001000,0.001000,0.001000,0.001000,0.001000
1022.153846,0.041950,0.001000,0.001000,0.001000,0.001000,0.001000
1022.173077,0.041140,0.001000,0.001000,0.001000,0.001000,0.001000
1022.192308,0.040295,0.001000,0.001000,0.001000,0.001000,0.001000
1022.211538,0.039415,0.001000,0.001000,0.001000,0.001000,0.001000
1022.230769,0.038502,0.001000,0.001000,0.001000,0.001000,0.001000
1022.250000,0.037557,0.001000,0.001000,0.001000,0.001000,0.001000
1022.269231,0.036579,0.001000,0.001000,0.001000,0.001000,0.001000
1022.288462,0.035571,0.001000,0.001000,0.001000,0.001000,0.001000
1022.307692,0.034532,0.001000,0.001000,0.001000,0.001000,0.001000
1022.326923,0.033464,0.001000,0.001000,0.001000,0.001000,0.001000
1022.346154,0.032368,0.001000,0.001000,0.001000,0.001000,0.001000
1022.365385,0.031244,0.001000,0.001000,0.001000,0.001000,0.001000
1022.384615,0.030094,0.001000,0.001000,0.001000,0.001000,0.001000
1022.403846,0.028918,0.001000,0.001000,0.001000,0.001000,0.001000
1022.423077,0.027717,0.001000,0.001000,0.001000,0.001000,0.001000
1022.442308,0.026493,0.001000,0.001000,0.001000,0.001000,0.001000
1022.461538,0.025247,0.001000,0.001000,0.001000,0.001000,0.001000
1022.480769,0.023979,0.001000,0.001000,0.001000,0.001000,0.001000
1022.500000,0.022691,0.001000,0.001000,0.001000,0.001000,0.001000
1022.519231,0.021383,0.001000,0.001000,0.001000,0.001000,0.001000
1022.538462,0.020057,0.001000,0.001000,0.001000,0.001000,0.001000
1022.557692,0.018715,0.001000,0.001000,0.001000,0.001000,0.001000
1022.576923,0.017356,0.001000,0.001000,0.001000,0.001000,0.001000
1022.596154,0.015983,0.001000,0.001000,0.001000,0.001000,0.001000
1022.615385,0.014596,0.001000,0.001000,0.001000,0.001000,0.001000
1022.634615,0.013197,0.001000,0.001000,0.001000,0.001000,0.001000
1022.653846,0.011786,0.001000,0.001000,0.001000,0.001000,0.001000
1022.673077,0.010366,0.001000,0.001000,0.001000,0.001000,0.001000
1022.692308,0.008937,0.001000,0.001000,0.001000,0.001000,0.001000
1022.711538,0.007500,0.001000,0.001000,0.001000,0.001000,0.001000
1022.730769,0.006057,0.001000,0.001000,0.001000,0.001000,0.001000
1022.750000,0.004608,0.001000,0.001000,0.001000,0.001000,0.001000
1022.769231,0.003156,0.001000,0.001000,0.001000,0.001000,0.001000
1022.788462,0.001701,0.001000,0.001000,0.001000,0.001000,0.001000
1022.807692,0.000245,0.001000,0.001000,0.001000,0.001000,0.001000
1022.826923,-0.001212,0.001000,0.001000,0.001000,0.001000,0.001000
1022.846154,-0.002667,0.001000,0.001000,0.001000,0.001000,0.001000
1022.865385,-0.004120,0.001000,0.001000,0.001000,0.001000,0.001000
1022.884615,-0.005570,0.001000,0.001000,0.001000,0.001000,0.001000
1022.903846,-0.007015,0.001000,0.001000,0.001000,0.001000,0.001000
1022.923077,-0.008454,0.001000,0.001000,0.001000,0.001000,0.001000
1022.942308,-0.009886,0.001000,0.001000,0.001000,0.001000,0.001000
1022.961538,-0.011310,0.001000,0.001000,0.001000,0.001000,0.001000
1022.980769,-0.012724,0.001000,0.001000,0.001000,0.001000,0.001000
1023.000000,-0.014127,0.001000,0.001000,0.001000,0.001000,0.001000
1023.019231,-0.015518,0.001000,0.001000,0.001000,0.001000,0.001000
1023.038462,-0.016896,0.001000,0.001000,0.001000,0.001000,0.001000
1023.057692,-0.018260,0.001000,0.001000,0.001000,0.001000,0.001000
1023.076923,-0.019608,0.001000,0.001000,0.001000,0.001000,0.001000
1023.096154,-0.020939,0.001000,0.001000,0.001000,0.001000,0.001000
1023.115385,-0.022253,0.001000,0.001000,0.001000,0.001000,0.001000
1023.134615,-0.023548,0.001000,0.001000,0.001000,0.001000,0.001000
1023.153846,-0.024823,0.001000,0.001000,0.001000,0.001000,0.001000
1023.173077,-0.026076,0.001000,0.001000,0.001000,0.001000,0.001000
1023.192308,-0.027308,0.001000,0.001000,0.001000,0.001000,0.001000
1023.211538,-0.028517,0.001000,0.001000,0.001000,0.001000,0.001000
1023.230769,-0.029701,0.001000,0.001000,0.001000,0.001000,0.001000
1023.250000,-0.030860,0.001000,0.001000,0.001000,0.001000,0.001000
1023.269231,-0.031993,0.001000,0.001000,0.001000,0.001000,0.001000
1023.288462,-0.033099,0.001000,0.001000,0.001000,0.001000,0.001000
1023.307692,-0.034176,0.001000,0.001000,0.001000,0.001000,0.001000
1023.326923,-0.035225,0.001000,0.001000,0.001000,0.001000,0.001000
1023.346154,-0.036244,0.001000,0.001000,0.001000,0.001000,0.001000
1023.365385,-0.037231,0.001000,0.001000,0.001000,0.001000,0.001000
1023.384615,-0.038188,0.001000,0.001000,0.001000,0.001000,0.001000
1023.403846,-0.039112,0.001000,0.001000,0.001000,0.001000,0.001000
1023.423077,-0.040003,0.001000,0.001000,0.001000,0.001000,0.001000
1023.442308,-0.040859,0.001000,0.001000,0.001000,0.001000,0.001000
1023.461538,-0.041682,0.001000,0.001000,0.001000,0.001000,0.001000
1023.480769,-0.042468,0.001000,0.001000,0.001000,0.001000,0.001000
1023.500000,-0.043219,0.001000,0.001000,0.001000,0.001000,0.001000
1023.519231,-0.043933,0.001000,0.001000,0.001000,0.001000,0.001000
1023.538462,-0.044610,0.001000,0.001000,0.001000,0.001000,0.001000
1023.557692,-0.045249,0.001000,0.001000,0.001000,0.001000,0.001000
1023.576923,-0.045849,0.001000,0.001000,0.001000,0.001000,0.001000
1023.596154,-0.046411,0.001000,0.001000,0.001000,0.001000,0.001000
1023.615385,-0.046933,0.001000,0.001000,0.001000,0.001000,0.001000
1023.634615,-0.047415,0.001000,0.001000,0.001000,0.001000,0.001000
1023.653846,-0.047857,0.001000,0.001000,0.001000,0.001000,0.001000
1023.673077,-0.048259,0.001000,0.001000,0.001000,0.001000,0.001000
1023.692308,-0.048619,0.001000,0.001000,0.001000,0.001000,0.001000
1023.711538,-0.048939,0.001000,0.001000,0.001000,0.001000,0.001000
1023.730769,-0.049216,0.001000,0.001000,0.001000,0.001000,0.001000
1023.750000,-0.049452,0.001000,0.001000,0.001000,0.001000,0.001000
1023.769231,-0.049646,0.001000,0.001000,0.001000,0.001000,0.001000
1023.788462,-0.049798,0.001000,0.001000,0.001000,0.001000,0.001000
1023.807692,-0.049908,0.001000,0.001000,0.001000,0.001000,0.001000
1023.826923,-0.049975,0.001000,0.001000,0.001000,0.001000,0.001000
1023.846154,-0.050000,0.001000,0.001000,0.001000,0.001000,0.001000
1023.865385,-0.049982,0.001000,0.001000,0.001000,0.001000,0.001000
1023.884615,-0.049922,0.001000,0.001000,0.001000,0.001000,0.001000
1023.903846,-0.049820,0.001000,0.001000,0.001000,0.001000,0.001000
1023.923077,-0.049675,0.001000,0.001000,0.001000,0.001000,0.001000
1023.942308,-0.049488,0.001000,0.001000,0.001000,0.001000,0.001000
1023.961538,-0.049259,0.001000,0.001000,0.001000,0.001000,0.001000
1023.980769,-0.048989,0.001000,0.001000,0.001000,0.001000,0.001000
1024.000000,-0.048677,0.001000,0.001000,0.001000,0.001000,0.001000
1024.019231,-0.048323,0.001000,0.001000,0.001000,0.001000,0.001000
1024.038462,-0.047928,0.001000,0.001000,0.001000,0.001000,0.001000
1024.057692,-0.047493,0.001000,0.001000,0.001000,0.001000,0.001000
1024.076923,-0.047018,0.001000,0.001000,0.001000,0.001000,0.001000
1024.096154,-0.046502,0.001000,0.001000,0.001000,0.001000,0.001000
1024.115385,-0.045947,0.001000,0.001000,0.001000,0.001000,0.001000
1024.134615,-0.045353,0.001000,0.001000,0.001000,0.001000,0.001000
1024.153846,-0.044721,0.001000,0.001000,0.001000,0.001000,0.001000
1024.173077,-0.044051,0.001000,0.001000,0.001000,0.001000,0.001000
1024.192308,-0.043343,0.001000,0.001000,0.001000,0.001000,0.001000
1024.211538,-0.042598,0.001000,0.001000,0.001000,0.001000,0.001000
1024.230769,-0.041818,0.001000,0.001000,0.001000,0.001000,0.001000
1024.250000,-0.041001,0.001000,0.001000,0.001000,0.001000,0.001000
1024.269231,-0.040150,0.001000,0.001000,0.001000,0.001000,0.001000
1024.288462,-0.039265,0.001000,0.001000,0.001000,0.001000,0.001000
1024.307692,-0.038347,0.001000,0.001000,0.001000,0.001000,0.001000
1024.326923,-0.037396,0.001000,0.001000,0.001000,0.001000,0.001000
1024.346154,-0.036413,0.001000,0.001000,0.001000,0.001000,0.001000
1024.365385,-0.035400,0.001000,0.001000,0.001000,0.001000,0.001000
1024.384615,-0.034356,0.001000,0.001000,0.001000,0.001000,0.001000
1024.403846,-0.033283,0.001000,0.001000,0.001000,0.001000,0.001000
1024.423077,-0.032182,0.001000,0.001000,0.001000,0.001000,0.001000
1024.442308,-0.031054,0.001000,0.001000,0.001000,0.001000,0.001000
1024.461538,-0.029899,0.001000,0.001000,0.001000,0.001000,0.001000
1024.480769,-0.028719,0.001000,0.001000,0.001000,0.001000,0.001000
1024.500000,-0.027515,0.001000,0.001000,0.001000,0.001000,0.001000
1024.519231,-0.026287,0.001000,0.001000,0.001000,0.001000,0.001000
1024.538462,-0.025037,0.001000,0.001000,0.001000,0.001000,0.001000
1024.557692,-0.023766,0.001000,0.001000,0.001000,0.001000,0.001000
1024.576923,-0.022474,0.001000,0.001000,0.001000,0.001000,0.001000
1024.596154,-0.021164,0.001000,0.001000,0.001000,0.001000,0.001000
1024.615385,-0.019835,0.001000,0.001000,0.001000,0.001000,0.001000
1024.634615,-0.018490,0.001000,0.001000,0.001000,0.001000,0.001000
1024.653846,-0.017129,0.001000,0.001000,0.001000,0.001000,0.001000
1024.673077,-0.015753,0.001000,0.001000,0.001000,0.001000,0.001000
1024.692308,-0.014364,0.001000,0.001000,0.001000,0.001000,0.001000
1024.711538,-0.012963,0.001000,0.001000,0.001000,0.001000,0.001000
1024.730769,-0.011551,0.001000,0.001000,0.001000,0.001000,0.001000
1024.750000,-0.010129,0.001000,0.001000,0.001000,0.001000,0.001000
1024.769231,-0.008698,0.001000,0.001000,0.001000,0.001000,0.001000
1024.788462,-0.007260,0.001000,0.001000,0.001000,0.001000,0.001000
1024.807692,-0.005816,0.001000,0.001000,0.001000,0.001000,0.001000
1024.826923,-0.004367,0.001000,0.001000,0.001000,0.001000,0.001000
1024.846154,-0.002914,0.001000,0.001000,0.001000,0.001000,0.001000
1024.865385,-0.001459,0.001000,0.001000,0.001000,0.001000,0.001000
1024.884615,-0.000002,0.001000,0.001000,0.001000,0.001000,0.001000
1024.903846,0.001454,0.001000,0.001000,0.001000,0.001000,0.001000
1024.923077,0.002909,0.001000,0.001000,0.001000,0.001000,0.001000
1024.942308,0.004362,0.001000,0.001000,0.001000,0.001000,0.001000
1024.961538,0.005811,0.001000,0.001000,0.001000,0.001000,0.001000
1024.980769,0.007255,0.001000,0.001000,0.001000,0.001000,0.001000
1025.000000,0.008693,0.001000,0.001000,0.001000,0.001000,0.001000
1025.019231,0.010124,0.001000,0.001000,0.001000,0.001000,0.001000
1025.038462,0.011546,0.001000,0.001000,0.001000,0.001000,0.001000
1025.057692,0.012958,0.001000,0.001000,0.001000,0.001000,0.001000
1025.076923,0.014359,0.001000,0.001000,0.001000,0.001000,0.001000
1025.096154,0.015748,0.001000,0.001000,0.001000,0.001000,0.001000
1025.115385,0.017124,0.001000,0.001000,0.001000,0.001000,0.001000
1025.134615,0.018485,0.001000,0.001000,0.001000,0.001000,0.001000
1025.153846,0.019831,0.001000,0.001000,0.001000,0.001000,0.001000
1025.173077,0.021159,0.001000,0.001000,0.001000,0.001000,0.001000
1025.192308,0.022470,0.001000,0.001000,0.001000,0.001000,0.001000
1025.211538,0.023762,0.001000,0.001000,0.001000,0.001000,0.001000
1025.230769,0.025033,0.001000,0.001000,0.001000,0.001000,0.001000
1025.250000,0.026283,0.001000,0.001000,0.001000,0.001000,0.001000
1025.269231,0.027511,0.001000,0.001000,0.001000,0.001000,0.001000
1025.288462,0.028716,0.001000,0.001000,0.001000,0.001000,0.001000
1025.307692,0.029896,0.001000,0.001000,0.001000,0.001000,0.001000
1025.326923,0.031050,0.001000,0.001000,0.001000,0.001000,0.001000
1025.346154,0.032179,0.001000,0.001000,0.001000,0.001000,0.001000
1025.365385,0.033280,0.001000,0.001000,0.001000,0.001000,0.001000
1025.384615,0.034353,0.001000,0.001000,0.001000,0.001000,0.001000
1025.403846,0.035397,0.001000,0.001000,0.001000,0.001000,0.001000
1025.423077,0.036410,0.001000,0.001000,0.001000,0.001000,0.001000
1025.442308,0.037393,0.001000,0.001000,0.001000,0.001000,0.001000
1025.461538,0.038344,0.001000,0.001000,0.001000,0.001000,0.001000
1025.480769,0.039262,0.001000,0.001000,0.001000,0.001000,0.001000
1025.500000,0.040148,0.001000,0.001000,0.001000,0.001000,0.001000
1025.519231,0.040999,0.001000,0.001000,0.001000,0.001000,0.001000
1025.538462,0.041815,0.001000,0.001000,0.001000,0.001000,0.001000
1025.557692,0.042596,0.001000,0.001000,0.001000,0.001000,0.001000
1025.576923,0.043340,0.001000,0.001000,0.001000,0.001000,0.001000
1025.596154,0.044048,0.001000,0.001000,0.001000,0.001000,0.001000
1025.615385,0.044719,0.001000,0.001000,0.001000,0.001000,0.001000
1025.634615,0.045351,0.001000,0.001000,0.001000,0.001000,0.001000
1025.653846,0.045945,0.001000,0.001000,0.001000,0.001000,0.001000
1025.673077,0.046500,0.001000,0.001000,0.001000,0.001000,0.001000
1025.692308,0.047016,0.001000,0.001000,0.001000,0.001000,0.001000
1025.711538,0.047492,0.001000,0.001000,0.001000,0.001000,0.001000
1025.730769,0.047927,0.001000,0.001000,0.001000,0.001000,0.001000
1025.750000,0.048322,0.001000,0.001000,0.001000,0.001000,0.001000
1025.769231,0.048675,0.001000,0.001000,0.001000,0.001000,0.001000
1025.788462,0.048988,0.001000,0.001000,0.001000,0.001000,0.001000
1025.807692,0.049259,0.001000,0.001000,0.001000,0.001000,0.001000
1025.826923,0.049488,0.001000,0.001000,0.001000,0.001000,0.001000
1025.846154,0.049675,0.001000,0.001000,0.001000,0.001000,0.001000
1025.865385,0.049819,0.001000,0.001000,0.001000,0.001000,0.001000
1025.884615,0.049922,0.001000,0.001000,0.001000,0.001000,0.001000
1025.903846,0.049982,0.001000,0.001000,0.001000,0.001000,0.001000
1025.923077,0.050000,0.001000,0.001000,0.001000,0.001000,0.001000
1025.942308,0.049975,0.001000,0.001000,0.001000,0.001000,0.001000
1025.961538,0.049908,0.001000,0.001000,0.001000,0.001000,0.001000
1025.980769,0.049799,0.001000,0.001000,0.001000,0.001000,0.001000
1026.000000,0.049647,0.001000,0.001000,0.001000,0.001000,0.001000
1026.019231,0.049453,0.001000,0.001000,0.001000,0.001000,0.001000
1026.038462,0.049217,0.001000,0.001000,0.001000,0.001000,0.001000
1026.057692,0.048940,0.001000,0.001000,0.001000,0.001000,0.001000
1026.076923,0.048620,0.001000,0.001000,0.001000,0.001000,0.001000
1026.096154,0.048260,0.001000,0.001000,0.001000,0.001000,0.001000
1026.115385,0.047859,0.001000,0.001000,0.001000,0.001000,0.001000
1026.134615,0.047417,0.001000,0.001000,0.001000,0.001000,0.001000
1026.153846,0.046935,0.001000,0.001000,0.001000,0.001000,0.001000
1026.173077,0.046412,0.001000,0.001000,0.001000,0.001000,0.001000
1026.192308,0.045851,0.001000,0.001000,0.001000,0.001000,0.001000
1026.211538,0.045251,0.001000,0.001000,0.001000,0.001000,0.001000
1026.230769,0.044612,0.001000,0.001000,0.001000,0.001000,0.001000
1026.250000,0.043935,0.001000,0.001000,0.001000,0.001000,0.001000
1026.269231,0.043221,0.001000,0.001000,0.001000,0.001000,0.001000
1026.288462,0.042471,0.001000,0.001000,0.001000,0.001000,0.001000
1026.307692,0.041684,0.001000,0.001000,0.001000,0.001000,0.001000
1026.326923,0.040862,0.001000,0.001000,0.001000,0.001000,0.001000
1026.346154,0.040005,0.001000,0.001000,0.001000,0.001000,0.001000
1026.365385,0.039115,0.001000,0.001000,0.001000,0.001000,0.001000
1026.384615,0.038191,0.001000,0.001000,0.001000,0.001000,0.001000
1026.403846,0.037235,0.001000,0.001000,0.001000,0.001000,0.001000
1026.423077,0.036247,0.001000,0.001000,0.001000,0.001000,0.001000
1026.442308,0.035228,0.001000,0.001000,0.001000,0.001000,0.001000
1026.461538,0.034180,0.001000,0.001000,0.001000,0.001000,0.001000
1026.480769,0.033102,0.001000,0.001000,0.001000,0.001000,0.001000
1026.500000,0.031996,0.001000,0.001000,0.001000,0.001000,0.001000
1026.519231,0.030864,0.001000,0.001000,0.001000,0.001000,0.001000
1026.538462,0.029705,0.001000,0.001000,0.001000,0.001000,0.001000
1026.557692,0.028520,0.001000,0.001000,0.001000,0.001000,0.001000
1026.576923,0.027312,0.001000,0.001000,0.001000,0.001000,0.001000
1026.596154,0.026080,0.001000,0.001000,0.001000,0.001000,0.001000
1026.615385,0.024827,0.001000,0.001000,0.001000,0.001000,0.001000
1026.634615,0.023552,0.001000,0.001000,0.001000,0.001000,0.001000
1026.653846,0.022257,0.001000,0.001000,0.001000,0.001000,0.001000
1026.673077,0.020944,0.001000,0.001000,0.001000,0.001000,0.001000
1026.692308,0.019612,0.001000,0.001000,0.001000,0.001000,0.001000
1026.711538,0.018264,0.001000,0.001000,0.001000,0.001000,0.001000
1026.730769,0.016900,0.001000,0.001000,0.001000,0.001000,0.001000
1026.750000,0.015522,0.001000,0.001000,0.001000,0.001000,0.001000
1026.769231,0.014131,0.001000,0.001000,0.001000,0.001000,0.001000
1026.788462,0.012728,0.001000,0.001000,0.001000,0.001000,0.001000
1026.807692,0.011314,0.001000,0.001000,0.001000,0.001000,0.001000
1026.826923,0.009891,0.001000,0.001000,0.001000,0.001000,0.001000
1026.846154,0.008459,0.001000,0.001000,0.001000,0.001000,0.001000
1026.865385,0.007020,0.001000,0.001000,0.001000,0.001000,0.001000
1026.884615,0.005575,0.001000,0.001000,0.001000,0.001000,0.001000
1026.903846,0.004125,0.001000,0.001000,0.001000,0.001000,0.001000
1026.923077,0.002672,0.001000,0.001000,0.001000,0.001000,0.001000
1026.942308,0.001216,0.001000,0.001000,0.001000,0.001000,0.001000
1026.961538,-0.000240,0.001000,0.001000,0.001000,0.001000,0.001000
1026.980769,-0.001697,0.001000,0.001000,0.001000,0.001000,0.001000
1027.000000,-0.003152,0.001000,0.001000,0.001000,0.001000,0.001000
1027.019231,-0.004604,0.001000,0.001000,0.001000,0.001000,0.001000
1027.038462,-0.006052,0.001000,0.001000,0.001000,0.001000,0.001000
1027.057692,-0.007495,0.001000,0.001000,0.001000,0.001000,0.001000
1027.076923,-0.008932,0.001000,0.001000,0.001000,0.001000,0.001000
1027.096154,-0.010361,0.001000,0.001000,0.001000,0.001000,0.001000
1027.115385,-0.011782,0.001000,0.001000,0.001000,0.001000,0.001000
1027.134615,-0.013192,0.001000,0.001000,0.001000,0.001000,0.001000
1027.153846,-0.014592,0.001000,0.001000,0.001000,0.001000,0.001000
1027.173077,-0.015979,0.001000,0.001000,0.001000,0.001000,0.001000
1027.192308,-0.017352,0.001000,0.001000,0.001000,0.001000,0.001000
1027.211538,-0.018710,0.001000,0.001000,0.001000,0.001000,0.001000
1027.230769,-0.020053,0.001000,0.001000,0.001000,0.001000,0.001000
1027.250000,-0.021379,0.001000,0.001000,0.001000,0.001000,0.001000
1027.269231,-0.022686,0.001000,0.001000,0.001000,0.001000,0.001000
1027.288462,-0.023975,0.001000,0.001000,0.001000,0.001000,0.001000
1027.307692,-0.025243,0.001000,0.001000,0.001000,0.001000,0.001000
1027.326923,-0.026489,0.001000,0.001000,0.001000,0.001000,0.001000
1027.346154,-0.027713,0.001000,0.001000,0.001000,0.001000,0.001000
1027.365385,-0.028914,0.001000,0.001000,0.001000,0.001000,0.001000
1027.384615,-0.030090,0.001000,0.001000,0.001000,0.001000,0.001000
1027.403846,-0.031240,0.001000,0.001000,0.001000,0.001000,0.001000
1027.423077,-0.032364,0.001000,0.001000,0.001000,0.001000,0.001000
1027.442308,-0.033461,0.001000,0.001000,0.001000,0.001000,0.001000
1027.461538,-0.034529,0.001000,0.001000,0.001000,0.001000,0.001000
1027.480769,-0.035567,0.001000,0.001000,0.001000,0.001000,0.001000
1027.500000,-0.036576,0.001000,0.001000,0.001000,0.001000,0.001000
1027.519231,-0.037554,0.001000,0.001000,0.001000,0.001000,0.001000
1027.538462,-0.038499,0.001000,0.001000,0.001000,0.001000,0.001000
1027.557692,-0.039412,0.001000,0.001000,0.001000,0.001000,0.001000
1027.576923,-0.040292,0.001000,0.001000,0.001000,0.001000,0.001000
1027.596154,-0.041137,0.001000,0.001000,0.001000,0.001000,0.001000
1027.615385,-0.041948,0.001000,0.001000,0.001000,0.001000,0.001000
1027.634615,-0.042722,0.001000,0.001000,0.001000,0.001000,0.001000
1027.653846,-0.043461,0.001000,0.001000,0.001000,0.001000,0.001000
1027.673077,-0.044163,0.001000,0.001000,0.001000,0.001000,0.001000
1027.692308,-0.044827,0.001000,0.001000,0.001000,0.001000,0.001000
1027.711538,-0.045453,0.001000,0.001000,0.001000,0.001000,0.001000
1027.730769,-0.046041,0.001000,0.001000,0.001000,0.001000,0.001000
1027.750000,-0.046589,0.001000,0.001000,0.001000,0.001000,0.001000
1027.769231,-0.047098,0.001000,0.001000,0.001000,0.001000,0.001000
1027.788462,-0.047567,0.001000,0.001000,0.001000,0.001000,0.001000
1027.807692,-0.047996,0.001000,0.001000,0.001000,0.001000,0.001000
1027.826923,-0.048384,0.001000,0.001000,0.001000,0.001000,0.001000
1027.846154,-0.048730,0.001000,0.001000,0.001000,0.001000,0.001000
1027.865385,-0.049036,0.001000,0.001000,0.001000,0.001000,0.001000
1027.884615,-0.049300,0.001000,0.001000,0.001000,0.001000,0.001000
1027.903846,-0.049522,0.001000,0.001000,0.001000,0.001000,0.001000
1027.923077,-0.049702,0.001000,0.001000,0.001000,0.001000,0.001000
1027.942308,-0.049839,0.001000,0.001000,0.001000,0.001000,0.001000
1027.961538,-0.049935,0.001000,0.001000,0.001000,0.001000,0.001000
1027.980769,-0.049988,0.001000,0.001000,0.001000,0.001000,0.001000
1028.000000,-0.049999,0.001000,0.001000,0.001000,0.001000,0.001000
1028.019231,-0.049967,0.001000,0.001000,0.001000,0.001000,0.001000
1028.038462,-0.049893,0.001000,0.001000,0.001000,0.001000,0.001000
1028.057692,-0.049776,0.001000,0.001000,0.001000,0.001000,0.001000
1028.076923,-0.049618,0.001000,0.001000,0.001000,0.001000,0.001000
1028.096154,-0.049417,0.001000,0.001000,0.001000,0.001000,0.001000
1028.115385,-0.049174,0.001000,0.001000,0.001000,0.001000,0.001000
1028.134615,-0.048889,0.001000,0.001000,0.001000,0.001000,0.001000
1028.153846,-0.048563,0.001000,0.001000,0.001000,0.001000,0.001000
1028.173077,-0.048196,0.001000,0.001000,0.001000,0.001000,0.001000
1028.192308,-0.047788,0.001000,0.001000,0.001000,0.001000,0.001000
1028.211538,-0.047339,0.001000,0.001000,0.001000,0.001000,0.001000
1028.230769,-0.046850,0.001000,0.001000,0.001000,0.001000,0.001000
1028.250000,-0.046322,0.001000,0.001000,0.001000,0.001000,0.001000
1028.269231,-0.045754,0.001000,0.001000,0.001000,0.001000,0.001000
1028.288462,-0.045147,0.001000,0.001000,0.001000,0.001000,0.001000
1028.307692,-0.044502,0.001000,0.001000,0.001000,0.001000,0.001000
1028.326923,-0.043819,0.001000,0.001000,0.001000,0.001000,0.001000
1028.346154,-0.043099,0.001000,0.001000,0.001000,0.001000,0.001000
1028.365385,-0.042342,0.001000,0.001000,0.001000,0.001000,0.001000
1028.384615,-0.041550,0.001000,0.001000,0.001000,0.001000,0.001000
1028.403846,-0.040722,0.001000,0.001000,0.001000,0.001000,0.001000
1028.423077,-0.039859,0.001000,0.001000,0.001000,0.001000,0.001000
1028.442308,-0.038963,0.001000,0.001000,0.001000,0.001000,0.001000
1028.461538,-0.038034,0.001000,0.001000,0.001000,0.001000,0.001000
1028.480769,-0.037072,0.001000,0.001000,0.001000,0.001000,0.001000
1028.500000,-0.036079,0.001000,0.001000,0.001000,0.001000,0.001000
1028.519231,-0.035056,0.001000,0.001000,0.001000,0.001000,0.001000
1028.538462,-0.034002,0.001000,0.001000,0.001000,0.001000,0.001000
1028.557692,-0.032920,0.001000,0.001000,0.001000,0.001000,0.001000
1028.576923,-0.031810,0.001000,0.001000,0.001000,0.001000,0.001000
1028.596154,-0.030672,0.001000,0.001000,0.001000,0.001000,0.001000
1028.615385,-0.029509,0.001000,0.001000,0.001000,0.001000,0.001000
1028.634615,-0.028321,0.001000,0.001000,0.001000,0.001000,0.001000
1028.653846,-0.027109,0.001000,0.001000,0.001000,0.001000,0.001000
1028.673077,-0.025873,0.001000,0.001000,0.001000,0.001000,0.001000
1028.692308,-0.024616,0.001000,0.001000,0.001000,0.001000,0.001000
1028.711538,-0.023338,0.001000,0.001000,0.001000,0.001000,0.001000
1028.730769,-0.022040,0.001000,0.001000,0.001000,0.001000,0.001000
1028.750000,-0.020723,0.001000,0.001000,0.001000,0.001000,0.001000
1028.769231,-0.019389,0.001000,0.001000,0.001000,0.001000,0.001000
1028.788462,-0.018038,0.001000,0.001000,0.001000,0.001000,0.001000
1028.807692,-0.016672,0.001000,0.001000,0.001000,0.001000,0.001000
1028.826923,-0.015292,0.001000,0.001000,0.001000,0.001000,0.001000
1028.846154,-0.013899,0.001000,0.001000,0.001000,0.001000,0.001000
1028.865385,-0.012494,0.001000,0.001000,0.001000,0.001000,0.001000
1028.884615,-0.011078,0.001000,0.001000,0.001000,0.001000,0.001000
1028.903846,-0.009653,0.001000,0.001000,0.001000,0.001000,0.001000
1028.923077,-0.008220,0.001000,0.001000,0.001000,0.001000,0.001000
1028.942308,-0.006780,0.001000,0.001000,0.001000,0.001000,0.001000
1028.961538,-0.005334,0.001000,0.001000,0.001000,0.001000,0.001000
1028.980769,-0.003883,0.001000,0.001000,0.001000,0.001000,0.001000
1029.000000,-0.002430,0.001000,0.001000,0.001000,0.001000,0.001000
1029.019231,-0.000974,0.001000,0.001000,0.001000,0.001000,0.001000
1029.038462,0.000483,0.001000,0.001000,0.001000,0.001000,0.001000
1029.057692,0.001939,0.001000,0.001000,0.001000,0.001000,0.001000
1029.076923,0.003394,0.001000,0.001000,0.001000,0.001000,0.001000
1029.096154,0.004845,0.001000,0.001000,0.001000,0.001000,0.001000
1029.115385,0.006293,0.001000,0.001000,0.001000,0.001000,0.001000
1029.134615,0.007735,0.001000,0.001000,0.001000,0.001000,0.001000
1029.153846,0.009171,0.001000,0.001000,0.001000,0.001000,0.001000
1029.173077,0.010599,0.001000,0.001000,0.001000,0.001000,0.001000
1029.192308,0.012018,0.001000,0.001000,0.001000,0.001000,0.001000
1029.211538,0.013426,0.001000,0.001000,0.001000,0.001000,0.001000
1029.230769,0.014823,0.001000,0.001000,0.001000,0.001000,0.001000
1029.250000,0.016208,0.001000,0.001000,0.001000,0.001000,0.001000
1029.269231,0.017579,0.001000,0.001000,0.001000,0.001000,0.001000
1029.288462,0.018935,0.001000,0.001000,0.001000,0.001000,0.001000
1029.307692,0.020275,0.001000,0.001000,0.001000,0.001000,0.001000
1029.326923,0.021598,0.001000,0.001000,0.001000,0.001000,0.001000
1029.346154,0.022902,0.001000,0.001000,0.001000,0.001000,0.001000
1029.365385,0.024187,0.001000,0.001000,0.001000,0.001000,0.001000
1029.384615,0.025452,0.001000,0.001000,0.001000,0.001000,0.001000
1029.403846,0.026695,0.001000,0.001000,0.001000,0.001000,0.001000
1029.423077,0.027915,0.001000,0.001000,0.001000,0.001000,0.001000
1029.442308,0.029111,0.001000,0.001000,0.001000,0.001000,0.001000
1029.461538,0.030283,0.001000,0.001000,0.001000,0.001000,0.001000
1029.480769,0.031429,0.001000,0.001000,0.001000,0.001000,0.001000
1029.500000,0.032549,0.001000,0.001000,0.001000,0.001000,0.001000
1029.519231,0.033640,0.001000,0.001000,0.001000,0.001000,0.001000
1029.538462,0.034704,0.001000,0.001000,0.001000,0.001000,0.001000
1029.557692,0.035738,0.001000,0.001000,0.001000,0.001000,0.001000
1029.576923,0.036741,0.001000,0.001000,0.001000,0.001000,0.001000
1029.596154,0.037713,0.001000,0.001000,0.001000,0.001000,0.001000
1029.615385,0.038654,0.001000,0.001000,0.001000,0.001000,0.001000
1029.634615,0.039561,0.001000,0.001000,0.001000,0.001000,0.001000
1029.653846,0.040435,0.001000,0.001000,0.001000,0.001000,0.001000
1029.673077,0.041275,0.001000,0.001000,0.001000,0.001000,0.001000
1029.692308,0.042079,0.001000,0.001000,0.001000,0.001000,0.001000
1029.711538,0.042848,0.001000,0.001000,0.001000,0.001000,0.001000
1029.730769,0.043580,0.001000,0.001000,0.001000,0.001000,0.001000
1029.750000,0.044276,0.001000,0.001000,0.001000,0.001000,0.001000
1029.769231,0.044934,0.001000,0.001000,0.001000,0.001000,0.001000
1029.788462,0.045554,0.001000,0.001000,0.001000,0.001000,0.001000
1029.807692,0.046135,0.001000,0.001000,0.001000,0.001000,0.001000
1029.826923,0.046677,0.001000,0.001000,0.001000,0.001000,0.001000
1029.846154,0.047179,0.001000,0.001000,0.001000,0.001000,0.001000
1029.865385,0.047641,0.001000,0.001000,0.001000,0.001000,0.001000
1029.884615,0.048063,0.001000,0.001000,0.001000,0.001000,0.001000
1029.903846,0.048444,0.001000,0.001000,0.001000,0.001000,0.001000
1029.923077,0.048784,0.001000,0.001000,0.001000,0.001000,0.001000
1029.942308,0.049083,0.001000,0.001000,0.001000,0.001000,0.001000
1029.961538,0.049340,0.001000,0.001000,0.001000,0.001000,0.001000
1029.980769,0.049555,0.001000,0.001000,0.001000,0.001000,0.001000
1030.000000,0.000000,0.001000,0.001000,0.001000,0.001000,0.001000
1030.019231,0.001446,0.001000,0.001000,0.001000,0.001000,0.001000
1030.038462,0.002892,0.001000,0.001000,0.001000,0.001000,0.001000
1030.057692,0.004334,0.001000,0.001000,0.001000,0.001000,0.001000
1030.076923,0.005773,0.001000,0.001000,0.001000,0.001000,0.001000
1030.096154,0.007208,0.001000,0.001000,0.001000,0.001000,0.001000
1030.115385,0.008636,0.001000,0.001000,0.001000,0.001000,0.001000
1030.134615,0.010057,0.001000,0.001000,0.001000,0.001000,0.001000
1030.153846,0.011469,0.001000,0.001000,0.001000,0.001000,0.001000
1030.173077,0.012872,0.001000,0.001000,0.001000,0.001000,0.001000
1030.192308,0.014265,0.001000,0.001000,0.001000,0.001000,0.001000
1030.211538,0.015645,0.001000,0.001000,0.001000,0.001000,0.001000
1030.230769,0.017012,0.001000,0.001000,0.001000,0.001000,0.001000
1030.250000,0.018365,0.001000,0.001000,0.001000,0.001000,0.001000
1030.269231,0.019703,0.001000,0.001000,0.001000,0.001000,0.001000
1030.288462,0.021024,0.001000,0.001000,0.001000,0.001000,0.001000
1030.307692,0.022327,0.001000,0.001000,0.001000,0.001000,0.001000
1030.326923,0.023612,0.001000,0.001000,0.001000,0.001000,0.001000
1030.346154,0.024877,0.001000,0.001000,0.001000,0.001000,0.001000
1030.365385,0.026121,0.001000,0.001000,0.001000,0.001000,0.001000
1030.384615,0.027344,0.001000,0.001000,0.001000,0.001000,0.001000
1030.403846,0.028543,0.001000,0.001000,0.001000,0.001000,0.001000
1030.423077,0.029719,0.001000,0.001000,0.001000,0.001000,0.001000
1030.442308,0.030870,0.001000,0.001000,0.001000,0.001000,0.001000
1030.461538,0.031994,0.001000,0.001000,0.001000,0.001000,0.001000
1030.480769,0.033092,0.001000,0.001000,0.001000,0.001000,0.001000
1030.500000,0.034163,0.001000,0.001000,0.001000,0.001000,0.001000
1030.519231,0.035205,0.001000,0.001000,0.001000,0.001000,0.001000
1030.538462,0.036217,0.001000,0.001000,0.001000,0.001000,0.001000
1030.557692,0.037199,0.001000,0.001000,0.001000,0.001000,0.001000
1030.576923,0.038150,0.001000,0.001000,0.001000,0.001000,0.001000
1030.596154,0.039069,0.001000,0.001000,0.001000,0.001000,0.001000
1030.615385,0.039955,0.001000,0.001000,0.001000,0.001000,0.001000
1030.634615,0.040808,0.001000,0.001000,0.001000,0.001000,0.001000
1030.653846,0.041627,0.001000,0.001000,0.001000,0.001000,0.001000
1030.673077,0.042411,0.001000,0.001000,0.001000,0.001000,0.001000
1030.692308,0.043159,0.001000,0.001000,0.001000,0.001000,0.001000
1030.711538,0.043871,0.001000,0.001000,0.001000,0.001000,0.001000
1030.730769,0.044547,0.001000,0.001000,0.001000,0.001000,0.001000
1030.750000,0.045185,0.001000,0.001000,0.001000,0.001000,0.001000
1030.769231,0.045785,0.001000,0.001000,0.001000,0.001000,0.001000
1030.788462,0.046347,0.001000,0.001000,0.001000,0.001000,0.001000
1030.807692,0.046871,0.001000,0.001000,0.001000,0.001000,0.001000
1030.826923,0.047355,0.001000,0.001000,0.001000,0.001000,0.001000
1030.846154,0.047799,0.001000,0.001000,0.001000,0.001000,0.001000
1030.865385,0.048203,0.001000,0.001000,0.001000,0.001000,0.001000
1030.884615,0.048567,0.001000,0.001000,0.001000,0.001000,0.001000
1030.903846,0.048891,0.001000,0.001000,0.001000,0.001000,0.001000
1030.923077,0.049173,0.001000,0.001000,0.001000,0.001000,0.001000
1030.942308,0.049415,0.001000,0.001000,0.001000,0.001000,0.001000
1030.961538,0.049615,0.001000,0.001000,0.001000,0.001000,0.001000
1030.980769,0.049773,0.001000,0.001000,0.001000,0.001000,0.001000
1031.000000,0.049890,0.001000,0.001000,0.001000,0.001000,0.001000
1031.019231,0.049965,0.001000,0.001000,0.001000,0.001000,0.001000
1031.038462,0.049998,0.001000,0.001000,0.001000,0.001000,0.001000
1031.057692,0.049990,0.001000,0.001000,0.001000,0.001000,0.001000
1031.076923,0.049939,0.001000,0.001000,0.001000,0.001000,0.001000
1031.096154,0.049847,0.001000,0.001000,0.001000,0.001000,0.001000
1031.115385,0.049713,0.001000,0.001000,0.001000,0.001000,0.001000
1031.134615,0.049537,0.001000,0.001000,0.001000,0.001000,0.001000
1031.153846,0.049320,0.001000,0.001000,0.001000,0.001000,0.001000
1031.173077,0.049062,0.001000,0.001000,0.001000,0.001000,0.001000
1031.192308,0.048762,0.001000,0.001000,0.001000,0.001000,0.001000
1031.211538,0.048422,0.001000,0.001000,0.001000,0.001000,0.001000
1031.230769,0.048042,0.001000,0.001000,0.001000,0.001000,0.001000
1031.250000,0.047621,0.001000,0.001000,0.001000,0.001000,0.001000
1031.269231,0.047160,0.001000,0.001000,0.001000,0.001000,0.001000
1031.288462,0.046660,0.001000,0.001000,0.001000,0.001000,0.001000
1031.307692,0.046120,0.001000,0.001000,0.001000,0.001000,0.001000
1031.326923,0.045542,0.001000,0.001000,0.001000,0.001000,0.001000
1031.346154,0.044926,0.001000,0.001000,0.001000,0.001000,0.001000
1031.365385,0.044273,0.001000,0.001000,0.001000,0.001000,0.001000
1031.384615,0.043582,0.001000,0.001000,0.001000,0.001000,0.001000
1031.403846,0.042855,0.001000,0.001000,0.001000,0.001000,0.001000
1031.423077,0.042092,0.001000,0.001000,0.001000,0.001000,0.001000
1031.442308,0.041293,0.001000,0.001000,0.001000,0.001000,0.001000
1031.461538,0.040461,0.001000,0.001000,0.001000,0.001000,0.001000
1031.480769,0.039594,0.001000,0.001000,0.001000,0.001000,0.001000
1031.500000,0.038694,0.001000,0.001000,0.001000,0.001000,0.001000
1031.519231,0.037762,0.001000,0.001000,0.001000,0.001000,0.001000
1031.538462,0.036798,0.001000,0.001000,0.001000,0.001000,0.001000
1031.557692,0.035803,0.001000,0.001000,0.001000,0.001000,0.001000
1031.576923,0.034779,0.001000,0.001000,0.001000,0.001000,0.001000
1031.596154,0.033725,0.001000,0.001000,0.001000,0.001000,0.001000
1031.615385,0.032643,0.001000,0.001000,0.001000,0.001000,0.001000
1031.634615,0.031534,0.001000,0.001000,0.001000,0.001000,0.001000
1031.653846,0.030398,0.001000,0.001000,0.001000,0.001000,0.001000
1031.673077,0.029237,0.001000,0.001000,0.001000,0.001000,0.001000
1031.692308,0.028052,0.001000,0.001000,0.001000,0.001000,0.001000
1031.711538,0.026843,0.001000,0.001000,0.001000,0.001000,0.001000
1031.730769,0.025611,0.001000,0.001000,0.001000,0.001000,0.001000
1031.750000,0.024358,0.001000,0.001000,0.001000,0.001000,0.001000
1031.769231,0.023085,0.001000,0.001000,0.001000,0.001000,0.001000
1031.788462,0.021792,0.001000,0.001000,0.001000,0.001000,0.001000
1031.807692,0.020481,0.001000,0.001000,0.001000,0.001000,0.001000
1031.826923,0.019153,0.001000,0.001000,0.001000,0.001000,0.001000
1031.846154,0.017809,0.001000,0.001000,0.001000,0.001000,0.001000
1031.865385,0.016450,0.001000,0.001000,0.001000,0.001000,0.001000
1031.884615,0.015078,0.001000,0.001000,0.001000,0.001000,0.001000
1031.903846,0.013692,0.001000,0.001000,0.001000,0.001000,0.001000
1031.923077,0.012295,0.001000,0.001000,0.001000,0.001000,0.001000
1031.942308,0.010888,0.001000,0.001000,0.001000,0.001000,0.001000
1031.961538,0.009472,0.001000,0.001000,0.001000,0.001000,0.001000
1031.980769,0.008048,0.001000,0.001000,0.001000,0.001000,0.001000
1032.000000,0.006617,0.001000,0.001000,0.001000,0.001000,0.001000
1032.019231,0.005181,0.001000,0.001000,0.001000,0.001000,0.001000
1032.038462,0.003740,0.001000,0.001000,0.001000,0.001000,0.001000
1032.057692,0.002296,0.001000,0.001000,0.001000,0.001000,0.001000
1032.076923,0.000850,0.001000,0.001000,0.001000,0.001000,0.001000
1032.096154,-0.000596,0.001000,0.001000,0.001000,0.001000,0.001000
1032.115385,-0.002042,0.001000,0.001000,0.001000,0.001000,0.001000
1032.134615,-0.003487,0.001000,0.001000,0.001000,0.001000,0.001000
1032.153846,-0.004928,0.001000,0.001000,0.001000,0.001000,0.001000
1032.173077,-0.006365,0.001000,0.001000,0.001000,0.001000,0.001000
1032.192308,-0.007797,0.001000,0.001000,0.001000,0.001000,0.001000
1032.211538,-0.009223,0.001000,0.001000,0.001000,0.001000,0.001000
1032.230769,-0.010640,0.001000,0.001000,0.001000,0.001000,0.001000
1032.250000,-0.012049,0.001000,0.001000,0.001000,0.001000,0.001000
1032.269231,-0.013448,0.001000,0.001000,0.001000,0.001000,0.001000
1032.288462,-0.014835,0.001000,0.001000,0.001000,0.001000,0.001000
1032.307692,-0.016210,0.001000,0.001000,0.001000,0.001000,0.001000
1032.326923,-0.017572,0.001000,0.001000,0.001000,0.001000,0.001000
1032.346154,-0.018918,0.001000,0.001000,0.001000,0.001000,0.001000
1032.365385,-0.020249,0.001000,0.001000,0.001000,0.001000,0.001000
1032.384615,-0.021563,0.001000,0.001000,0.001000,0.001000,0.001000
1032.403846,-0.022859,0.001000,0.001000,0.001000,0.001000,0.001000
1032.423077,-0.024136,0.001000,0.001000,0.001000,0.001000,0.001000
1032.442308,-0.025393,0.001000,0.001000,0.001000,0.001000,0.001000
1032.461538,-0.026628,0.001000,0.001000,0.001000,0.001000,0.001000
1032.480769,-0.027841,0.001000,0.001000,0.001000,0.001000,0.001000
1032.500000,-0.029031,0.001000,0.001000,0.001000,0.001000,0.001000
1032.519231,-0.030196,0.001000,0.001000,0.001000,0.001000,0.001000
1032.538462,-0.031336,0.001000,0.001000,0.001000,0.001000,0.001000
1032.557692,-0.032450,0.001000,0.001000,0.001000,0.001000,0.001000
1032.576923,-0.033537,0.001000,0.001000,0.001000,0.001000,0.001000
1032.596154,-0.034596,0.001000,0.001000,0.001000,0.001000,0.001000
1032.615385,-0.035626,0.001000,0.001000,0.001000,0.001000,0.001000
1032.634615,-0.036626,0.001000,0.001000,0.001000,0.001000,0.001000
1032.653846,-0.037595,0.001000,0.001000,0.001000,0.001000,0.001000
1032.673077,-0.038533,0.001000,0.001000,0.001000,0.001000,0.001000
1032.692308,-0.039438,0.001000,0.001000,0.001000,0.001000,0.001000
1032.711538,-0.040311,0.001000,0.001000,0.001000,0.001000,0.001000
1032.730769,-0.041150,0.001000,0.001000,0.001000,0.001000,0.001000
1032.750000,-0.041954,0.001000,0.001000,0.001000,0.001000,0.001000
1032.769231,-0.042723,0.001000,0.001000,0.001000,0.001000,0.001000
1032.788462,-0.043457,0.001000,0.001000,0.001000,0.001000,0.001000
1032.807692,-0.044154,0.001000,0.001000,0.001000,0.001000,0.001000
1032.826923,-0.044814,0.001000,0.001000,0.001000,0.001000,0.001000
1032.846154,-0.045437,0.001000,0.001000,0.001000,0.001000,0.001000
1032.865385,-0.046021,0.001000,0.001000,0.001000,0.001000,0.001000
1032.884615,-0.046568,0.001000,0.001000,0.001000,0.001000,0.001000
1032.903846,-0.047075,0.001000,0.001000,0.001000,0.001000,0.001000
1032.923077,-0.047543,0.001000,0.001000,0.001000,0.001000,0.001000
1032.942308,-0.047971,0.001000,0.001000,0.001000,0.001000,0.001000
1032.961538,-0.048358,0.001000,0.001000,0.001000,0.001000,0.001000
1032.980769,-0.048706,0.001000,0.001000,0.001000,0.001000,0.001000
1033.000000,-0.049012,0.001000,0.001000,0.001000,0.001000,0.001000
1033.019231,-0.049278,0.001000,0.001000,0.001000,0.001000,0.001000
1033.038462,-0.049502,0.001000,0.001000,0.001000,0.001000,0.001000
1033.057692,-0.049685,0.001000,0.001000,0.001000,0.001000,0.001000
1033.076923,-0.049826,0.001000,0.001000,0.001000,0.001000,0.001000
1033.096154,-0.049926,0.001000,0.001000,0.001000,0.001000,0.001000
1033.115385,-0.049984,0.001000,0.001000,0.001000,0.001000,0.001000
1033.134615,-0.050000,0.001000,0.001000,0.001000,0.001000,0.001000
1033.153846,-0.049974,0.001000,0.001000,0.001000,0.001000,0.001000
1033.173077,-0.049906,0.001000,0.001000,0.001000,0.001000,0.001000
1033.192308,-0.049797,0.001000,0.001000,0.001000,0.001000,0.001000
1033.211538,-0.049646,0.001000,0.001000,0.001000,0.001000,0.001000
1033.230769,-0.049453,0.001000,0.001000,0.001000,0.001000,0.001000
1033.250000,-0.049219,0.001000,0.001000,0.001000,0.001000,0.001000
1033.269231,-0.048943,0.001000,0.001000,0.001000,0.001000,0.001000
1033.288462,-0.048627,0.001000,0.001000,0.001000,0.001000,0.001000
1033.307692,-0.048270,0.001000,0.001000,0.001000,0.001000,0.001000
1033.326923,-0.047873,0.001000,0.001000,0.001000,0.001000,0.001000
1033.346154,-0.047435,0.001000,0.001000,0.001000,0.001000,0.001000
1033.365385,-0.046958,0.001000,0.001000,0.001000,0.001000,0.001000
1033.384615,-0.046442,0.001000,0.001000,0.001000,0.001000,0.001000
1033.403846,-0.045887,0.001000,0.001000,0.001000,0.001000,0.001000
1033.423077,-0.045293,0.001000,0.001000,0.001000,0.001000,0.001000
1033.442308,-0.044661,0.001000,0.001000,0.001000,0.001000,0.001000
1033.461538,-0.043992,0.001000,0.001000,0.001000,0.001000,0.001000
1033.480769,-0.043287,0.001000,0.001000,0.001000,0.001000,0.001000
1033.500000,-0.042545,0.001000,0.001000,0.001000,0.001000,0.001000
1033.519231,-0.041767,0.001000,0.001000,0.001000,0.001000,0.001000
1033.538462,-0.040954,0.001000,0.001000,0.001000,0.001000,0.001000
1033.557692,-0.040107,0.001000,0.001000,0.001000,0.001000,0.001000
1033.576923,-0.039227,0.001000,0.001000,0.001000,0.001000,0.001000
1033.596154,-0.038314,0.001000,0.001000,0.001000,0.001000,0.001000
1033.615385,-0.037368,0.001000,0.001000,0.001000,0.001000,0.001000
1033.634615,-0.036392,0.001000,0.001000,0.001000,0.001000,0.001000
1033.653846,-0.035385,0.001000,0.001000,0.001000,0.001000,0.001000
1033.673077,-0.034348,0.001000,0.001000,0.001000,0.001000,0.001000
1033.692308,-0.033283,0.001000,0.001000,0.001000,0.001000,0.001000
1033.711538,-0.032189,0.001000,0.001000,0.001000,0.001000,0.001000
1033.730769,-0.031069,0.001000,0.001000,0.001000,0.001000,0.001000
1033.750000,-0.029923,0.001000,0.001000,0.001000,0.001000,0.001000
1033.769231,-0.028751,0.001000,0.001000,0.001000,0.001000,0.001000
1033.788462,-0.027556,0.001000,0.001000,0.001000,0.001000,0.001000
1033.807692,-0.026338,0.001000,0.001000,0.001000,0.001000,0.001000
1033.826923,-0.025097,0.001000,0.001000,0.001000,0.001000,0.001000
1033.846154,-0.023836,0.001000,0.001000,0.001000,0.001000,0.001000
1033.865385,-0.022554,0.001000,0.001000,0.001000,0.001000,0.001000
1033.884615,-0.021254,0.001000,0.001000,0.001000,0.001000,0.001000
1033.903846,-0.019936,0.001000,0.001000,0.001000,0.001000,0.001000
1033.923077,-0.018601,0.001000,0.001000,0.001000,0.001000,0.001000
1033.942308,-0.017251,0.001000,0.001000,0.001000,0.001000,0.001000
1033.961538,-0.015886,0.001000,0.001000,0.001000,0.001000,0.001000
1033.980769,-0.014508,0.001000,0.001000,0.001000,0.001000,0.001000
1034.000000,-0.013118,0.001000,0.001000,0.001000,0.001000,0.001000
1034.019231,-0.011717,0.001000,0.001000,0.001000,0.001000,0.001000
1034.038462,-0.010306,0.001000,0.001000,0.001000,0.001000,0.001000
1034.057692,-0.008886,0.001000,0.001000,0.001000,0.001000,0.001000
1034.076923,-0.007459,0.001000,0.001000,0.001000,0.001000,0.001000
1034.096154,-0.006026,0.001000,0.001000,0.001000,0.001000,0.001000
1034.115385,-0.004587,0.001000,0.001000,0.001000,0.001000,0.001000
1034.134615,-0.003145,0.001000,0.001000,0.001000,0.001000,0.001000
1034.153846,-0.001700,0.001000,0.001000,0.001000,0.001000,0.001000
1034.173077,-0.000254,0.001000,0.001000,0.001000,0.001000,0.001000
1034.192308,0.001192,0.001000,0.001000,0.001000,0.001000,0.001000
1034.211538,0.002638,0.001000,0.001000,0.001000,0.001000,0.001000
1034.230769,0.004081,0.001000,0.001000,0.001000,0.001000,0.001000
1034.250000,0.005521,0.001000,0.001000,0.001000,0.001000,0.001000
1034.269231,0.006956,0.001000,0.001000,0.001000,0.001000,0.001000
1034.288462,0.008385,0.001000,0.001000,0.001000,0.001000,0.001000
1034.307692,0.009808,0.001000,0.001000,0.001000,0.001000,0.001000
1034.326923,0.011222,0.001000,0.001000,0.001000,0.001000,0.001000
1034.346154,0.012627,0.001000,0.001000,0.001000,0.001000,0.001000
1034.365385,0.014021,0.001000,0.001000,0.001000,0.001000,0.001000
1034.384615,0.015403,0.001000,0.001000,0.001000,0.001000,0.001000
1034.403846,0.016773,0.001000,0.001000,0.001000,0.001000,0.001000
1034.423077,0.018129,0.001000,0.001000,0.001000,0.001000,0.001000
1034.442308,0.019469,0.001000,0.001000,0.001000,0.001000,0.001000
1034.461538,0.020793,0.001000,0.001000,0.001000,0.001000,0.001000
1034.480769,0.022100,0.001000,0.001000,0.001000,0.001000,0.001000
1034.500000,0.023388,0.001000,0.001000,0.001000,0.001000,0.001000
1034.519231,0.024656,0.001000,0.001000,0.001000,0.001000,0.001000
1034.538462,0.025904,0.001000,0.001000,0.001000,0.001000,0.001000
1034.557692,0.027131,0.001000,0.001000,0.001000,0.001000,0.001000
1034.576923,0.028334,0.001000,0.001000,0.001000,0.001000,0.001000
1034.596154,0.029514,0.001000,0.001000,0.001000,0.001000,0.001000
1034.615385,0.030669,0.001000,0.001000,0.001000,0.001000,0.001000
1034.634615,0.031799,0.001000,0.001000,0.001000,0.001000,0.001000
1034.653846,0.032902,0.001000,0.001000,0.001000,0.001000,0.001000
1034.673077,0.033977,0.001000,0.001000,0.001000,0.001000,0.001000
