timestamp,ax,ay,az,gx,gy,gz
1000.000000,0.000000,0.001000,0.001000,0.001000,0.001000,0.001000
1000.019231,0.001403,0.001000,0.001000,0.001000,0.001000,0.001000
1000.038462,0.002806,0.001000,0.001000,0.001000,0.001000,0.001000
1000.057692,0.004206,0.001000,0.001000,0.001000,0.001000,0.001000
1000.076923,0.005603,0.001000,0.001000,0.001000,0.001000,0.001000
1000.096154,0.006995,0.001000,0.001000,0.001000,0.001000,0.001000
1000.115385,0.008382,0.001000,0.001000,0.001000,0.001000,0.001000
1000.134615,0.009763,0.001000,0.001000,0.001000,0.001000,0.001000
1000.153846,0.011135,0.001000,0.001000,0.001000,0.001000,0.001000
1000.173077,0.012499,0.001000,0.001000,0.001000,0.001000,0.001000
1000.192308,0.013853,0.001000,0.001000,0.001000,0.001000,0.001000
1000.211538,0.015196,0.001000,0.001000,0.001000,0.001000,0.001000
1000.230769,0.016527,0.001000,0.001000,0.001000,0.001000,0.001000
1000.250000,0.017845,0.001000,0.001000,0.001000,0.001000,0.001000
1000.269231,0.019150,0.001000,0.001000,0.001000,0.001000,0.001000
1000.288462,0.020438,0.001000,0.001000,0.001000,0.001000,0.001000
1000.307692,0.021711,0.001000,0.001000,0.001000,0.001000,0.001000
1000.326923,0.022967,0.001000,0.001000,0.001000,0.001000,0.001000
1000.346154,0.024205,0.001000,0.001000,0.001000,0.001000,0.001000
1000.365385,0.025423,0.001000,0.001000,0.001000,0.001000,0.001000
1000.384615,0.026622,0.001000,0.001000,0.001000,0.001000,0.001000
1000.403846,0.027799,0.001000,0.001000,0.001000,0.001000,0.001000
1000.423077,0.028955,0.001000,0.001000,0.001000,0.001000,0.001000
1000.442308,0.030088,0.001000,0.001000,0.001000,0.001000,0.001000
1000.461538,0.031197,0.001000,0.001000,0.001000,0.001000,0.001000
1000.480769,0.032281,0.001000,0.001000,0.001000,0.001000,0.001000
1000.500000,0.033340,0.001000,0.001000,0.001000,0.001000,0.001000
1000.519231,0.034373,0.001000,0.001000,0.001000,0.001000,0.001000
1000.538462,0.035379,0.001000,0.001000,0.001000,0.001000,0.001000
1000.557692,0.036357,0.001000,0.001000,0.001000,0.001000,0.001000
1000.576923,0.037306,0.001000,0.001000,0.001000,0.001000,0.001000
1000.596154,0.038226,0.001000,0.001000,0.001000,0.001000,0.001000
1000.615385,0.039115,0.001000,0.001000,0.001000,0.001000,0.001000
1000.634615,0.039974,0.001000,0.001000,0.001000,0.001000,0.001000
1000.653846,0.040801,0.001000,0.001000,0.001000,0.001000,0.001000
1000.673077,0.041597,0.001000,0.001000,0.001000,0.001000,0.001000
1000.692308,0.042359,0.001000,0.001000,0.001000,0.001000,0.001000
1000.711538,0.043088,0.001000,0.001000,0.001000,0.001000,0.001000
1000.730769,0.043783,0.001000,0.001000,0.001000,0.001000,0.001000
1000.750000,0.044443,0.001000,0.001000,0.001000,0.001000,0.001000
1000.769231,0.045069,0.001000,0.001000,0.001000,0.001000,0.001000
1000.788462,0.045659,0.001000,0.001000,0.001000,0.001000,0.001000
1000.807692,0.046213,0.001000,0.001000,0.001000,0.001000,0.001000
1000.826923,0.046731,0.001000,0.001000,0.001000,0.001000,0.001000
1000.846154,0.047211,0.001000,0.001000,0.001000,0.001000,0.001000
1000.865385,0.047655,0.001000,0.001000,0.001000,0.001000,0.001000
1000.884615,0.048061,0.001000,0.001000,0.001000,0.001000,0.001000
1000.903846,0.048429,0.001000,0.001000,0.001000,0.001000,0.001000
1000.923077,0.048759,0.001000,0.001000,0.001000,0.001000,0.001000
1000.942308,0.049051,0.001000,0.001000,0.001000,0.001000,0.001000
1000.961538,0.049303,0.001000,0.001000,0.001000,0.001000,0.001000
1000.980769,0.049517,0.001000,0.001000,0.001000,0.001000,0.001000
1001.000000,0.049692,0.001000,0.001000,0.001000,0.001000,0.001000
1001.019231,0.049828,0.001000,0.001000,0.001000,0.001000,0.001000
1001.038462,0.049925,0.001000,0.001000,0.001000,0.001000,0.001000
1001.057692,0.049982,0.001000,0.001000,0.001000,0.001000,0.001000
1001.076923,0.050000,0.001000,0.001000,0.001000,0.001000,0.001000
1001.096154,0.049978,0.001000,0.001000,0.001000,0.001000,0.001000
1001.115385,0.049917,0.001000,0.001000,0.001000,0.001000,0.001000
1001.134615,0.049817,0.001000,0.001000,0.001000,0.001000,0.001000
1001.153846,0.049678,0.001000,0.001000,0.001000,0.001000,0.001000
1001.173077,0.049499,0.001000,0.001000,0.001000,0.001000,0.001000
1001.192308,0.049281,0.001000,0.001000,0.001000,0.001000,0.001000
1001.211538,0.049025,0.001000,0.001000,0.001000,0.001000,0.001000
1001.230769,0.048729,0.001000,0.001000,0.001000,0.001000,0.001000
1001.250000,0.048396,0.001000,0.001000,0.001000,0.001000,0.001000
1001.269231,0.048024,0.001000,0.001000,0.001000,0.001000,0.001000
1001.288462,0.047615,0.001000,0.001000,0.001000,0.001000,0.001000
1001.307692,0.047167,0.001000,0.001000,0.001000,0.001000,0.001000
1001.326923,0.046683,0.001000,0.001000,0.001000,0.001000,0.001000
1001.346154,0.046162,0.001000,0.001000,0.001000,0.001000,0.001000
1001.365385,0.045605,0.001000,0.001000,0.001000,0.001000,0.001000
1001.384615,0.045011,0.001000,0.001000,0.001000,0.001000,0.001000
1001.403846,0.044382,0.001000,0.001000,0.001000,0.001000,0.001000
1001.423077,0.043719,0.001000,0.001000,0.001000,0.001000,0.001000
1001.442308,0.043020,0.001000,0.001000,0.001000,0.001000,0.001000
1001.461538,0.042288,0.001000,0.001000,0.001000,0.001000,0.001000
1001.480769,0.041523,0.001000,0.001000,0.001000,0.001000,0.001000
1001.500000,0.040724,0.001000,0.001000,0.001000,0.001000,0.001000
1001.519231,0.039894,0.001000,0.001000,0.001000,0.001000,0.001000
1001.538462,0.039032,0.001000,0.001000,0.001000,0.001000,0.001000
1001.557692,0.038140,0.001000,0.001000,0.001000,0.001000,0.001000
1001.576923,0.037217,0.001000,0.001000,0.001000,0.001000,0.001000
1001.596154,0.036265,0.001000,0.001000,0.001000,0.001000,0.001000
1001.615385,0.035285,0.001000,0.001000,0.001000,0.001000,0.001000
1001.634615,0.034277,0.001000,0.001000,0.001000,0.001000,0.001000
1001.653846,0.033241,0.001000,0.001000,0.001000,0.001000,0.001000
1001.673077,0.032180,0.001000,0.001000,0.001000,0.001000,0.001000
1001.692308,0.031093,0.001000,0.001000,0.001000,0.001000,0.001000
1001.711538,0.029981,0.001000,0.001000,0.001000,0.001000,0.001000
1001.730769,0.028846,0.001000,0.001000,0.001000,0.001000,0.001000
1001.750000,0.027689,0.001000,0.001000,0.001000,0.001000,0.001000
1001.769231,0.026509,0.001000,0.001000,0.001000,0.001000,0.001000
1001.788462,0.025309,0.001000,0.001000,0.001000,0.001000,0.001000
1001.807692,0.024088,0.001000,0.001000,0.001000,0.001000,0.001000
1001.826923,0.022849,0.001000,0.001000,0.001000,0.001000,0.001000
1001.846154,0.021592,0.001000,0.001000,0.001000,0.001000,0.001000
1001.865385,0.020317,0.001000,0.001000,0.001000,0.001000,0.001000
1001.884615,0.019027,0.001000,0.001000,0.001000,0.001000,0.001000
1001.903846,0.017721,0.001000,0.001000,0.001000,0.001000,0.001000
1001.923077,0.016402,0.001000,0.001000,0.001000,0.001000,0.001000
1001.942308,0.015070,0.001000,0.001000,0.001000,0.001000,0.001000
1001.961538,0.013725,0.001000,0.001000,0.001000,0.001000,0.001000
1001.980769,0.012370,0.001000,0.001000,0.001000,0.001000,0.001000
1002.000000,0.011006,0.001000,0.001000,0.001000,0.001000,0.001000
1002.019231,0.009632,0.001000,0.001000,0.001000,0.001000,0.001000
1002.038462,0.008251,0.001000,0.001000,0.001000,0.001000,0.001000
1002.057692,0.006864,0.001000,0.001000,0.001000,0.001000,0.001000
1002.076923,0.005471,0.001000,0.001000,0.001000,0.001000,0.001000
1002.096154,0.004074,0.001000,0.001000,0.001000,0.001000,0.001000
1002.115385,0.002673,0.001000,0.001000,0.001000,0.001000,0.001000
1002.134615,0.001271,0.001000,0.001000,0.001000,0.001000,0.001000
1002.153846,-0.000133,0.001000,0.001000,0.001000,0.001000,0.001000
1002.173077,-0.001536,0.001000,0.001000,0.001000,0.001000,0.001000
1002.192308,-0.002939,0.001000,0.001000,0.001000,0.001000,0.001000
1002.211538,-0.004338,0.001000,0.001000,0.001000,0.001000,0.001000
1002.230769,-0.005735,0.001000,0.001000,0.001000,0.001000,0.001000
1002.250000,-0.007127,0.001000,0.001000,0.001000,0.001000,0.001000
1002.269231,-0.008513,0.001000,0.001000,0.001000,0.001000,0.001000
1002.288462,-0.009893,0.001000,0.001000,0.001000,0.001000,0.001000
1002.307692,-0.011265,0.001000,0.001000,0.001000,0.001000,0.001000
1002.326923,-0.012628,0.001000,0.001000,0.001000,0.001000,0.001000
1002.346154,-0.013981,0.001000,0.001000,0.001000,0.001000,0.001000
1002.365385,-0.015323,0.001000,0.001000,0.001000,0.001000,0.001000
1002.384615,-0.016653,0.001000,0.001000,0.001000,0.001000,0.001000
1002.403846,-0.017970,0.001000,0.001000,0.001000,0.001000,0.001000
1002.423077,-0.019272,0.001000,0.001000,0.001000,0.001000,0.001000
1002.442308,-0.020560,0.001000,0.001000,0.001000,0.001000,0.001000
1002.461538,-0.021831,0.001000,0.001000,0.001000,0.001000,0.001000
1002.480769,-0.023085,0.001000,0.001000,0.001000,0.001000,0.001000
1002.500000,-0.024321,0.001000,0.001000,0.001000,0.001000,0.001000
1002.519231,-0.025537,0.001000,0.001000,0.001000,0.001000,0.001000
1002.538462,-0.026734,0.001000,0.001000,0.001000,0.001000,0.001000
1002.557692,-0.027910,0.001000,0.001000,0.001000,0.001000,0.001000
1002.576923,-0.029063,0.001000,0.001000,0.001000,0.001000,0.001000
1002.596154,-0.030194,0.001000,0.001000,0.001000,0.001000,0.001000
1002.615385,-0.031300,0.001000,0.001000,0.001000,0.001000,0.001000
1002.634615,-0.032383,0.001000,0.001000,0.001000,0.001000,0.001000
1002.653846,-0.033439,0.001000,0.001000,0.001000,0.001000,0.001000
1002.673077,-0.034469,0.001000,0.001000,0.001000,0.001000,0.001000
1002.692308,-0.035473,0.001000,0.001000,0.001000,0.001000,0.001000
1002.711538,-0.036448,0.001000,0.001000,0.001000,0.001000,0.001000
1002.730769,-0.037394,0.001000,0.001000,0.001000,0.001000,0.001000
1002.750000,-0.038311,0.001000,0.001000,0.001000,0.001000,0.001000
1002.769231,-0.039198,0.001000,0.001000,0.001000,0.001000,0.001000
1002.788462,-0.040054,0.001000,0.001000,0.001000,0.001000,0.001000
1002.807692,-0.040878,0.001000,0.001000,0.001000,0.001000,0.001000
1002.826923,-0.041670,0.001000,0.001000,0.001000,0.001000,0.001000
1002.846154,-0.042429,0.001000,0.001000,0.001000,0.001000,0.001000
1002.865385,-0.043155,0.001000,0.001000,0.001000,0.001000,0.001000
1002.884615,-0.043847,0.001000,0.001000,0.001000,0.001000,0.001000
1002.903846,-0.044504,0.001000,0.001000,0.001000,0.001000,0.001000
1002.923077,-0.045126,0.001000,0.001000,0.001000,0.001000,0.001000
1002.942308,-0.045713,0.001000,0.001000,0.001000,0.001000,0.001000
1002.961538,-0.046264,0.001000,0.001000,0.001000,0.001000,0.001000
1002.980769,-0.046778,0.001000,0.001000,0.001000,0.001000,0.001000
1003.000000,-0.047255,0.001000,0.001000,0.001000,0.001000,0.001000
1003.019231,-0.047695,0.001000,0.001000,0.001000,0.001000,0.001000
1003.038462,-0.048097,0.001000,0.001000,0.001000,0.001000,0.001000
1003.057692,-0.048462,0.001000,0.001000,0.001000,0.001000,0.001000
1003.076923,-0.048788,0.001000,0.001000,0.001000,0.001000,0.001000
1003.096154,-0.049076,0.001000,0.001000,0.001000,0.001000,0.001000
1003.115385,-0.049325,0.001000,0.001000,0.001000,0.001000,0.001000
1003.134615,-0.049536,0.001000,0.001000,0.001000,0.001000,0.001000
1003.153846,-0.049707,0.001000,0.001000,0.001000,0.001000,0.001000
1003.173077,-0.049839,0.001000,0.001000,0.001000,0.001000,0.001000
1003.192308,-0.049932,0.001000,0.001000,0.001000,0.001000,0.001000
1003.211538,-0.049985,0.001000,0.001000,0.001000,0.001000,0.001000
1003.230769,-0.050000,0.001000,0.001000,0.001000,0.001000,0.001000
1003.250000,-0.049974,0.001000,0.001000,0.001000,0.001000,0.001000
1003.269231,-0.049910,0.001000,0.001000,0.001000,0.001000,0.001000
1003.288462,-0.049806,0.001000,0.001000,0.001000,0.001000,0.001000
1003.307692,-0.049662,0.001000,0.001000,0.001000,0.001000,0.001000
1003.326923,-0.049480,0.001000,0.001000,0.001000,0.001000,0.001000
1003.346154,-0.049259,0.001000,0.001000,0.001000,0.001000,0.001000
1003.365385,-0.048998,0.001000,0.001000,0.001000,0.001000,0.001000
1003.384615,-0.048700,0.001000,0.001000,0.001000,0.001000,0.001000
1003.403846,-0.048362,0.001000,0.001000,0.001000,0.001000,0.001000
1003.423077,-0.047987,0.001000,0.001000,0.001000,0.001000,0.001000
1003.442308,-0.047574,0.001000,0.001000,0.001000,0.001000,0.001000
1003.461538,-0.047123,0.001000,0.001000,0.001000,0.001000,0.001000
1003.480769,-0.046635,0.001000,0.001000,0.001000,0.001000,0.001000
1003.500000,-0.046111,0.001000,0.001000,0.001000,0.001000,0.001000
1003.519231,-0.045550,0.001000,0.001000,0.001000,0.001000,0.001000
1003.538462,-0.044953,0.001000,0.001000,0.001000,0.001000,0.001000
1003.557692,-0.044321,0.001000,0.001000,0.001000,0.001000,0.001000
1003.576923,-0.043654,0.001000,0.001000,0.001000,0.001000,0.001000
1003.596154,-0.042953,0.001000,0.001000,0.001000,0.001000,0.001000
1003.615385,-0.042217,0.001000,0.001000,0.001000,0.001000,0.001000
1003.634615,-0.041449,0.001000,0.001000,0.001000,0.001000,0.001000
1003.653846,-0.040647,0.001000,0.001000,0.001000,0.001000,0.001000
1003.673077,-0.039814,0.001000,0.001000,0.001000,0.001000,0.001000
1003.692308,-0.038949,0.001000,0.001000,0.001000,0.001000,0.001000
1003.711538,-0.038054,0.001000,0.001000,0.001000,0.001000,0.001000
1003.730769,-0.037128,0.001000,0.001000,0.001000,0.001000,0.001000
1003.750000,-0.036174,0.001000,0.001000,0.001000,0.001000,0.001000
1003.769231,-0.035191,0.001000,0.001000,0.001000,0.001000,0.001000
1003.788462,-0.034180,0.001000,0.001000,0.001000,0.001000,0.001000
1003.807692,-0.033142,0.001000,0.001000,0.001000,0.001000,0.001000
1003.826923,-0.032078,0.001000,0.001000,0.001000,0.001000,0.001000
1003.846154,-0.030989,0.001000,0.001000,0.001000,0.001000,0.001000
1003.865385,-0.029875,0.001000,0.001000,0.001000,0.001000,0.001000
1003.884615,-0.028738,0.001000,0.001000,0.001000,0.001000,0.001000
1003.903846,-0.027578,0.001000,0.001000,0.001000,0.001000,0.001000
1003.923077,-0.026396,0.001000,0.001000,0.001000,0.001000,0.001000
1003.942308,-0.025194,0.001000,0.001000,0.001000,0.001000,0.001000
1003.961538,-0.023972,0.001000,0.001000,0.001000,0.001000,0.001000
1003.980769,-0.022731,0.001000,0.001000,0.001000,0.001000,0.001000
1004.000000,-0.021472,0.001000,0.001000,0.001000,0.001000,0.001000
1004.019231,-0.020196,0.001000,0.001000,0.001000,0.001000,0.001000
1004.038462,-0.018904,0.001000,0.001000,0.001000,0.001000,0.001000
1004.057692,-0.017597,0.001000,0.001000,0.001000,0.001000,0.001000
1004.076923,-0.016276,0.001000,0.001000,0.001000,0.001000,0.001000
1004.096154,-0.014943,0.001000,0.001000,0.001000,0.001000,0.001000
1004.115385,-0.013598,0.001000,0.001000,0.001000,0.001000,0.001000
1004.134615,-0.012242,0.001000,0.001000,0.001000,0.001000,0.001000
1004.153846,-0.010876,0.001000,0.001000,0.001000,0.001000,0.001000
1004.173077,-0.009502,0.001000,0.001000,0.001000,0.001000,0.001000
1004.192308,-0.008120,0.001000,0.001000,0.001000,0.001000,0.001000
1004.211538,-0.006732,0.001000,0.001000,0.001000,0.001000,0.001000
1004.230769,-0.005339,0.001000,0.001000,0.001000,0.001000,0.001000
1004.250000,-0.003941,0.001000,0.001000,0.001000,0.001000,0.001000
1004.269231,-0.002541,0.001000,0.001000,0.001000,0.001000,0.001000
1004.288462,-0.001138,0.001000,0.001000,0.001000,0.001000,0.001000
1004.307692,0.000266,0.001000,0.001000,0.001000,0.001000,0.001000
1004.326923,0.001669,0.001000,0.001000,0.001000,0.001000,0.001000
1004.346154,0.003071,0.001000,0.001000,0.001000,0.001000,0.001000
1004.365385,0.004471,0.001000,0.001000,0.001000,0.001000,0.001000
1004.384615,0.005867,0.001000,0.001000,0.001000,0.001000,0.001000
1004.403846,0.007258,0.001000,0.001000,0.001000,0.001000,0.001000
1004.423077,0.008644,0.001000,0.001000,0.001000,0.001000,0.001000
1004.442308,0.010023,0.001000,0.001000,0.001000,0.001000,0.001000
1004.461538,0.011394,0.001000,0.001000,0.001000,0.001000,0.001000
1004.480769,0.012756,0.001000,0.001000,0.001000,0.001000,0.001000
1004.500000,0.014108,0.001000,0.001000,0.001000,0.001000,0.001000
1004.519231,0.015449,0.001000,0.001000,0.001000,0.001000,0.001000
1004.538462,0.016778,0.001000,0.001000,0.001000,0.001000,0.001000
1004.557692,0.018093,0.001000,0.001000,0.001000,0.001000,0.001000
1004.576923,0.019395,0.001000,0.001000,0.001000,0.001000,0.001000
1004.596154,0.020681,0.001000,0.001000,0.001000,0.001000,0.001000
1004.615385,0.021950,0.001000,0.001000,0.001000,0.001000,0.001000
1004.634615,0.023203,0.001000,0.001000,0.001000,0.001000,0.001000
1004.653846,0.024437,0.001000,0.001000,0.001000,0.001000,0.001000
1004.673077,0.025652,0.001000,0.001000,0.001000,0.001000,0.001000
1004.692308,0.026846,0.001000,0.001000,0.001000,0.001000,0.001000
1004.711538,0.028020,0.001000,0.001000,0.001000,0.001000,0.001000
1004.730769,0.029171,0.001000,0.001000,0.001000,0.001000,0.001000
1004.750000,0.030299,0.001000,0.001000,0.001000,0.001000,0.001000
1004.769231,0.031404,0.001000,0.001000,0.001000,0.001000,0.001000
1004.788462,0.032484,0.001000,0.001000,0.001000,0.001000,0.001000
1004.807692,0.033538,0.001000,0.001000,0.001000,0.001000,0.001000
1004.826923,0.034566,0.001000,0.001000,0.001000,0.001000,0.001000
1004.846154,0.035566,0.001000,0.001000,0.001000,0.001000,0.001000
1004.865385,0.036539,0.001000,0.001000,0.001000,0.001000,0.001000
1004.884615,0.037482,0.001000,0.001000,0.001000,0.001000,0.001000
1004.903846,0.038396,0.001000,0.001000,0.001000,0.001000,0.001000
1004.923077,0.039280,0.001000,0.001000,0.001000,0.001000,0.001000
1004.942308,0.040133,0.001000,0.001000,0.001000,0.001000,0.001000
1004.961538,0.040954,0.001000,0.001000,0.001000,0.001000,0.001000
1004.980769,0.041743,0.001000,0.001000,0.001000,0.001000,0.001000
1005.000000,0.042499,0.001000,0.001000,0.001000,0.001000,0.001000
1005.019231,0.043222,0.001000,0.001000,0.001000,0.001000,0.001000
1005.038462,0.043911,0.001000,0.001000,0.001000,0.001000,0.001000
1005.057692,0.044565,0.001000,0.001000,0.001000,0.001000,0.001000
1005.076923,0.045183,0.001000,0.001000,0.001000,0.001000,0.001000
1005.096154,0.045767,0.001000,0.001000,0.001000,0.001000,0.001000
1005.115385,0.046314,0.001000,0.001000,0.001000,0.001000,0.001000
1005.134615,0.046824,0.001000,0.001000,0.001000,0.001000,0.001000
1005.153846,0.047298,0.001000,0.001000,0.001000,0.001000,0.001000
1005.173077,0.047735,0.001000,0.001000,0.001000,0.001000,0.001000
1005.192308,0.048134,0.001000,0.001000,0.001000,0.001000,0.001000
1005.211538,0.048494,0.001000,0.001000,0.001000,0.001000,0.001000
1005.230769,0.048817,0.001000,0.001000,0.001000,0.001000,0.001000
1005.250000,0.049101,0.001000,0.001000,0.001000,0.001000,0.001000
1005.269231,0.049347,0.001000,0.001000,0.001000,0.001000,0.001000
1005.288462,0.049554,0.001000,0.001000,0.001000,0.001000,0.001000
1005.307692,0.049721,0.001000,0.001000,0.001000,0.001000,0.001000
1005.326923,0.049850,0.001000,0.001000,0.001000,0.001000,0.001000
1005.346154,0.049939,0.001000,0.001000,0.001000,0.001000,0.001000
1005.365385,0.049989,0.001000,0.001000,0.001000,0.001000,0.001000
1005.384615,0.049999,0.001000,0.001000,0.001000,0.001000,0.001000
1005.403846,0.049970,0.001000,0.001000,0.001000,0.001000,0.001000
1005.423077,0.049901,0.001000,0.001000,0.001000,0.001000,0.001000
1005.442308,0.049794,0.001000,0.001000,0.001000,0.001000,0.001000
1005.461538,0.049647,0.001000,0.001000,0.001000,0.001000,0.001000
1005.480769,0.049461,0.001000,0.001000,0.001000,0.001000,0.001000
1005.500000,0.049236,0.001000,0.001000,0.001000,0.001000,0.001000
1005.519231,0.048972,0.001000,0.001000,0.001000,0.001000,0.001000
1005.538462,0.048669,0.001000,0.001000,0.001000,0.001000,0.001000
1005.557692,0.048328,0.001000,0.001000,0.001000,0.001000,0.001000
1005.576923,0.047950,0.001000,0.001000,0.001000,0.001000,0.001000
1005.596154,0.047533,0.001000,0.001000,0.001000,0.001000,0.001000
1005.615385,0.047079,0.001000,0.001000,0.001000,0.001000,0.001000
1005.634615,0.046587,0.001000,0.001000,0.001000,0.001000,0.001000
1005.653846,0.046059,0.001000,0.001000,0.001000,0.001000,0.001000
1005.673077,0.045495,0.001000,0.001000,0.001000,0.001000,0.001000
1005.692308,0.044895,0.001000,0.001000,0.001000,0.001000,0.001000
1005.711538,0.044260,0.001000,0.001000,0.001000,0.001000,0.001000
1005.730769,0.043589,0.001000,0.001000,0.001000,0.001000,0.001000
1005.750000,0.042884,0.001000,0.001000,0.001000,0.001000,0.001000
1005.769231,0.042146,0.001000,0.001000,0.001000,0.001000,0.001000
1005.788462,0.041374,0.001000,0.001000,0.001000,0.001000,0.001000
1005.807692,0.040570,0.001000,0.001000,0.001000,0.001000,0.001000
1005.826923,0.039733,0.001000,0.001000,0.001000,0.001000,0.001000
1005.846154,0.038866,0.001000,0.001000,0.001000,0.001000,0.001000
1005.865385,0.037967,0.001000,0.001000,0.001000,0.001000,0.001000
1005.884615,0.037039,0.001000,0.001000,0.001000,0.001000,0.001000
1005.903846,0.036082,0.001000,0.001000,0.001000,0.001000,0.001000
1005.923077,0.035096,0.001000,0.001000,0.001000,0.001000,0.001000
1005.942308,0.034083,0.001000,0.001000,0.001000,0.001000,0.001000
1005.961538,0.033042,0.001000,0.001000,0.001000,0.001000,0.001000
1005.980769,0.031976,0.001000,0.001000,0.001000,0.001000,0.001000
1006.000000,0.030884,0.001000,0.001000,0.001000,0.001000,0.001000
1006.019231,0.029768,0.001000,0.001000,0.001000,0.001000,0.001000
1006.038462,0.028629,0.001000,0.001000,0.001000,0.001000,0.001000
1006.057692,0.027467,0.001000,0.001000,0.001000,0.001000,0.001000
1006.076923,0.026284,0.001000,0.001000,0.001000,0.001000,0.001000
1006.096154,0.025079,0.001000,0.001000,0.001000,0.001000,0.001000
1006.115385,0.023855,0.001000,0.001000,0.001000,0.001000,0.001000
1006.134615,0.022612,0.001000,0.001000,0.001000,0.001000,0.001000
1006.153846,0.021352,0.001000,0.001000,0.001000,0.001000,0.001000
1006.173077,0.020074,0.001000,0.001000,0.001000,0.001000,0.001000
1006.192308,0.018781,0.001000,0.001000,0.001000,0.001000,0.001000
1006.211538,0.017473,0.001000,0.001000,0.001000,0.001000,0.001000
1006.230769,0.016151,0.001000,0.001000,0.001000,0.001000,0.001000
1006.250000,0.014816,0.001000,0.001000,0.001000,0.001000,0.001000
1006.269231,0.013470,0.001000,0.001000,0.001000,0.001000,0.001000
1006.288462,0.012113,0.001000,0.001000,0.001000,0.001000,0.001000
1006.307692,0.010746,0.001000,0.001000,0.001000,0.001000,0.001000
1006.326923,0.009372,0.001000,0.001000,0.001000,0.001000,0.001000
1006.346154,0.007989,0.001000,0.001000,0.001000,0.001000,0.001000
1006.365385,0.006601,0.001000,0.001000,0.001000,0.001000,0.001000
1006.384615,0.005207,0.001000,0.001000,0.001000,0.001000,0.001000
1006.403846,0.003809,0.001000,0.001000,0.001000,0.001000,0.001000
1006.423077,0.002408,0.001000,0.001000,0.001000,0.001000,0.001000
1006.442308,0.001005,0.001000,0.001000,0.001000,0.001000,0.001000
1006.461538,-0.000399,0.001000,0.001000,0.001000,0.001000,0.001000
1006.480769,-0.001802,0.001000,0.001000,0.001000,0.001000,0.001000
1006.500000,-0.003204,0.001000,0.001000,0.001000,0.001000,0.001000
1006.519231,-0.004603,0.001000,0.001000,0.001000,0.001000,0.001000
1006.538462,-0.005999,0.001000,0.001000,0.001000,0.001000,0.001000
1006.557692,-0.007390,0.001000,0.001000,0.001000,0.001000,0.001000
1006.576923,-0.008775,0.001000,0.001000,0.001000,0.001000,0.001000
1006.596154,-0.010153,0.001000,0.001000,0.001000,0.001000,0.001000
1006.615385,-0.011523,0.001000,0.001000,0.001000,0.001000,0.001000
1006.634615,-0.012885,0.001000,0.001000,0.001000,0.001000,0.001000
1006.653846,-0.014236,0.001000,0.001000,0.001000,0.001000,0.001000
1006.673077,-0.015575,0.001000,0.001000,0.001000,0.001000,0.001000
1006.692308,-0.016903,0.001000,0.001000,0.001000,0.001000,0.001000
1006.711538,-0.018217,0.001000,0.001000,0.001000,0.001000,0.001000
1006.730769,-0.019517,0.001000,0.001000,0.001000,0.001000,0.001000
1006.750000,-0.020801,0.001000,0.001000,0.001000,0.001000,0.001000
1006.769231,-0.022070,0.001000,0.001000,0.001000,0.001000,0.001000
1006.788462,-0.023320,0.001000,0.001000,0.001000,0.001000,0.001000
1006.807692,-0.024553,0.001000,0.001000,0.001000,0.001000,0.001000
1006.826923,-0.025766,0.001000,0.001000,0.001000,0.001000,0.001000
1006.846154,-0.026958,0.001000,0.001000,0.001000,0.001000,0.001000
1006.865385,-0.028130,0.001000,0.001000,0.001000,0.001000,0.001000
1006.884615,-0.029279,0.001000,0.001000,0.001000,0.001000,0.001000
1006.903846,-0.030405,0.001000,0.001000,0.001000,0.001000,0.001000
1006.923077,-0.031507,0.001000,0.001000,0.001000,0.001000,0.001000
1006.942308,-0.032585,0.001000,0.001000,0.001000,0.001000,0.001000
1006.961538,-0.033636,0.001000,0.001000,0.001000,0.001000,0.001000
1006.980769,-0.034661,0.001000,0.001000,0.001000,0.001000,0.001000
1007.000000,-0.035659,0.001000,0.001000,0.001000,0.001000,0.001000
1007.019231,-0.036629,0.001000,0.001000,0.001000,0.001000,0.001000
1007.038462,-0.037570,0.001000,0.001000,0.001000,0.001000,0.001000
1007.057692,-0.038481,0.001000,0.001000,0.001000,0.001000,0.001000
1007.076923,-0.039362,0.001000,0.001000,0.001000,0.001000,0.001000
1007.096154,-0.040212,0.001000,0.001000,0.001000,0.001000,0.001000
1007.115385,-0.041030,0.001000,0.001000,0.001000,0.001000,0.001000
1007.134615,-0.041816,0.001000,0.001000,0.001000,0.001000,0.001000
1007.153846,-0.042569,0.001000,0.001000,0.001000,0.001000,0.001000
1007.173077,-0.043289,0.001000,0.001000,0.001000,0.001000,0.001000
1007.192308,-0.043974,0.001000,0.001000,0.001000,0.001000,0.001000
1007.211538,-0.044625,0.001000,0.001000,0.001000,0.001000,0.001000
1007.230769,-0.045240,0.001000,0.001000,0.001000,0.001000,0.001000
1007.250000,-0.045820,0.001000,0.001000,0.001000,0.001000,0.001000
1007.269231,-0.046364,0.001000,0.001000,0.001000,0.001000,0.001000
1007.288462,-0.046871,0.001000,0.001000,0.001000,0.001000,0.001000
1007.307692,-0.047341,0.001000,0.001000,0.001000,0.001000,0.001000
1007.326923,-0.047774,0.001000,0.001000,0.001000,0.001000,0.001000
1007.346154,-0.048169,0.001000,0.001000,0.001000,0.001000,0.001000
1007.365385,-0.048527,0.001000,0.001000,0.001000,0.001000,0.001000
1007.384615,-0.048846,0.001000,0.001000,0.001000,0.001000,0.001000
1007.403846,-0.049126,0.001000,0.001000,0.001000,0.001000,0.001000
1007.423077,-0.049368,0.001000,0.001000,0.001000,0.001000,0.001000
1007.442308,-0.049571,0.001000,0.001000,0.001000,0.001000,0.001000
1007.461538,-0.049735,0.001000,0.001000,0.001000,0.001000,0.001000
1007.480769,-0.049860,0.001000,0.001000,0.001000,0.001000,0.001000
1007.500000,-0.049945,0.001000,0.001000,0.001000,0.001000,0.001000
1007.519231,-0.049991,0.001000,0.001000,0.001000,0.001000,0.001000
1007.538462,-0.049998,0.001000,0.001000,0.001000,0.001000,0.001000
1007.557692,-0.049965,0.001000,0.001000,0.001000,0.001000,0.001000
1007.576923,-0.049893,0.001000,0.001000,0.001000,0.001000,0.001000
1007.596154,-0.049782,0.001000,0.001000,0.001000,0.001000,0.001000
1007.615385,-0.049631,0.001000,0.001000,0.001000,0.001000,0.001000
1007.634615,-0.049441,0.001000,0.001000,0.001000,0.001000,0.001000
1007.653846,-0.049212,0.001000,0.001000,0.001000,0.001000,0.001000
1007.673077,-0.048945,0.001000,0.001000,0.001000,0.001000,0.001000
1007.692308,-0.048639,0.001000,0.001000,0.001000,0.001000,0.001000
1007.711538,-0.048294,0.001000,0.001000,0.001000,0.001000,0.001000
1007.730769,-0.047912,0.001000,0.001000,0.001000,0.001000,0.001000
1007.750000,-0.047491,0.001000,0.001000,0.001000,0.001000,0.001000
1007.769231,-0.047034,0.001000,0.001000,0.001000,0.001000,0.001000
1007.788462,-0.046539,0.001000,0.001000,0.001000,0.001000,0.001000
1007.807692,-0.046008,0.001000,0.001000,0.001000,0.001000,0.001000
1007.826923,-0.045440,0.001000,0.001000,0.001000,0.001000,0.001000
1007.846154,-0.044836,0.001000,0.001000,0.001000,0.001000,0.001000
1007.865385,-0.044198,0.001000,0.001000,0.001000,0.001000,0.001000
1007.884615,-0.043524,0.001000,0.001000,0.001000,0.001000,0.001000
1007.903846,-0.042816,0.001000,0.001000,0.001000,0.001000,0.001000
1007.923077,-0.042074,0.001000,0.001000,0.001000,0.001000,0.001000
1007.942308,-0.041299,0.001000,0.001000,0.001000,0.001000,0.001000
1007.961538,-0.040492,0.001000,0.001000,0.001000,0.001000,0.001000
1007.980769,-0.039653,0.001000,0.001000,0.001000,0.001000,0.001000
1008.000000,-0.038782,0.001000,0.001000,0.001000,0.001000,0.001000
1008.019231,-0.037881,0.001000,0.001000,0.001000,0.001000,0.001000
1008.038462,-0.036950,0.001000,0.001000,0.001000,0.001000,0.001000
1008.057692,-0.035990,0.001000,0.001000,0.001000,0.001000,0.001000
1008.076923,-0.035001,0.001000,0.001000,0.001000,0.001000,0.001000
1008.096154,-0.033985,0.001000,0.001000,0.001000,0.001000,0.001000
1008.115385,-0.032942,0.001000,0.001000,0.001000,0.001000,0.001000
1008.134615,-0.031874,0.001000,0.001000,0.001000,0.001000,0.001000
1008.153846,-0.030780,0.001000,0.001000,0.001000,0.001000,0.001000
1008.173077,-0.029662,0.001000,0.001000,0.001000,0.001000,0.001000
1008.192308,-0.028520,0.001000,0.001000,0.001000,0.001000,0.001000
1008.211538,-0.027356,0.001000,0.001000,0.001000,0.001000,0.001000
1008.230769,-0.026170,0.001000,0.001000,0.001000,0.001000,0.001000
1008.250000,-0.024964,0.001000,0.001000,0.001000,0.001000,0.001000
1008.269231,-0.023738,0.001000,0.001000,0.001000,0.001000,0.001000
1008.288462,-0.022494,0.001000,0.001000,0.001000,0.001000,0.001000
1008.307692,-0.021231,0.001000,0.001000,0.001000,0.001000,0.001000
1008.326923,-0.019952,0.001000,0.001000,0.001000,0.001000,0.001000
1008.346154,-0.018658,0.001000,0.001000,0.001000,0.001000,0.001000
1008.365385,-0.017348,0.001000,0.001000,0.001000,0.001000,0.001000
1008.384615,-0.016025,0.001000,0.001000,0.001000,0.001000,0.001000
1008.403846,-0.014689,0.001000,0.001000,0.001000,0.001000,0.001000
1008.423077,-0.013342,0.001000,0.001000,0.001000,0.001000,0.001000
1008.442308,-0.011984,0.001000,0.001000,0.001000,0.001000,0.001000
1008.461538,-0.010617,0.001000,0.001000,0.001000,0.001000,0.001000
1008.480769,-0.009241,0.001000,0.001000,0.001000,0.001000,0.001000
1008.500000,-0.007858,0.001000,0.001000,0.001000,0.001000,0.001000
1008.519231,-0.006469,0.001000,0.001000,0.001000,0.001000,0.001000
1008.538462,-0.005075,0.001000,0.001000,0.001000,0.001000,0.001000
1008.557692,-0.003676,0.001000,0.001000,0.001000,0.001000,0.001000
1008.576923,-0.002275,0.001000,0.001000,0.001000,0.001000,0.001000
1008.596154,-0.000872,0.001000,0.001000,0.001000,0.001000,0.001000
1008.615385,0.000531,0.001000,0.001000,0.001000,0.001000,0.001000
1008.634615,0.001935,0.001000,0.001000,0.001000,0.001000,0.001000
1008.653846,0.003336,0.001000,0.001000,0.001000,0.001000,0.001000
1008.673077,0.004735,0.001000,0.001000,0.001000,0.001000,0.001000
1008.692308,0.006131,0.001000,0.001000,0.001000,0.001000,0.001000
1008.711538,0.007521,0.001000,0.001000,0.001000,0.001000,0.001000
1008.730769,0.008906,0.001000,0.001000,0.001000,0.001000,0.001000
1008.750000,0.010283,0.001000,0.001000,0.001000,0.001000,0.001000
1008.769231,0.011653,0.001000,0.001000,0.001000,0.001000,0.001000
1008.788462,0.013013,0.001000,0.001000,0.001000,0.001000,0.001000
1008.807692,0.014363,0.001000,0.001000,0.001000,0.001000,0.001000
1008.826923,0.015702,0.001000,0.001000,0.001000,0.001000,0.001000
1008.846154,0.017028,0.001000,0.001000,0.001000,0.001000,0.001000
1008.865385,0.018341,0.001000,0.001000,0.001000,0.001000,0.001000
1008.884615,0.019639,0.001000,0.001000,0.001000,0.001000,0.001000
1008.903846,0.020922,0.001000,0.001000,0.001000,0.001000,0.001000
1008.923077,0.022189,0.001000,0.001000,0.001000,0.001000,0.001000
1008.942308,0.023438,0.001000,0.001000,0.001000,0.001000,0.001000
1008.961538,0.024668,0.001000,0.001000,0.001000,0.001000,0.001000
1008.980769,0.025879,0.001000,0.001000,0.001000,0.001000,0.001000
1009.000000,0.027070,0.001000,0.001000,0.001000,0.001000,0.001000
1009.019231,0.028239,0.001000,0.001000,0.001000,0.001000,0.001000
1009.038462,0.029386,0.001000,0.001000,0.001000,0.001000,0.001000
1009.057692,0.030510,0.001000,0.001000,0.001000,0.001000,0.001000
1009.076923,0.031610,0.001000,0.001000,0.001000,0.001000,0.001000
1009.096154,0.032685,0.001000,0.001000,0.001000,0.001000,0.001000
1009.115385,0.033734,0.001000,0.001000,0.001000,0.001000,0.001000
1009.134615,0.034757,0.001000,0.001000,0.001000,0.001000,0.001000
1009.153846,0.035752,0.001000,0.001000,0.001000,0.001000,0.001000
1009.173077,0.036719,0.001000,0.001000,0.001000,0.001000,0.001000
1009.192308,0.037657,0.001000,0.001000,0.001000,0.001000,0.001000
1009.211538,0.038566,0.001000,0.001000,0.001000,0.001000,0.001000
1009.230769,0.039444,0.001000,0.001000,0.001000,0.001000,0.001000
1009.250000,0.040291,0.001000,0.001000,0.001000,0.001000,0.001000
1009.269231,0.041106,0.001000,0.001000,0.001000,0.001000,0.001000
1009.288462,0.041889,0.001000,0.001000,0.001000,0.001000,0.001000
1009.307692,0.042639,0.001000,0.001000,0.001000,0.001000,0.001000
1009.326923,0.043355,0.001000,0.001000,0.001000,0.001000,0.001000
1009.346154,0.044037,0.001000,0.001000,0.001000,0.001000,0.001000
1009.365385,0.044684,0.001000,0.001000,0.001000,0.001000,0.001000
1009.384615,0.045297,0.001000,0.001000,0.001000,0.001000,0.001000
1009.403846,0.045873,0.001000,0.001000,0.001000,0.001000,0.001000
1009.423077,0.046413,0.001000,0.001000,0.001000,0.001000,0.001000
1009.442308,0.046917,0.001000,0.001000,0.001000,0.001000,0.001000
1009.461538,0.047384,0.001000,0.001000,0.001000,0.001000,0.001000
1009.480769,0.047813,0.001000,0.001000,0.001000,0.001000,0.001000
1009.500000,0.048205,0.001000,0.001000,0.001000,0.001000,0.001000
1009.519231,0.048558,0.001000,0.001000,0.001000,0.001000,0.001000
1009.538462,0.048874,0.001000,0.001000,0.001000,0.001000,0.001000
1009.557692,0.049151,0.001000,0.001000,0.001000,0.001000,0.001000
1009.576923,0.049389,0.001000,0.001000,0.001000,0.001000,0.001000
1009.596154,0.049588,0.001000,0.001000,0.001000,0.001000,0.001000
1009.615385,0.049749,0.001000,0.001000,0.001000,0.001000,0.001000
1009.634615,0.049869,0.001000,0.001000,0.001000,0.001000,0.001000
1009.653846,0.049951,0.001000,0.001000,0.001000,0.001000,0.001000
1009.673077,0.049994,0.001000,0.001000,0.001000,0.001000,0.001000
1009.692308,0.049996,0.001000,0.001000,0.001000,0.001000,0.001000
1009.711538,0.049960,0.001000,0.001000,0.001000,0.001000,0.001000
1009.730769,0.049884,0.001000,0.001000,0.001000,0.001000,0.001000
1009.750000,0.049769,0.001000,0.001000,0.001000,0.001000,0.001000
1009.769231,0.049615,0.001000,0.001000,0.001000,0.001000,0.001000
1009.788462,0.049421,0.001000,0.001000,0.001000,0.001000,0.001000
1009.807692,0.049189,0.001000,0.001000,0.001000,0.001000,0.001000
1009.826923,0.048917,0.001000,0.001000,0.001000,0.001000,0.001000
1009.846154,0.048608,0.001000,0.001000,0.001000,0.001000,0.001000
1009.865385,0.048260,0.001000,0.001000,0.001000,0.001000,0.001000
1009.884615,0.047874,0.001000,0.001000,0.001000,0.001000,0.001000
1009.903846,0.047450,0.001000,0.001000,0.001000,0.001000,0.001000
1009.923077,0.046989,0.001000,0.001000,0.001000,0.001000,0.001000
1009.942308,0.046490,0.001000,0.001000,0.001000,0.001000,0.001000
1009.961538,0.045955,0.001000,0.001000,0.001000,0.001000,0.001000
1009.980769,0.045384,0.001000,0.001000,0.001000,0.001000,0.001000
1010.000000,0.044777,0.001000,0.001000,0.001000,0.001000,0.001000
1010.019231,0.044135,0.001000,0.001000,0.001000,0.001000,0.001000
1010.038462,0.043458,0.001000,0.001000,0.001000,0.001000,0.001000
1010.057692,0.042747,0.001000,0.001000,0.001000,0.001000,0.001000
1010.076923,0.042002,0.001000,0.001000,0.001000,0.001000,0.001000
1010.096154,0.041224,0.001000,0.001000,0.001000,0.001000,0.001000
1010.115385,0.040414,0.001000,0.001000,0.001000,0.001000,0.001000
1010.134615,0.039572,0.001000,0.001000,0.001000,0.001000,0.001000
1010.153846,0.038698,0.001000,0.001000,0.001000,0.001000,0.001000
1010.173077,0.037794,0.001000,0.001000,0.001000,0.001000,0.001000
1010.192308,0.036860,0.001000,0.001000,0.001000,0.001000,0.001000
1010.211538,0.035897,0.001000,0.001000,0.001000,0.001000,0.001000
1010.230769,0.034906,0.001000,0.001000,0.001000,0.001000,0.001000
1010.250000,0.033888,0.001000,0.001000,0.001000,0.001000,0.001000
1010.269231,0.032842,0.001000,0.001000,0.001000,0.001000,0.001000
1010.288462,0.031771,0.001000,0.001000,0.001000,0.001000,0.001000
1010.307692,0.030675,0.001000,0.001000,0.001000,0.001000,0.001000
1010.326923,0.029555,0.001000,0.001000,0.001000,0.001000,0.001000
1010.346154,0.028411,0.001000,0.001000,0.001000,0.001000,0.001000
1010.365385,0.027245,0.001000,0.001000,0.001000,0.001000,0.001000
1010.384615,0.026057,0.001000,0.001000,0.001000,0.001000,0.001000
1010.403846,0.024849,0.001000,0.001000,0.001000,0.001000,0.001000
1010.423077,0.023621,0.001000,0.001000,0.001000,0.001000,0.001000
1010.442308,0.022375,0.001000,0.001000,0.001000,0.001000,0.001000
1010.461538,0.021111,0.001000,0.001000,0.001000,0.001000,0.001000
1010.480769,0.019831,0.001000,0.001000,0.001000,0.001000,0.001000
1010.500000,0.018534,0.001000,0.001000,0.001000,0.001000,0.001000
1010.519231,0.017223,0.001000,0.001000,0.001000,0.001000,0.001000
1010.538462,0.015899,0.001000,0.001000,0.001000,0.001000,0.001000
1010.557692,0.014562,0.001000,0.001000,0.001000,0.001000,0.001000
1010.576923,0.013214,0.001000,0.001000,0.001000,0.001000,0.001000
1010.596154,0.011855,0.001000,0.001000,0.001000,0.001000,0.001000
1010.615385,0.010487,0.001000,0.001000,0.001000,0.001000,0.001000
1010.634615,0.009110,0.001000,0.001000,0.001000,0.001000,0.001000
1010.653846,0.007727,0.001000,0.001000,0.001000,0.001000,0.001000
1010.673077,0.006337,0.001000,0.001000,0.001000,0.001000,0.001000
1010.692308,0.004942,0.001000,0.001000,0.001000,0.001000,0.001000
1010.711538,0.003544,0.001000,0.001000,0.001000,0.001000,0.001000
1010.730769,0.002143,0.001000,0.001000,0.001000,0.001000,0.001000
1010.750000,0.000739,0.001000,0.001000,0.001000,0.001000,0.001000
1010.769231,-0.000664,0.001000,0.001000,0.001000,0.001000,0.001000
1010.788462,-0.002067,0.001000,0.001000,0.001000,0.001000,0.001000
1010.807692,-0.003469,0.001000,0.001000,0.001000,0.001000,0.001000
1010.826923,-0.004868,0.001000,0.001000,0.001000,0.001000,0.001000
1010.846154,-0.006262,0.001000,0.001000,0.001000,0.001000,0.001000
1010.865385,-0.007652,0.001000,0.001000,0.001000,0.001000,0.001000
1010.884615,-0.009036,0.001000,0.001000,0.001000,0.001000,0.001000
1010.903846,-0.010413,0.001000,0.001000,0.001000,0.001000,0.001000
1010.923077,-0.011782,0.001000,0.001000,0.001000,0.001000,0.001000
1010.942308,-0.013141,0.001000,0.001000,0.001000,0.001000,0.001000
1010.961538,-0.014490,0.001000,0.001000,0.001000,0.001000,0.001000
1010.980769,-0.015828,0.001000,0.001000,0.001000,0.001000,0.001000
1011.000000,-0.017153,0.001000,0.001000,0.001000,0.001000,0.001000
1011.019231,-0.018464,0.001000,0.001000,0.001000,0.001000,0.001000
1011.038462,-0.019761,0.001000,0.001000,0.001000,0.001000,0.001000
1011.057692,-0.021043,0.001000,0.001000,0.001000,0.001000,0.001000
1011.076923,-0.022308,0.001000,0.001000,0.001000,0.001000,0.001000
1011.096154,-0.023555,0.001000,0.001000,0.001000,0.001000,0.001000
1011.115385,-0.024784,0.001000,0.001000,0.001000,0.001000,0.001000
1011.134615,-0.025993,0.001000,0.001000,0.001000,0.001000,0.001000
1011.153846,-0.027182,0.001000,0.001000,0.001000,0.001000,0.001000
1011.173077,-0.028349,0.001000,0.001000,0.001000,0.001000,0.001000
1011.192308,-0.029494,0.001000,0.001000,0.001000,0.001000,0.001000
1011.211538,-0.030615,0.001000,0.001000,0.001000,0.001000,0.001000
1011.230769,-0.031713,0.001000,0.001000,0.001000,0.001000,0.001000
1011.250000,-0.032786,0.001000,0.001000,0.001000,0.001000,0.001000
1011.269231,-0.033832,0.001000,0.001000,0.001000,0.001000,0.001000
1011.288462,-0.034852,0.001000,0.001000,0.001000,0.001000,0.001000
1011.307692,-0.035845,0.001000,0.001000,0.001000,0.001000,0.001000
1011.326923,-0.036809,0.001000,0.001000,0.001000,0.001000,0.001000
1011.346154,-0.037745,0.001000,0.001000,0.001000,0.001000,0.001000
1011.365385,-0.038650,0.001000,0.001000,0.001000,0.001000,0.001000
1011.384615,-0.039525,0.001000,0.001000,0.001000,0.001000,0.001000
1011.403846,-0.040369,0.001000,0.001000,0.001000,0.001000,0.001000
1011.423077,-0.041182,0.001000,0.001000,0.001000,0.001000,0.001000
1011.442308,-0.041961,0.001000,0.001000,0.001000,0.001000,0.001000
1011.461538,-0.042708,0.001000,0.001000,0.001000,0.001000,0.001000
1011.480769,-0.043421,0.001000,0.001000,0.001000,0.001000,0.001000
1011.500000,-0.044100,0.001000,0.001000,0.001000,0.001000,0.001000
1011.519231,-0.044744,0.001000,0.001000,0.001000,0.001000,0.001000
1011.538462,-0.045353,0.001000,0.001000,0.001000,0.001000,0.001000
1011.557692,-0.045926,0.001000,0.001000,0.001000,0.001000,0.001000
1011.576923,-0.046462,0.001000,0.001000,0.001000,0.001000,0.001000
1011.596154,-0.046963,0.001000,0.001000,0.001000,0.001000,0.001000
1011.615385,-0.047426,0.001000,0.001000,0.001000,0.001000,0.001000
1011.634615,-0.047852,0.001000,0.001000,0.001000,0.001000,0.001000
1011.653846,-0.048240,0.001000,0.001000,0.001000,0.001000,0.001000
1011.673077,-0.048590,0.001000,0.001000,0.001000,0.001000,0.001000
1011.692308,-0.048902,0.001000,0.001000,0.001000,0.001000,0.001000
1011.711538,-0.049175,0.001000,0.001000,0.001000,0.001000,0.001000
1011.730769,-0.049410,0.001000,0.001000,0.001000,0.001000,0.001000
1011.750000,-0.049605,0.001000,0.001000,0.001000,0.001000,0.001000
1011.769231,-0.049762,0.001000,0.001000,0.001000,0.001000,0.001000
1011.788462,-0.049879,0.001000,0.001000,0.001000,0.001000,0.001000
1011.807692,-0.049957,0.001000,0.001000,0.001000,0.001000,0.001000
1011.826923,-0.049995,0.001000,0.001000,0.001000,0.001000,0.001000
1011.846154,-0.049995,0.001000,0.001000,0.001000,0.001000,0.001000
1011.865385,-0.049954,0.001000,0.001000,0.001000,0.001000,0.001000
1011.884615,-0.049875,0.001000,0.001000,0.001000,0.001000,0.001000
1011.903846,-0.049756,0.001000,0.001000,0.001000,0.001000,0.001000
1011.923077,-0.049598,0.001000,0.001000,0.001000,0.001000,0.001000
1011.942308,-0.049401,0.001000,0.001000,0.001000,0.001000,0.001000
1011.961538,-0.049165,0.001000,0.001000,0.001000,0.001000,0.001000
1011.980769,-0.048890,0.001000,0.001000,0.001000,0.001000,0.001000
1012.000000,-0.048576,0.001000,0.001000,0.001000,0.001000,0.001000
1012.019231,-0.048225,0.001000,0.001000,0.001000,0.001000,0.001000
1012.038462,-0.047835,0.001000,0.001000,0.001000,0.001000,0.001000
1012.057692,-0.047408,0.001000,0.001000,0.001000,0.001000,0.001000
1012.076923,-0.046943,0.001000,0.001000,0.001000,0.001000,0.001000
1012.096154,-0.046441,0.001000,0.001000,0.001000,0.001000,0.001000
1012.115385,-0.045903,0.001000,0.001000,0.001000,0.001000,0.001000
1012.134615,-0.045328,0.001000,0.001000,0.001000,0.001000,0.001000
1012.153846,-0.044718,0.001000,0.001000,0.001000,0.001000,0.001000
1012.173077,-0.044073,0.001000,0.001000,0.001000,0.001000,0.001000
1012.192308,-0.043393,0.001000,0.001000,0.001000,0.001000,0.001000
1012.211538,-0.042678,0.001000,0.001000,0.001000,0.001000,0.001000
1012.230769,-0.041930,0.001000,0.001000,0.001000,0.001000,0.001000
1012.250000,-0.041149,0.001000,0.001000,0.001000,0.001000,0.001000
1012.269231,-0.040336,0.001000,0.001000,0.001000,0.001000,0.001000
1012.288462,-0.039490,0.001000,0.001000,0.001000,0.001000,0.001000
1012.307692,-0.038614,0.001000,0.001000,0.001000,0.001000,0.001000
1012.326923,-0.037707,0.001000,0.001000,0.001000,0.001000,0.001000
1012.346154,-0.036770,0.001000,0.001000,0.001000,0.001000,0.001000
1012.365385,-0.035805,0.001000,0.001000,0.001000,0.001000,0.001000
1012.384615,-0.034811,0.001000,0.001000,0.001000,0.001000,0.001000
1012.403846,-0.033790,0.001000,0.001000,0.001000,0.001000,0.001000
1012.423077,-0.032742,0.001000,0.001000,0.001000,0.001000,0.001000
1012.442308,-0.031669,0.001000,0.001000,0.001000,0.001000,0.001000
1012.461538,-0.030570,0.001000,0.001000,0.001000,0.001000,0.001000
1012.480769,-0.029447,0.001000,0.001000,0.001000,0.001000,0.001000
1012.500000,-0.028301,0.001000,0.001000,0.001000,0.001000,0.001000
1012.519231,-0.027133,0.001000,0.001000,0.001000,0.001000,0.001000
1012.538462,-0.025944,0.001000,0.001000,0.001000,0.001000,0.001000
1012.557692,-0.024734,0.001000,0.001000,0.001000,0.001000,0.001000
1012.576923,-0.023504,0.001000,0.001000,0.001000,0.001000,0.001000
1012.596154,-0.022256,0.001000,0.001000,0.001000,0.001000,0.001000
1012.615385,-0.020991,0.001000,0.001000,0.001000,0.001000,0.001000
1012.634615,-0.019708,0.001000,0.001000,0.001000,0.001000,0.001000
1012.653846,-0.018411,0.001000,0.001000,0.001000,0.001000,0.001000
1012.673077,-0.017099,0.001000,0.001000,0.001000,0.001000,0.001000
1012.692308,-0.015773,0.001000,0.001000,0.001000,0.001000,0.001000
1012.711538,-0.014435,0.001000,0.001000,0.001000,0.001000,0.001000
1012.730769,-0.013086,0.001000,0.001000,0.001000,0.001000,0.001000
1012.750000,-0.011726,0.001000,0.001000,0.001000,0.001000,0.001000
1012.769231,-0.010357,0.001000,0.001000,0.001000,0.001000,0.001000
1012.788462,-0.008980,0.001000,0.001000,0.001000,0.001000,0.001000
1012.807692,-0.007596,0.001000,0.001000,0.001000,0.001000,0.001000
1012.826923,-0.006205,0.001000,0.001000,0.001000,0.001000,0.001000
1012.846154,-0.004810,0.001000,0.001000,0.001000,0.001000,0.001000
1012.865385,-0.003411,0.001000,0.001000,0.001000,0.001000,0.001000
1012.884615,-0.002010,0.001000,0.001000,0.001000,0.001000,0.001000
1012.903846,-0.000607,0.001000,0.001000,0.001000,0.001000,0.001000
1012.923077,0.000797,0.001000,0.001000,0.001000,0.001000,0.001000
1012.942308,0.002200,0.001000,0.001000,0.001000,0.001000,0.001000
1012.961538,0.003601,0.001000,0.001000,0.001000,0.001000,0.001000
1012.980769,0.005000,0.001000,0.001000,0.001000,0.001000,0.001000
1013.000000,0.006394,0.001000,0.001000,0.001000,0.001000,0.001000
1013.019231,0.007784,0.001000,0.001000,0.001000,0.001000,0.001000
1013.038462,0.009167,0.001000,0.001000,0.001000,0.001000,0.001000
1013.057692,0.010543,0.001000,0.001000,0.001000,0.001000,0.001000
1013.076923,0.011911,0.001000,0.001000,0.001000,0.001000,0.001000
1013.096154,0.013269,0.001000,0.001000,0.001000,0.001000,0.001000
1013.115385,0.014617,0.001000,0.001000,0.001000,0.001000,0.001000
1013.134615,0.015954,0.001000,0.001000,0.001000,0.001000,0.001000
1013.153846,0.017277,0.001000,0.001000,0.001000,0.001000,0.001000
1013.173077,0.018588,0.001000,0.001000,0.001000,0.001000,0.001000
1013.192308,0.019883,0.001000,0.001000,0.001000,0.001000,0.001000
1013.211538,0.021163,0.001000,0.001000,0.001000,0.001000,0.001000
1013.230769,0.022426,0.001000,0.001000,0.001000,0.001000,0.001000
1013.250000,0.023672,0.001000,0.001000,0.001000,0.001000,0.001000
1013.269231,0.024899,0.001000,0.001000,0.001000,0.001000,0.001000
1013.288462,0.026106,0.001000,0.001000,0.001000,0.001000,0.001000
1013.307692,0.027293,0.001000,0.001000,0.001000,0.001000,0.001000
1013.326923,0.028458,0.001000,0.001000,0.001000,0.001000,0.001000
1013.346154,0.029601,0.001000,0.001000,0.001000,0.001000,0.001000
1013.365385,0.030720,0.001000,0.001000,0.001000,0.001000,0.001000
1013.384615,0.031816,0.001000,0.001000,0.001000,0.001000,0.001000
1013.403846,0.032886,0.001000,0.001000,0.001000,0.001000,0.001000
1013.423077,0.033930,0.001000,0.001000,0.001000,0.001000,0.001000
1013.442308,0.034948,0.001000,0.001000,0.001000,0.001000,0.001000
1013.461538,0.035938,0.001000,0.001000,0.001000,0.001000,0.001000
1013.480769,0.036899,0.001000,0.001000,0.001000,0.001000,0.001000
1013.500000,0.037832,0.001000,0.001000,0.001000,0.001000,0.001000
1013.519231,0.038734,0.001000,0.001000,0.001000,0.001000,0.001000
1013.538462,0.039607,0.001000,0.001000,0.001000,0.001000,0.001000
1013.557692,0.040448,0.001000,0.001000,0.001000,0.001000,0.001000
1013.576923,0.041257,0.001000,0.001000,0.001000,0.001000,0.001000
1013.596154,0.042033,0.001000,0.001000,0.001000,0.001000,0.001000
1013.615385,0.042777,0.001000,0.001000,0.001000,0.001000,0.001000
1013.634615,0.043487,0.001000,0.001000,0.001000,0.001000,0.001000
1013.653846,0.044162,0.001000,0.001000,0.001000,0.001000,0.001000
1013.673077,0.044803,0.001000,0.001000,0.001000,0.001000,0.001000
1013.692308,0.045408,0.001000,0.001000,0.001000,0.001000,0.001000
1013.711538,0.045978,0.001000,0.001000,0.001000,0.001000,0.001000
1013.730769,0.046511,0.001000,0.001000,0.001000,0.001000,0.001000
1013.750000,0.047008,0.001000,0.001000,0.001000,0.001000,0.001000
1013.769231,0.047468,0.001000,0.001000,0.001000,0.001000,0.001000
1013.788462,0.047890,0.001000,0.001000,0.001000,0.001000,0.001000
1013.807692,0.048275,0.001000,0.001000,0.001000,0.001000,0.001000
1013.826923,0.048621,0.001000,0.001000,0.001000,0.001000,0.001000
1013.846154,0.048929,0.001000,0.001000,0.001000,0.001000,0.001000
1013.865385,0.049199,0.001000,0.001000,0.001000,0.001000,0.001000
1013.884615,0.049430,0.001000,0.001000,0.001000,0.001000,0.001000
1013.903846,0.049622,0.001000,0.001000,0.001000,0.001000,0.001000
1013.923077,0.049774,0.001000,0.001000,0.001000,0.001000,0.001000
1013.942308,0.049888,0.001000,0.001000,0.001000,0.001000,0.001000
1013.961538,0.049962,0.001000,0.001000,0.001000,0.001000,0.001000
1013.980769,0.049997,0.001000,0.001000,0.001000,0.001000,0.001000
1014.000000,0.049993,0.001000,0.001000,0.001000,0.001000,0.001000
1014.019231,0.049949,0.001000,0.001000,0.001000,0.001000,0.001000
1014.038462,0.049865,0.001000,0.001000,0.001000,0.001000,0.001000
1014.057692,0.049743,0.001000,0.001000,0.001000,0.001000,0.001000
1014.076923,0.049581,0.001000,0.001000,0.001000,0.001000,0.001000
1014.096154,0.049380,0.001000,0.001000,0.001000,0.001000,0.001000
1014.115385,0.049140,0.001000,0.001000,0.001000,0.001000,0.001000
1014.134615,0.048862,0.001000,0.001000,0.001000,0.001000,0.001000
1014.153846,0.048545,0.001000,0.001000,0.001000,0.001000,0.001000
1014.173077,0.048189,0.001000,0.001000,0.001000,0.001000,0.001000
1014.192308,0.047796,0.001000,0.001000,0.001000,0.001000,0.001000
1014.211538,0.047365,0.001000,0.001000,0.001000,0.001000,0.001000
1014.230769,0.046897,0.001000,0.001000,0.001000,0.001000,0.001000
1014.250000,0.046392,0.001000,0.001000,0.001000,0.001000,0.001000
1014.269231,0.045850,0.001000,0.001000,0.001000,0.001000,0.001000
1014.288462,0.045272,0.001000,0.001000,0.001000,0.001000,0.001000
1014.307692,0.044659,0.001000,0.001000,0.001000,0.001000,0.001000
1014.326923,0.044010,0.001000,0.001000,0.001000,0.001000,0.001000
1014.346154,0.043326,0.001000,0.001000,0.001000,0.001000,0.001000
1014.365385,0.042609,0.001000,0.001000,0.001000,0.001000,0.001000
1014.384615,0.041858,0.001000,0.001000,0.001000,0.001000,0.001000
1014.403846,0.041073,0.001000,0.001000,0.001000,0.001000,0.001000
1014.423077,0.040257,0.001000,0.001000,0.001000,0.001000,0.001000
1014.442308,0.039409,0.001000,0.001000,0.001000,0.001000,0.001000
1014.461538,0.038529,0.001000,0.001000,0.001000,0.001000,0.001000
1014.480769,0.037620,0.001000,0.001000,0.001000,0.001000,0.001000
1014.500000,0.036680,0.001000,0.001000,0.001000,0.001000,0.001000
1014.519231,0.035712,0.001000,0.001000,0.001000,0.001000,0.001000
1014.538462,0.034716,0.001000,0.001000,0.001000,0.001000,0.001000
1014.557692,0.033692,0.001000,0.001000,0.001000,0.001000,0.001000
1014.576923,0.032642,0.001000,0.001000,0.001000,0.001000,0.001000
1014.596154,0.031566,0.001000,0.001000,0.001000,0.001000,0.001000
1014.615385,0.030465,0.001000,0.001000,0.001000,0.001000,0.001000
1014.634615,0.029340,0.001000,0.001000,0.001000,0.001000,0.001000
1014.653846,0.028192,0.001000,0.001000,0.001000,0.001000,0.001000
1014.673077,0.027022,0.001000,0.001000,0.001000,0.001000,0.001000
1014.692308,0.025830,0.001000,0.001000,0.001000,0.001000,0.001000
1014.711538,0.024618,0.001000,0.001000,0.001000,0.001000,0.001000
1014.730769,0.023387,0.001000,0.001000,0.001000,0.001000,0.001000
1014.750000,0.022137,0.001000,0.001000,0.001000,0.001000,0.001000
1014.769231,0.020870,0.001000,0.001000,0.001000,0.001000,0.001000
1014.788462,0.019586,0.001000,0.001000,0.001000,0.001000,0.001000
1014.807692,0.018287,0.001000,0.001000,0.001000,0.001000,0.001000
1014.826923,0.016974,0.001000,0.001000,0.001000,0.001000,0.001000
1014.846154,0.015647,0.001000,0.001000,0.001000,0.001000,0.001000
1014.865385,0.014308,0.001000,0.001000,0.001000,0.001000,0.001000
1014.884615,0.012957,0.001000,0.001000,0.001000,0.001000,0.001000
1014.903846,0.011597,0.001000,0.001000,0.001000,0.001000,0.001000
1014.923077,0.010227,0.001000,0.001000,0.001000,0.001000,0.001000
1014.942308,0.008849,0.001000,0.001000,0.001000,0.001000,0.001000
1014.961538,0.007464,0.001000,0.001000,0.001000,0.001000,0.001000
1014.980769,0.006074,0.001000,0.001000,0.001000,0.001000,0.001000
1015.000000,0.004678,0.001000,0.001000,0.001000,0.001000,0.001000
1015.019231,0.003279,0.001000,0.001000,0.001000,0.001000,0.001000
1015.038462,0.001877,0.001000,0.001000,0.001000,0.001000,0.001000
1015.057692,0.000474,0.001000,0.001000,0.001000,0.001000,0.001000
1015.076923,-0.000930,0.001000,0.001000,0.001000,0.001000,0.001000
1015.096154,-0.002333,0.001000,0.001000,0.001000,0.001000,0.001000
1015.115385,-0.003734,0.001000,0.001000,0.001000,0.001000,0.001000
1015.134615,-0.005132,0.001000,0.001000,0.001000,0.001000,0.001000
1015.153846,-0.006526,0.001000,0.001000,0.001000,0.001000,0.001000
1015.173077,-0.007915,0.001000,0.001000,0.001000,0.001000,0.001000
1015.192308,-0.009298,0.001000,0.001000,0.001000,0.001000,0.001000
1015.211538,-0.010673,0.001000,0.001000,0.001000,0.001000,0.001000
1015.230769,-0.012040,0.001000,0.001000,0.001000,0.001000,0.001000
1015.250000,-0.013397,0.001000,0.001000,0.001000,0.001000,0.001000
1015.269231,-0.014744,0.001000,0.001000,0.001000,0.001000,0.001000
1015.288462,-0.016079,0.001000,0.001000,0.001000,0.001000,0.001000
1015.307692,-0.017402,0.001000,0.001000,0.001000,0.001000,0.001000
1015.326923,-0.018711,0.001000,0.001000,0.001000,0.001000,0.001000
1015.346154,-0.020005,0.001000,0.001000,0.001000,0.001000,0.001000
1015.365385,-0.021283,0.001000,0.001000,0.001000,0.001000,0.001000
1015.384615,-0.022545,0.001000,0.001000,0.001000,0.001000,0.001000
1015.403846,-0.023789,0.001000,0.001000,0.001000,0.001000,0.001000
1015.423077,-0.025014,0.001000,0.001000,0.001000,0.001000,0.001000
1015.442308,-0.026219,0.001000,0.001000,0.001000,0.001000,0.001000
1015.461538,-0.027404,0.001000,0.001000,0.001000,0.001000,0.001000
1015.480769,-0.028567,0.001000,0.001000,0.001000,0.001000,0.001000
1015.500000,-0.029708,0.001000,0.001000,0.001000,0.001000,0.001000
1015.519231,-0.030825,0.001000,0.001000,0.001000,0.001000,0.001000
1015.538462,-0.031918,0.001000,0.001000,0.001000,0.001000,0.001000
1015.557692,-0.032986,0.001000,0.001000,0.001000,0.001000,0.001000
1015.576923,-0.034027,0.001000,0.001000,0.001000,0.001000,0.001000
1015.596154,-0.035042,0.001000,0.001000,0.001000,0.001000,0.001000
1015.615385,-0.036030,0.001000,0.001000,0.001000,0.001000,0.001000
1015.634615,-0.036989,0.001000,0.001000,0.001000,0.001000,0.001000
1015.653846,-0.037918,0.001000,0.001000,0.001000,0.001000,0.001000
1015.673077,-0.038818,0.001000,0.001000,0.001000,0.001000,0.001000
1015.692308,-0.039688,0.001000,0.001000,0.001000,0.001000,0.001000
1015.711538,-0.040526,0.001000,0.001000,0.001000,0.001000,0.001000
1015.730769,-0.041332,0.001000,0.001000,0.001000,0.001000,0.001000
1015.750000,-0.042105,0.001000,0.001000,0.001000,0.001000,0.001000
1015.769231,-0.042846,0.001000,0.001000,0.001000,0.001000,0.001000
1015.788462,-0.043552,0.001000,0.001000,0.001000,0.001000,0.001000
1015.807692,-0.044224,0.001000,0.001000,0.001000,0.001000,0.001000
1015.826923,-0.044862,0.001000,0.001000,0.001000,0.001000,0.001000
1015.846154,-0.045464,0.001000,0.001000,0.001000,0.001000,0.001000
1015.865385,-0.046030,0.001000,0.001000,0.001000,0.001000,0.001000
1015.884615,-0.046560,0.001000,0.001000,0.001000,0.001000,0.001000
1015.903846,-0.047053,0.001000,0.001000,0.001000,0.001000,0.001000
1015.923077,-0.047509,0.001000,0.001000,0.001000,0.001000,0.001000
1015.942308,-0.047928,0.001000,0.001000,0.001000,0.001000,0.001000
1015.961538,-0.048309,0.001000,0.001000,0.001000,0.001000,0.001000
1015.980769,-0.048652,0.001000,0.001000,0.001000,0.001000,0.001000
1016.000000,-0.048956,0.001000,0.001000,0.001000,0.001000,0.001000
1016.019231,-0.049222,0.001000,0.001000,0.001000,0.001000,0.001000
1016.038462,-0.049450,0.001000,0.001000,0.001000,0.001000,0.001000
1016.057692,-0.049638,0.001000,0.001000,0.001000,0.001000,0.001000
1016.076923,-0.049787,0.001000,0.001000,0.001000,0.001000,0.001000
1016.096154,-0.049897,0.001000,0.001000,0.001000,0.001000,0.001000
1016.115385,-0.049967,0.001000,0.001000,0.001000,0.001000,0.001000
1016.134615,-0.049998,0.001000,0.001000,0.001000,0.001000,0.001000
1016.153846,-0.049990,0.001000,0.001000,0.001000,0.001000,0.001000
1016.173077,-0.049942,0.001000,0.001000,0.001000,0.001000,0.001000
1016.192308,-0.049855,0.001000,0.001000,0.001000,0.001000,0.001000
1016.211538,-0.049729,0.001000,0.001000,0.001000,0.001000,0.001000
1016.230769,-0.049564,0.001000,0.001000,0.001000,0.001000,0.001000
1016.250000,-0.049359,0.001000,0.001000,0.001000,0.001000,0.001000
1016.269231,-0.049116,0.001000,0.001000,0.001000,0.001000,0.001000
1016.288462,-0.048833,0.001000,0.001000,0.001000,0.001000,0.001000
1016.307692,-0.048513,0.001000,0.001000,0.001000,0.001000,0.001000
1016.326923,-0.048154,0.001000,0.001000,0.001000,0.001000,0.001000
1016.346154,-0.047757,0.001000,0.001000,0.001000,0.001000,0.001000
1016.365385,-0.047323,0.001000,0.001000,0.001000,0.001000,0.001000
1016.384615,-0.046851,0.001000,0.001000,0.001000,0.001000,0.001000
1016.403846,-0.046342,0.001000,0.001000,0.001000,0.001000,0.001000
1016.423077,-0.045797,0.001000,0.001000,0.001000,0.001000,0.001000
1016.442308,-0.045216,0.001000,0.001000,0.001000,0.001000,0.001000
1016.461538,-0.044599,0.001000,0.001000,0.001000,0.001000,0.001000
1016.480769,-0.043947,0.001000,0.001000,0.001000,0.001000,0.001000
1016.500000,-0.043260,0.001000,0.001000,0.001000,0.001000,0.001000
1016.519231,-0.042539,0.001000,0.001000,0.001000,0.001000,0.001000
1016.538462,-0.041785,0.001000,0.001000,0.001000,0.001000,0.001000
1016.557692,-0.040998,0.001000,0.001000,0.001000,0.001000,0.001000
1016.576923,-0.040178,0.001000,0.001000,0.001000,0.001000,0.001000
1016.596154,-0.039327,0.001000,0.001000,0.001000,0.001000,0.001000
1016.615385,-0.038444,0.001000,0.001000,0.001000,0.001000,0.001000
1016.634615,-0.037532,0.001000,0.001000,0.001000,0.001000,0.001000
1016.653846,-0.036590,0.001000,0.001000,0.001000,0.001000,0.001000
1016.673077,-0.035619,0.001000,0.001000,0.001000,0.001000,0.001000
1016.692308,-0.034620,0.001000,0.001000,0.001000,0.001000,0.001000
1016.711538,-0.033594,0.001000,0.001000,0.001000,0.001000,0.001000
1016.730769,-0.032541,0.001000,0.001000,0.001000,0.001000,0.001000
1016.750000,-0.031462,0.001000,0.001000,0.001000,0.001000,0.001000
1016.769231,-0.030359,0.001000,0.001000,0.001000,0.001000,0.001000
1016.788462,-0.029232,0.001000,0.001000,0.001000,0.001000,0.001000
1016.807692,-0.028082,0.001000,0.001000,0.001000,0.001000,0.001000
1016.826923,-0.026910,0.001000,0.001000,0.001000,0.001000,0.001000
1016.846154,-0.025716,0.001000,0.001000,0.001000,0.001000,0.001000
1016.865385,-0.024502,0.001000,0.001000,0.001000,0.001000,0.001000
1016.884615,-0.023269,0.001000,0.001000,0.001000,0.001000,0.001000
1016.903846,-0.022018,0.001000,0.001000,0.001000,0.001000,0.001000
1016.923077,-0.020749,0.001000,0.001000,0.001000,0.001000,0.001000
1016.942308,-0.019464,0.001000,0.001000,0.001000,0.001000,0.001000
1016.961538,-0.018164,0.001000,0.001000,0.001000,0.001000,0.001000
1016.980769,-0.016849,0.001000,0.001000,0.001000,0.001000,0.001000
1017.000000,-0.015521,0.001000,0.001000,0.001000,0.001000,0.001000
1017.019231,-0.014180,0.001000,0.001000,0.001000,0.001000,0.001000
1017.038462,-0.012829,0.001000,0.001000,0.001000,0.001000,0.001000
1017.057692,-0.011467,0.001000,0.001000,0.001000,0.001000,0.001000
1017.076923,-0.010097,0.001000,0.001000,0.001000,0.001000,0.001000
1017.096154,-0.008718,0.001000,0.001000,0.001000,0.001000,0.001000
1017.115385,-0.007333,0.001000,0.001000,0.001000,0.001000,0.001000
1017.134615,-0.005942,0.001000,0.001000,0.001000,0.001000,0.001000
1017.153846,-0.004546,0.001000,0.001000,0.001000,0.001000,0.001000
1017.173077,-0.003146,0.001000,0.001000,0.001000,0.001000,0.001000
1017.192308,-0.001744,0.001000,0.001000,0.001000,0.001000,0.001000
1017.211538,-0.000341,0.001000,0.001000,0.001000,0.001000,0.001000
1017.230769,0.001063,0.001000,0.001000,0.001000,0.001000,0.001000
1017.250000,0.002465,0.001000,0.001000,0.001000,0.001000,0.001000
1017.269231,0.003866,0.001000,0.001000,0.001000,0.001000,0.001000
1017.288462,0.005264,0.001000,0.001000,0.001000,0.001000,0.001000
1017.307692,0.006658,0.001000,0.001000,0.001000,0.001000,0.001000
1017.326923,0.008046,0.001000,0.001000,0.001000,0.001000,0.001000
1017.346154,0.009428,0.001000,0.001000,0.001000,0.001000,0.001000
1017.365385,0.010803,0.001000,0.001000,0.001000,0.001000,0.001000
1017.384615,0.012169,0.001000,0.001000,0.001000,0.001000,0.001000
1017.403846,0.013525,0.001000,0.001000,0.001000,0.001000,0.001000
1017.423077,0.014871,0.001000,0.001000,0.001000,0.001000,0.001000
1017.442308,0.016205,0.001000,0.001000,0.001000,0.001000,0.001000
1017.461538,0.017527,0.001000,0.001000,0.001000,0.001000,0.001000
1017.480769,0.018834,0.001000,0.001000,0.001000,0.001000,0.001000
1017.500000,0.020127,0.001000,0.001000,0.001000,0.001000,0.001000
1017.519231,0.021404,0.001000,0.001000,0.001000,0.001000,0.001000
1017.538462,0.022664,0.001000,0.001000,0.001000,0.001000,0.001000
1017.557692,0.023906,0.001000,0.001000,0.001000,0.001000,0.001000
1017.576923,0.025129,0.001000,0.001000,0.001000,0.001000,0.001000
1017.596154,0.026332,0.001000,0.001000,0.001000,0.001000,0.001000
1017.615385,0.027515,0.001000,0.001000,0.001000,0.001000,0.001000
1017.634615,0.028676,0.001000,0.001000,0.001000,0.001000,0.001000
1017.653846,0.029815,0.001000,0.001000,0.001000,0.001000,0.001000
1017.673077,0.030930,0.001000,0.001000,0.001000,0.001000,0.001000
1017.692308,0.032020,0.001000,0.001000,0.001000,0.001000,0.001000
1017.711538,0.033085,0.001000,0.001000,0.001000,0.001000,0.001000
1017.730769,0.034125,0.001000,0.001000,0.001000,0.001000,0.001000
1017.750000,0.035137,0.001000,0.001000,0.001000,0.001000,0.001000
1017.769231,0.036122,0.001000,0.001000,0.001000,0.001000,0.001000
1017.788462,0.037078,0.001000,0.001000,0.001000,0.001000,0.001000
1017.807692,0.038005,0.001000,0.001000,0.001000,0.001000,0.001000
1017.826923,0.038902,0.001000,0.001000,0.001000,0.001000,0.001000
1017.846154,0.039768,0.001000,0.001000,0.001000,0.001000,0.001000
1017.865385,0.040603,0.001000,0.001000,0.001000,0.001000,0.001000
1017.884615,0.041406,0.001000,0.001000,0.001000,0.001000,0.001000
1017.903846,0.042177,0.001000,0.001000,0.001000,0.001000,0.001000
1017.923077,0.042914,0.001000,0.001000,0.001000,0.001000,0.001000
1017.942308,0.043617,0.001000,0.001000,0.001000,0.001000,0.001000
1017.961538,0.044286,0.001000,0.001000,0.001000,0.001000,0.001000
1017.980769,0.044920,0.001000,0.001000,0.001000,0.001000,0.001000
1018.000000,0.045519,0.001000,0.001000,0.001000,0.001000,0.001000
1018.019231,0.046082,0.001000,0.001000,0.001000,0.001000,0.001000
1018.038462,0.046608,0.001000,0.001000,0.001000,0.001000,0.001000
1018.057692,0.047098,0.001000,0.001000,0.001000,0.001000,0.001000
1018.076923,0.047551,0.001000,0.001000,0.001000,0.001000,0.001000
1018.096154,0.047966,0.001000,0.001000,0.001000,0.001000,0.001000
1018.115385,0.048343,0.001000,0.001000,0.001000,0.001000,0.001000
1018.134615,0.048682,0.001000,0.001000,0.001000,0.001000,0.001000
1018.153846,0.048983,0.001000,0.001000,0.001000,0.001000,0.001000
1018.173077,0.049246,0.001000,0.001000,0.001000,0.001000,0.001000
1018.192308,0.049469,0.001000,0.001000,0.001000,0.001000,0.001000
1018.211538,0.049654,0.001000,0.001000,0.001000,0.001000,0.001000
1018.230769,0.049799,0.001000,0.001000,0.001000,0.001000,0.001000
1018.250000,0.049905,0.001000,0.001000,0.001000,0.001000,0.001000
1018.269231,0.049972,0.001000,0.001000,0.001000,0.001000,0.001000
1018.288462,0.049999,0.001000,0.001000,0.001000,0.001000,0.001000
1018.307692,0.049987,0.001000,0.001000,0.001000,0.001000,0.001000
1018.326923,0.049936,0.001000,0.001000,0.001000,0.001000,0.001000
1018.346154,0.049845,0.001000,0.001000,0.001000,0.001000,0.001000
1018.365385,0.049715,0.001000,0.001000,0.001000,0.001000,0.001000
1018.384615,0.049546,0.001000,0.001000,0.001000,0.001000,0.001000
1018.403846,0.049338,0.001000,0.001000,0.001000,0.001000,0.001000
1018.423077,0.049091,0.001000,0.001000,0.001000,0.001000,0.001000
1018.442308,0.048805,0.001000,0.001000,0.001000,0.001000,0.001000
1018.461538,0.048480,0.001000,0.001000,0.001000,0.001000,0.001000
1018.480769,0.048118,0.001000,0.001000,0.001000,0.001000,0.001000
1018.500000,0.047718,0.001000,0.001000,0.001000,0.001000,0.001000
1018.519231,0.047280,0.001000,0.001000,0.001000,0.001000,0.001000
1018.538462,0.046804,0.001000,0.001000,0.001000,0.001000,0.001000
1018.557692,0.046292,0.001000,0.001000,0.001000,0.001000,0.001000
1018.576923,0.045743,0.001000,0.001000,0.001000,0.001000,0.001000
1018.596154,0.045159,0.001000,0.001000,0.001000,0.001000,0.001000
1018.615385,0.044538,0.001000,0.001000,0.001000,0.001000,0.001000
1018.634615,0.043883,0.001000,0.001000,0.001000,0.001000,0.001000
1018.653846,0.043193,0.001000,0.001000,0.001000,0.001000,0.001000
1018.673077,0.042469,0.001000,0.001000,0.001000,0.001000,0.001000
1018.692308,0.041712,0.001000,0.001000,0.001000,0.001000,0.001000
1018.711538,0.040921,0.001000,0.001000,0.001000,0.001000,0.001000
1018.730769,0.040099,0.001000,0.001000,0.001000,0.001000,0.001000
1018.750000,0.039245,0.001000,0.001000,0.001000,0.001000,0.001000
1018.769231,0.038359,0.001000,0.001000,0.001000,0.001000,0.001000
1018.788462,0.037444,0.001000,0.001000,0.001000,0.001000,0.001000
1018.807692,0.036499,0.001000,0.001000,0.001000,0.001000,0.001000
1018.826923,0.035526,0.001000,0.001000,0.001000,0.001000,0.001000
1018.846154,0.034524,0.001000,0.001000,0.001000,0.001000,0.001000
1018.865385,0.033495,0.001000,0.001000,0.001000,0.001000,0.001000
1018.884615,0.032440,0.001000,0.001000,0.001000,0.001000,0.001000
1018.903846,0.031359,0.001000,0.001000,0.001000,0.001000,0.001000
1018.923077,0.030254,0.001000,0.001000,0.001000,0.001000,0.001000
1018.942308,0.029124,0.001000,0.001000,0.001000,0.001000,0.001000
1018.961538,0.027972,0.001000,0.001000,0.001000,0.001000,0.001000
1018.980769,0.026798,0.001000,0.001000,0.001000,0.001000,0.001000
1019.000000,0.025602,0.001000,0.001000,0.001000,0.001000,0.001000
1019.019231,0.024387,0.001000,0.001000,0.001000,0.001000,0.001000
1019.038462,0.023152,0.001000,0.001000,0.001000,0.001000,0.001000
1019.057692,0.021899,0.001000,0.001000,0.001000,0.001000,0.001000
1019.076923,0.020628,0.001000,0.001000,0.001000,0.001000,0.001000
1019.096154,0.019342,0.001000,0.001000,0.001000,0.001000,0.001000
1019.115385,0.018040,0.001000,0.001000,0.001000,0.001000,0.001000
1019.134615,0.016724,0.001000,0.001000,0.001000,0.001000,0.001000
1019.153846,0.015394,0.001000,0.001000,0.001000,0.001000,0.001000
1019.173077,0.014053,0.001000,0.001000,0.001000,0.001000,0.001000
1019.192308,0.012701,0.001000,0.001000,0.001000,0.001000,0.001000
1019.211538,0.011338,0.001000,0.001000,0.001000,0.001000,0.001000
1019.230769,0.009967,0.001000,0.001000,0.001000,0.001000,0.001000
1019.250000,0.008587,0.001000,0.001000,0.001000,0.001000,0.001000
1019.269231,0.007201,0.001000,0.001000,0.001000,0.001000,0.001000
1019.288462,0.005810,0.001000,0.001000,0.001000,0.001000,0.001000
1019.307692,0.004413,0.001000,0.001000,0.001000,0.001000,0.001000
1019.326923,0.003014,0.001000,0.001000,0.001000,0.001000,0.001000
1019.346154,0.001612,0.001000,0.001000,0.001000,0.001000,0.001000
1019.365385,0.000208,0.001000,0.001000,0.001000,0.001000,0.001000
1019.384615,-0.001195,0.001000,0.001000,0.001000,0.001000,0.001000
1019.403846,-0.002598,0.001000,0.001000,0.001000,0.001000,0.001000
1019.423077,-0.003999,0.001000,0.001000,0.001000,0.001000,0.001000
1019.442308,-0.005396,0.001000,0.001000,0.001000,0.001000,0.001000
1019.461538,-0.006789,0.001000,0.001000,0.001000,0.001000,0.001000
1019.480769,-0.008177,0.001000,0.001000,0.001000,0.001000,0.001000
1019.500000,-0.009558,0.001000,0.001000,0.001000,0.001000,0.001000
1019.519231,-0.010932,0.001000,0.001000,0.001000,0.001000,0.001000
1019.538462,-0.012298,0.001000,0.001000,0.001000,0.001000,0.001000
1019.557692,-0.013653,0.001000,0.001000,0.001000,0.001000,0.001000
1019.576923,-0.014998,0.001000,0.001000,0.001000,0.001000,0.001000
1019.596154,-0.016331,0.001000,0.001000,0.001000,0.001000,0.001000
1019.615385,-0.017651,0.001000,0.001000,0.001000,0.001000,0.001000
1019.634615,-0.018957,0.001000,0.001000,0.001000,0.001000,0.001000
1019.653846,-0.020248,0.001000,0.001000,0.001000,0.001000,0.001000
1019.673077,-0.021524,0.001000,0.001000,0.001000,0.001000,0.001000
1019.692308,-0.022782,0.001000,0.001000,0.001000,0.001000,0.001000
1019.711538,-0.024022,0.001000,0.001000,0.001000,0.001000,0.001000
1019.730769,-0.025244,0.001000,0.001000,0.001000,0.001000,0.001000
1019.750000,-0.026445,0.001000,0.001000,0.001000,0.001000,0.001000
1019.769231,-0.027626,0.001000,0.001000,0.001000,0.001000,0.001000
1019.788462,-0.028785,0.001000,0.001000,0.001000,0.001000,0.001000
1019.807692,-0.029921,0.001000,0.001000,0.001000,0.001000,0.001000
1019.826923,-0.031034,0.001000,0.001000,0.001000,0.001000,0.001000
1019.846154,-0.032122,0.001000,0.001000,0.001000,0.001000,0.001000
1019.865385,-0.033185,0.001000,0.001000,0.001000,0.001000,0.001000
1019.884615,-0.034222,0.001000,0.001000,0.001000,0.001000,0.001000
1019.903846,-0.035231,0.001000,0.001000,0.001000,0.001000,0.001000
1019.923077,-0.036213,0.001000,0.001000,0.001000,0.001000,0.001000
1019.942308,-0.037167,0.001000,0.001000,0.001000,0.001000,0.001000
1019.961538,-0.038091,0.001000,0.001000,0.001000,0.001000,0.001000
1019.980769,-0.038985,0.001000,0.001000,0.001000,0.001000,0.001000
1020.000000,-0.039849,0.001000,0.001000,0.001000,0.001000,0.001000
1020.019231,-0.040681,0.001000,0.001000,0.001000,0.001000,0.001000
1020.038462,-0.041481,0.001000,0.001000,0.001000,0.001000,0.001000
1020.057692,-0.042248,0.001000,0.001000,0.001000,0.001000,0.001000
1020.076923,-0.042982,0.001000,0.001000,0.001000,0.001000,0.001000
1020.096154,-0.043682,0.001000,0.001000,0.001000,0.001000,0.001000
1020.115385,-0.044348,0.001000,0.001000,0.001000,0.001000,0.001000
1020.134615,-0.044978,0.001000,0.001000,0.001000,0.001000,0.001000
1020.153846,-0.045574,0.001000,0.001000,0.001000,0.001000,0.001000
1020.173077,-0.046133,0.001000,0.001000,0.001000,0.001000,0.001000
1020.192308,-0.046656,0.001000,0.001000,0.001000,0.001000,0.001000
1020.211538,-0.047142,0.001000,0.001000,0.001000,0.001000,0.001000
1020.230769,-0.047592,0.001000,0.001000,0.001000,0.001000,0.001000
1020.250000,-0.048003,0.001000,0.001000,0.001000,0.001000,0.001000
1020.269231,-0.048377,0.001000,0.001000,0.001000,0.001000,0.001000
1020.288462,-0.048713,0.001000,0.001000,0.001000,0.001000,0.001000
1020.307692,-0.049010,0.001000,0.001000,0.001000,0.001000,0.001000
1020.326923,-0.049268,0.001000,0.001000,0.001000,0.001000,0.001000
1020.346154,-0.049488,0.001000,0.001000,0.001000,0.001000,0.001000
1020.365385,-0.049669,0.001000,0.001000,0.001000,0.001000,0.001000
1020.384615,-0.049811,0.001000,0.001000,0.001000,0.001000,0.001000
1020.403846,-0.049913,0.001000,0.001000,0.001000,0.001000,0.001000
1020.423077,-0.049976,0.001000,0.001000,0.001000,0.001000,0.001000
1020.442308,-0.050000,0.001000,0.001000,0.001000,0.001000,0.001000
1020.461538,-0.049984,0.001000,0.001000,0.001000,0.001000,0.001000
1020.480769,-0.049929,0.001000,0.001000,0.001000,0.001000,0.001000
1020.500000,-0.049834,0.001000,0.001000,0.001000,0.001000,0.001000
1020.519231,-0.049701,0.001000,0.001000,0.001000,0.001000,0.001000
1020.538462,-0.049528,0.001000,0.001000,0.001000,0.001000,0.001000
1020.557692,-0.049316,0.001000,0.001000,0.001000,0.001000,0.001000
1020.576923,-0.049065,0.001000,0.001000,0.001000,0.001000,0.001000
1020.596154,-0.048776,0.001000,0.001000,0.001000,0.001000,0.001000
1020.615385,-0.048448,0.001000,0.001000,0.001000,0.001000,0.001000
1020.634615,-0.048082,0.001000,0.001000,0.001000,0.001000,0.001000
1020.653846,-0.047678,0.001000,0.001000,0.001000,0.001000,0.001000
1020.673077,-0.047236,0.001000,0.001000,0.001000,0.001000,0.001000
1020.692308,-0.046757,0.001000,0.001000,0.001000,0.001000,0.001000
1020.711538,-0.046242,0.001000,0.001000,0.001000,0.001000,0.001000
1020.730769,-0.045690,0.001000,0.001000,0.001000,0.001000,0.001000
1020.750000,-0.045102,0.001000,0.001000,0.001000,0.001000,0.001000
1020.769231,-0.044478,0.001000,0.001000,0.001000,0.001000,0.001000
1020.788462,-0.043819,0.001000,0.001000,0.001000,0.001000,0.001000
1020.807692,-0.043126,0.001000,0.001000,0.001000,0.001000,0.001000
1020.826923,-0.042399,0.001000,0.001000,0.001000,0.001000,0.001000
1020.846154,-0.041638,0.001000,0.001000,0.001000,0.001000,0.001000
1020.865385,-0.040845,0.001000,0.001000,0.001000,0.001000,0.001000
1020.884615,-0.040019,0.001000,0.001000,0.001000,0.001000,0.001000
1020.903846,-0.039162,0.001000,0.001000,0.001000,0.001000,0.001000
1020.923077,-0.038274,0.001000,0.001000,0.001000,0.001000,0.001000
1020.942308,-0.037356,0.001000,0.001000,0.001000,0.001000,0.001000
1020.961538,-0.036408,0.001000,0.001000,0.001000,0.001000,0.001000
1020.980769,-0.035432,0.001000,0.001000,0.001000,0.001000,0.001000
1021.000000,-0.034428,0.001000,0.001000,0.001000,0.001000,0.001000
1021.019231,-0.033396,0.001000,0.001000,0.001000,0.001000,0.001000
1021.038462,-0.032339,0.001000,0.001000,0.001000,0.001000,0.001000
1021.057692,-0.031256,0.001000,0.001000,0.001000,0.001000,0.001000
1021.076923,-0.030148,0.001000,0.001000,0.001000,0.001000,0.001000
1021.096154,-0.029016,0.001000,0.001000,0.001000,0.001000,0.001000
1021.115385,-0.027862,0.001000,0.001000,0.001000,0.001000,0.001000
1021.134615,-0.026685,0.001000,0.001000,0.001000,0.001000,0.001000
1021.153846,-0.025488,0.001000,0.001000,0.001000,0.001000,0.001000
1021.173077,-0.024270,0.001000,0.001000,0.001000,0.001000,0.001000
1021.192308,-0.023034,0.001000,0.001000,0.001000,0.001000,0.001000
1021.211538,-0.021779,0.001000,0.001000,0.001000,0.001000,0.001000
1021.230769,-0.020507,0.001000,0.001000,0.001000,0.001000,0.001000
1021.250000,-0.019219,0.001000,0.001000,0.001000,0.001000,0.001000
1021.269231,-0.017916,0.001000,0.001000,0.001000,0.001000,0.001000
1021.288462,-0.016598,0.001000,0.001000,0.001000,0.001000,0.001000
1021.307692,-0.015268,0.001000,0.001000,0.001000,0.001000,0.001000
1021.326923,-0.013926,0.001000,0.001000,0.001000,0.001000,0.001000
1021.346154,-0.012572,0.001000,0.001000,0.001000,0.001000,0.001000
1021.365385,-0.011209,0.001000,0.001000,0.001000,0.001000,0.001000
1021.384615,-0.009837,0.001000,0.001000,0.001000,0.001000,0.001000
1021.403846,-0.008457,0.001000,0.001000,0.001000,0.001000,0.001000
1021.423077,-0.007070,0.001000,0.001000,0.001000,0.001000,0.001000
1021.442308,-0.005678,0.001000,0.001000,0.001000,0.001000,0.001000
1021.461538,-0.004281,0.001000,0.001000,0.001000,0.001000,0.001000
1021.480769,-0.002881,0.001000,0.001000,0.001000,0.001000,0.001000
1021.500000,-0.001479,0.001000,0.001000,0.001000,0.001000,0.001000
1021.519231,-0.000075,0.001000,0.001000,0.001000,0.001000,0.001000
1021.538462,0.001328,0.001000,0.001000,0.001000,0.001000,0.001000
1021.557692,0.002731,0.001000,0.001000,0.001000,0.001000,0.001000
1021.576923,0.004131,0.001000,0.001000,0.001000,0.001000,0.001000
1021.596154,0.005528,0.001000,0.001000,0.001000,0.001000,0.001000
1021.615385,0.006921,0.001000,0.001000,0.001000,0.001000,0.001000
1021.634615,0.008308,0.001000,0.001000,0.001000,0.001000,0.001000
1021.653846,0.009689,0.001000,0.001000,0.001000,0.001000,0.001000
1021.673077,0.011062,0.001000,0.001000,0.001000,0.001000,0.001000
1021.692308,0.012426,0.001000,0.001000,0.001000,0.001000,0.001000
1021.711538,0.013781,0.001000,0.001000,0.001000,0.001000,0.001000
1021.730769,0.015125,0.001000,0.001000,0.001000,0.001000,0.001000
1021.750000,0.016456,0.001000,0.001000,0.001000,0.001000,0.001000
1021.769231,0.017775,0.001000,0.001000,0.001000,0.001000,0.001000
1021.788462,0.019080,0.001000,0.001000,0.001000,0.001000,0.001000
1021.807692,0.020370,0.001000,0.001000,0.001000,0.001000,0.001000
1021.826923,0.021643,0.001000,0.001000,0.001000,0.001000,0.001000
1021.846154,0.022900,0.001000,0.001000,0.001000,0.001000,0.001000
1021.865385,0.024139,0.001000,0.001000,0.001000,0.001000,0.001000
1021.884615,0.025358,0.001000,0.001000,0.001000,0.001000,0.001000
1021.903846,0.026558,0.001000,0.001000,0.001000,0.001000,0.001000
1021.923077,0.027737,0.001000,0.001000,0.001000,0.001000,0.001000
1021.942308,0.028893,0.001000,0.001000,0.001000,0.001000,0.001000
1021.961538,0.030027,0.001000,0.001000,0.001000,0.001000,0.001000
1021.980769,0.031138,0.001000,0.001000,0.001000,0.001000,0.001000
1022.000000,0.032224,0.001000,0.001000,0.001000,0.001000,0.001000
1022.019231,0.033284,0.001000,0.001000,0.001000,0.001000,0.001000
1022.038462,0.034318,0.001000,0.001000,0.001000,0.001000,0.001000
1022.057692,0.035326,0.001000,0.001000,0.001000,0.001000,0.001000
1022.076923,0.036305,0.001000,0.001000,0.001000,0.001000,0.001000
1022.096154,0.037256,0.001000,0.001000,0.001000,0.001000,0.001000
1022.115385,0.038177,0.001000,0.001000,0.001000,0.001000,0.001000
1022.134615,0.039068,0.001000,0.001000,0.001000,0.001000,0.001000
1022.153846,0.039929,0.001000,0.001000,0.001000,0.001000,0.001000
1022.173077,0.040758,0.001000,0.001000,0.001000,0.001000,0.001000
1022.192308,0.041555,0.001000,0.001000,0.001000,0.001000,0.001000
1022.211538,0.042319,0.001000,0.001000,0.001000,0.001000,0.001000
1022.230769,0.043050,0.001000,0.001000,0.001000,0.001000,0.001000
1022.250000,0.043747,0.001000,0.001000,0.001000,0.001000,0.001000
1022.269231,0.044409,0.001000,0.001000,0.001000,0.001000,0.001000
1022.288462,0.045036,0.001000,0.001000,0.001000,0.001000,0.001000
1022.307692,0.045628,0.001000,0.001000,0.001000,0.001000,0.001000
1022.326923,0.046184,0.001000,0.001000,0.001000,0.001000,0.001000
1022.346154,0.046704,0.001000,0.001000,0.001000,0.001000,0.001000
1022.365385,0.047187,0.001000,0.001000,0.001000,0.001000,0.001000
1022.384615,0.047632,0.001000,0.001000,0.001000,0.001000,0.001000
1022.403846,0.048040,0.001000,0.001000,0.001000,0.001000,0.001000
1022.423077,0.048410,0.001000,0.001000,0.001000,0.001000,0.001000
1022.442308,0.048742,0.001000,0.001000,0.001000,0.001000,0.001000
1022.461538,0.049036,0.001000,0.001000,0.001000,0.001000,0.001000
1022.480769,0.049291,0.001000,0.001000,0.001000,0.001000,0.001000
1022.500000,0.049507,0.001000,0.001000,0.001000,0.001000,0.001000
1022.519231,0.049684,0.001000,0.001000,0.001000,0.001000,0.001000
1022.538462,0.049822,0.001000,0.001000,0.001000,0.001000,0.001000
1022.557692,0.049921,0.001000,0.001000,0.001000,0.001000,0.001000
1022.576923,0.049980,0.001000,0.001000,0.001000,0.001000,0.001000
1022.596154,0.050000,0.001000,0.001000,0.001000,0.001000,0.001000
1022.615385,0.049981,0.001000,0.001000,0.001000,0.001000,0.001000
1022.634615,0.049922,0.001000,0.001000,0.001000,0.001000,0.001000
1022.653846,0.049824,0.001000,0.001000,0.001000,0.001000,0.001000
1022.673077,0.049686,0.001000,0.001000,0.001000,0.001000,0.001000
1022.692308,0.049509,0.001000,0.001000,0.001000,0.001000,0.001000
1022.711538,0.049294,0.001000,0.001000,0.001000,0.001000,0.001000
1022.730769,0.049039,0.001000,0.001000,0.001000,0.001000,0.001000
1022.750000,0.048746,0.001000,0.001000,0.001000,0.001000,0.001000
1022.769231,0.048415,0.001000,0.001000,0.001000,0.001000,0.001000
1022.788462,0.048045,0.001000,0.001000,0.001000,0.001000,0.001000
1022.807692,0.047637,0.001000,0.001000,0.001000,0.001000,0.001000
1022.826923,0.047192,0.001000,0.001000,0.001000,0.001000,0.001000
1022.846154,0.046710,0.001000,0.001000,0.001000,0.001000,0.001000
1022.865385,0.046191,0.001000,0.001000,0.001000,0.001000,0.001000
1022.884615,0.045636,0.001000,0.001000,0.001000,0.001000,0.001000
1022.903846,0.045044,0.001000,0.001000,0.001000,0.001000,0.001000
1022.923077,0.044417,0.001000,0.001000,0.001000,0.001000,0.001000
1022.942308,0.043755,0.001000,0.001000,0.001000,0.001000,0.001000
1022.961538,0.043059,0.001000,0.001000,0.001000,0.001000,0.001000
1022.980769,0.042328,0.001000,0.001000,0.001000,0.001000,0.001000
1023.000000,0.041565,0.001000,0.001000,0.001000,0.001000,0.001000
1023.019231,0.040768,0.001000,0.001000,0.001000,0.001000,0.001000
1023.038462,0.039939,0.001000,0.001000,0.001000,0.001000,0.001000
1023.057692,0.039079,0.001000,0.001000,0.001000,0.001000,0.001000
1023.076923,0.038188,0.001000,0.001000,0.001000,0.001000,0.001000
1023.096154,0.037267,0.001000,0.001000,0.001000,0.001000,0.001000
1023.115385,0.036317,0.001000,0.001000,0.001000,0.001000,0.001000
1023.134615,0.035338,0.001000,0.001000,0.001000,0.001000,0.001000
1023.153846,0.034331,0.001000,0.001000,0.001000,0.001000,0.001000
1023.173077,0.033297,0.001000,0.001000,0.001000,0.001000,0.001000
1023.192308,0.032237,0.001000,0.001000,0.001000,0.001000,0.001000
1023.211538,0.031152,0.001000,0.001000,0.001000,0.001000,0.001000
1023.230769,0.030042,0.001000,0.001000,0.001000,0.001000,0.001000
1023.250000,0.028908,0.001000,0.001000,0.001000,0.001000,0.001000
1023.269231,0.027751,0.001000,0.001000,0.001000,0.001000,0.001000
1023.288462,0.026573,0.001000,0.001000,0.001000,0.001000,0.001000
1023.307692,0.025374,0.001000,0.001000,0.001000,0.001000,0.001000
1023.326923,0.024154,0.001000,0.001000,0.001000,0.001000,0.001000
1023.346154,0.022916,0.001000,0.001000,0.001000,0.001000,0.001000
1023.365385,0.021659,0.001000,0.001000,0.001000,0.001000,0.001000
1023.384615,0.020386,0.001000,0.001000,0.001000,0.001000,0.001000
1023.403846,0.019096,0.001000,0.001000,0.001000,0.001000,0.001000
1023.423077,0.017792,0.001000,0.001000,0.001000,0.001000,0.001000
1023.442308,0.016473,0.001000,0.001000,0.001000,0.001000,0.001000
1023.461538,0.015141,0.001000,0.001000,0.001000,0.001000,0.001000
1023.480769,0.013798,0.001000,0.001000,0.001000,0.001000,0.001000
1023.500000,0.012443,0.001000,0.001000,0.001000,0.001000,0.001000
1023.519231,0.011079,0.001000,0.001000,0.001000,0.001000,0.001000
1023.538462,0.009706,0.001000,0.001000,0.001000,0.001000,0.001000
1023.557692,0.008326,0.001000,0.001000,0.001000,0.001000,0.001000
1023.576923,0.006938,0.001000,0.001000,0.001000,0.001000,0.001000
1023.596154,0.005546,0.001000,0.001000,0.001000,0.001000,0.001000
1023.615385,0.004149,0.001000,0.001000,0.001000,0.001000,0.001000
1023.634615,0.002748,0.001000,0.001000,0.001000,0.001000,0.001000
1023.653846,0.001346,0.001000,0.001000,0.001000,0.001000,0.001000
1023.673077,-0.000058,0.001000,0.001000,0.001000,0.001000,0.001000
1023.692308,-0.001461,0.001000,0.001000,0.001000,0.001000,0.001000
1023.711538,-0.002863,0.001000,0.001000,0.001000,0.001000,0.001000
1023.730769,-0.004263,0.001000,0.001000,0.001000,0.001000,0.001000
1023.750000,-0.005660,0.001000,0.001000,0.001000,0.001000,0.001000
1023.769231,-0.007052,0.001000,0.001000,0.001000,0.001000,0.001000
1023.788462,-0.008439,0.001000,0.001000,0.001000,0.001000,0.001000
1023.807692,-0.009819,0.001000,0.001000,0.001000,0.001000,0.001000
1023.826923,-0.011191,0.001000,0.001000,0.001000,0.001000,0.001000
1023.846154,-0.012555,0.001000,0.001000,0.001000,0.001000,0.001000
1023.865385,-0.013908,0.001000,0.001000,0.001000,0.001000,0.001000
1023.884615,-0.015251,0.001000,0.001000,0.001000,0.001000,0.001000
1023.903846,-0.016582,0.001000,0.001000,0.001000,0.001000,0.001000
1023.923077,-0.017899,0.001000,0.001000,0.001000,0.001000,0.001000
1023.942308,-0.019203,0.001000,0.001000,0.001000,0.001000,0.001000
1023.961538,-0.020491,0.001000,0.001000,0.001000,0.001000,0.001000
1023.980769,-0.021763,0.001000,0.001000,0.001000,0.001000,0.001000
1024.000000,-0.023018,0.001000,0.001000,0.001000,0.001000,0.001000
1024.019231,-0.024255,0.001000,0.001000,0.001000,0.001000,0.001000
1024.038462,-0.025473,0.001000,0.001000,0.001000,0.001000,0.001000
1024.057692,-0.026670,0.001000,0.001000,0.001000,0.001000,0.001000
1024.076923,-0.027847,0.001000,0.001000,0.001000,0.001000,0.001000
1024.096154,-0.029002,0.001000,0.001000,0.001000,0.001000,0.001000
1024.115385,-0.030134,0.001000,0.001000,0.001000,0.001000,0.001000
1024.134615,-0.031242,0.001000,0.001000,0.001000,0.001000,0.001000
1024.153846,-0.032325,0.001000,0.001000,0.001000,0.001000,0.001000
1024.173077,-0.033383,0.001000,0.001000,0.001000,0.001000,0.001000
1024.192308,-0.034415,0.001000,0.001000,0.001000,0.001000,0.001000
1024.211538,-0.035419,0.001000,0.001000,0.001000,0.001000,0.001000
1024.230769,-0.036396,0.001000,0.001000,0.001000,0.001000,0.001000
1024.250000,-0.037344,0.001000,0.001000,0.001000,0.001000,0.001000
1024.269231,-0.038263,0.001000,0.001000,0.001000,0.001000,0.001000
1024.288462,-0.039151,0.001000,0.001000,0.001000,0.001000,0.001000
1024.307692,-0.040009,0.001000,0.001000,0.001000,0.001000,0.001000
1024.326923,-0.040835,0.001000,0.001000,0.001000,0.001000,0.001000
1024.346154,-0.041628,0.001000,0.001000,0.001000,0.001000,0.001000
1024.365385,-0.042389,0.001000,0.001000,0.001000,0.001000,0.001000
1024.384615,-0.043117,0.001000,0.001000,0.001000,0.001000,0.001000
1024.403846,-0.043811,0.001000,0.001000,0.001000,0.001000,0.001000
1024.423077,-0.044470,0.001000,0.001000,0.001000,0.001000,0.001000
1024.442308,-0.045094,0.001000,0.001000,0.001000,0.001000,0.001000
1024.461538,-0.045682,0.001000,0.001000,0.001000,0.001000,0.001000
1024.480769,-0.046235,0.001000,0.001000,0.001000,0.001000,0.001000
1024.500000,-0.046751,0.001000,0.001000,0.001000,0.001000,0.001000
1024.519231,-0.047230,0.001000,0.001000,0.001000,0.001000,0.001000
1024.538462,-0.047672,0.001000,0.001000,0.001000,0.001000,0.001000
1024.557692,-0.048077,0.001000,0.001000,0.001000,0.001000,0.001000
1024.576923,-0.048443,0.001000,0.001000,0.001000,0.001000,0.001000
1024.596154,-0.048772,0.001000,0.001000,0.001000,0.001000,0.001000
1024.615385,-0.049062,0.001000,0.001000,0.001000,0.001000,0.001000
1024.634615,-0.049313,0.001000,0.001000,0.001000,0.001000,0.001000
1024.653846,-0.049525,0.001000,0.001000,0.001000,0.001000,0.001000
1024.673077,-0.049699,0.001000,0.001000,0.001000,0.001000,0.001000
1024.692308,-0.049833,0.001000,0.001000,0.001000,0.001000,0.001000
1024.711538,-0.049928,0.001000,0.001000,0.001000,0.001000,0.001000
1024.730769,-0.049984,0.001000,0.001000,0.001000,0.001000,0.001000
1024.750000,-0.050000,0.001000,0.001000,0.001000,0.001000,0.001000
1024.769231,-0.049977,0.001000,0.001000,0.001000,0.001000,0.001000
1024.788462,-0.049914,0.001000,0.001000,0.001000,0.001000,0.001000
1024.807692,-0.049812,0.001000,0.001000,0.001000,0.001000,0.001000
1024.826923,-0.049671,0.001000,0.001000,0.001000,0.001000,0.001000
1024.846154,-0.049491,0.001000,0.001000,0.001000,0.001000,0.001000
1024.865385,-0.049271,0.001000,0.001000,0.001000,0.001000,0.001000
1024.884615,-0.049013,0.001000,0.001000,0.001000,0.001000,0.001000
1024.903846,-0.048717,0.001000,0.001000,0.001000,0.001000,0.001000
1024.923077,-0.048381,0.001000,0.001000,0.001000,0.001000,0.001000
1024.942308,-0.048008,0.001000,0.001000,0.001000,0.001000,0.001000
1024.961538,-0.047597,0.001000,0.001000,0.001000,0.001000,0.001000
1024.980769,-0.047148,0.001000,0.001000,0.001000,0.001000,0.001000
1025.000000,-0.046663,0.001000,0.001000,0.001000,0.001000,0.001000
1025.019231,-0.046140,0.001000,0.001000,0.001000,0.001000,0.001000
1025.038462,-0.045581,0.001000,0.001000,0.001000,0.001000,0.001000
1025.057692,-0.044986,0.001000,0.001000,0.001000,0.001000,0.001000
1025.076923,-0.044356,0.001000,0.001000,0.001000,0.001000,0.001000
1025.096154,-0.043691,0.001000,0.001000,0.001000,0.001000,0.001000
1025.115385,-0.042991,0.001000,0.001000,0.001000,0.001000,0.001000
1025.134615,-0.042257,0.001000,0.001000,0.001000,0.001000,0.001000
1025.153846,-0.041491,0.001000,0.001000,0.001000,0.001000,0.001000
1025.173077,-0.040691,0.001000,0.001000,0.001000,0.001000,0.001000
1025.192308,-0.039859,0.001000,0.001000,0.001000,0.001000,0.001000
1025.211538,-0.038996,0.001000,0.001000,0.001000,0.001000,0.001000
1025.230769,-0.038103,0.001000,0.001000,0.001000,0.001000,0.001000
1025.250000,-0.037179,0.001000,0.001000,0.001000,0.001000,0.001000
1025.269231,-0.036226,0.001000,0.001000,0.001000,0.001000,0.001000
1025.288462,-0.035244,0.001000,0.001000,0.001000,0.001000,0.001000
1025.307692,-0.034235,0.001000,0.001000,0.001000,0.001000,0.001000
1025.326923,-0.033198,0.001000,0.001000,0.001000,0.001000,0.001000
1025.346154,-0.032136,0.001000,0.001000,0.001000,0.001000,0.001000
1025.365385,-0.031048,0.001000,0.001000,0.001000,0.001000,0.001000
1025.384615,-0.029935,0.001000,0.001000,0.001000,0.001000,0.001000
1025.403846,-0.028799,0.001000,0.001000,0.001000,0.001000,0.001000
1025.423077,-0.027641,0.001000,0.001000,0.001000,0.001000,0.001000
1025.442308,-0.026460,0.001000,0.001000,0.001000,0.001000,0.001000
1025.461538,-0.025259,0.001000,0.001000,0.001000,0.001000,0.001000
1025.480769,-0.024038,0.001000,0.001000,0.001000,0.001000,0.001000
1025.500000,-0.022798,0.001000,0.001000,0.001000,0.001000,0.001000
1025.519231,-0.021540,0.001000,0.001000,0.001000,0.001000,0.001000
1025.538462,-0.020265,0.001000,0.001000,0.001000,0.001000,0.001000
1025.557692,-0.018974,0.001000,0.001000,0.001000,0.001000,0.001000
1025.576923,-0.017668,0.001000,0.001000,0.001000,0.001000,0.001000
1025.596154,-0.016348,0.001000,0.001000,0.001000,0.001000,0.001000
1025.615385,-0.015015,0.001000,0.001000,0.001000,0.001000,0.001000
1025.634615,-0.013670,0.001000,0.001000,0.001000,0.001000,0.001000
1025.653846,-0.012315,0.001000,0.001000,0.001000,0.001000,0.001000
1025.673077,-0.010950,0.001000,0.001000,0.001000,0.001000,0.001000
1025.692308,-0.009576,0.001000,0.001000,0.001000,0.001000,0.001000
1025.711538,-0.008195,0.001000,0.001000,0.001000,0.001000,0.001000
1025.730769,-0.006807,0.001000,0.001000,0.001000,0.001000,0.001000
1025.750000,-0.005414,0.001000,0.001000,0.001000,0.001000,0.001000
1025.769231,-0.004016,0.001000,0.001000,0.001000,0.001000,0.001000
1025.788462,-0.002616,0.001000,0.001000,0.001000,0.001000,0.001000
1025.807692,-0.001213,0.001000,0.001000,0.001000,0.001000,0.001000
1025.826923,0.000190,0.001000,0.001000,0.001000,0.001000,0.001000
1025.846154,0.001594,0.001000,0.001000,0.001000,0.001000,0.001000
1025.865385,0.002996,0.001000,0.001000,0.001000,0.001000,0.001000
1025.884615,0.004396,0.001000,0.001000,0.001000,0.001000,0.001000
1025.903846,0.005792,0.001000,0.001000,0.001000,0.001000,0.001000
1025.923077,0.007184,0.001000,0.001000,0.001000,0.001000,0.001000
1025.942308,0.008570,0.001000,0.001000,0.001000,0.001000,0.001000
1025.961538,0.009949,0.001000,0.001000,0.001000,0.001000,0.001000
1025.980769,0.011321,0.001000,0.001000,0.001000,0.001000,0.001000
1026.000000,0.012683,0.001000,0.001000,0.001000,0.001000,0.001000
1026.019231,0.014036,0.001000,0.001000,0.001000,0.001000,0.001000
1026.038462,0.015378,0.001000,0.001000,0.001000,0.001000,0.001000
1026.057692,0.016707,0.001000,0.001000,0.001000,0.001000,0.001000
1026.076923,0.018023,0.001000,0.001000,0.001000,0.001000,0.001000
1026.096154,0.019325,0.001000,0.001000,0.001000,0.001000,0.001000
1026.115385,0.020612,0.001000,0.001000,0.001000,0.001000,0.001000
1026.134615,0.021883,0.001000,0.001000,0.001000,0.001000,0.001000
1026.153846,0.023136,0.001000,0.001000,0.001000,0.001000,0.001000
1026.173077,0.024371,0.001000,0.001000,0.001000,0.001000,0.001000
1026.192308,0.025587,0.001000,0.001000,0.001000,0.001000,0.001000
1026.211538,0.026783,0.001000,0.001000,0.001000,0.001000,0.001000
1026.230769,0.027957,0.001000,0.001000,0.001000,0.001000,0.001000
1026.250000,0.029110,0.001000,0.001000,0.001000,0.001000,0.001000
1026.269231,0.030239,0.001000,0.001000,0.001000,0.001000,0.001000
1026.288462,0.031345,0.001000,0.001000,0.001000,0.001000,0.001000
1026.307692,0.032426,0.001000,0.001000,0.001000,0.001000,0.001000
1026.326923,0.033482,0.001000,0.001000,0.001000,0.001000,0.001000
1026.346154,0.034511,0.001000,0.001000,0.001000,0.001000,0.001000
1026.365385,0.035513,0.001000,0.001000,0.001000,0.001000,0.001000
1026.384615,0.036487,0.001000,0.001000,0.001000,0.001000,0.001000
1026.403846,0.037432,0.001000,0.001000,0.001000,0.001000,0.001000
1026.423077,0.038348,0.001000,0.001000,0.001000,0.001000,0.001000
1026.442308,0.039234,0.001000,0.001000,0.001000,0.001000,0.001000
1026.461538,0.040088,0.001000,0.001000,0.001000,0.001000,0.001000
1026.480769,0.040911,0.001000,0.001000,0.001000,0.001000,0.001000
1026.500000,0.041702,0.001000,0.001000,0.001000,0.001000,0.001000
1026.519231,0.042460,0.001000,0.001000,0.001000,0.001000,0.001000
1026.538462,0.043184,0.001000,0.001000,0.001000,0.001000,0.001000
1026.557692,0.043875,0.001000,0.001000,0.001000,0.001000,0.001000
1026.576923,0.044530,0.001000,0.001000,0.001000,0.001000,0.001000
1026.596154,0.045151,0.001000,0.001000,0.001000,0.001000,0.001000
1026.615385,0.045736,0.001000,0.001000,0.001000,0.001000,0.001000
1026.634615,0.046285,0.001000,0.001000,0.001000,0.001000,0.001000
1026.653846,0.046798,0.001000,0.001000,0.001000,0.001000,0.001000
1026.673077,0.047274,0.001000,0.001000,0.001000,0.001000,0.001000
1026.692308,0.047712,0.001000,0.001000,0.001000,0.001000,0.001000
1026.711538,0.048113,0.001000,0.001000,0.001000,0.001000,0.001000
1026.730769,0.048476,0.001000,0.001000,0.001000,0.001000,0.001000
1026.750000,0.048801,0.001000,0.001000,0.001000,0.001000,0.001000
1026.769231,0.049087,0.001000,0.001000,0.001000,0.001000,0.001000
1026.788462,0.049335,0.001000,0.001000,0.001000,0.001000,0.001000
1026.807692,0.049543,0.001000,0.001000,0.001000,0.001000,0.001000
1026.826923,0.049713,0.001000,0.001000,0.001000,0.001000,0.001000
1026.846154,0.049844,0.001000,0.001000,0.001000,0.001000,0.001000
1026.865385,0.049935,0.001000,0.001000,0.001000,0.001000,0.001000
1026.884615,0.049987,0.001000,0.001000,0.001000,0.001000,0.001000
1026.903846,0.049999,0.001000,0.001000,0.001000,0.001000,0.001000
1026.923077,0.049972,0.001000,0.001000,0.001000,0.001000,0.001000
1026.942308,0.049906,0.001000,0.001000,0.001000,0.001000,0.001000
1026.961538,0.049801,0.001000,0.001000,0.001000,0.001000,0.001000
1026.980769,0.049656,0.001000,0.001000,0.001000,0.001000,0.001000
1027.000000,0.049472,0.001000,0.001000,0.001000,0.001000,0.001000
1027.019231,0.049249,0.001000,0.001000,0.001000,0.001000,0.001000
1027.038462,0.048987,0.001000,0.001000,0.001000,0.001000,0.001000
1027.057692,0.048686,0.001000,0.001000,0.001000,0.001000,0.001000
1027.076923,0.048348,0.001000,0.001000,0.001000,0.001000,0.001000
1027.096154,0.047971,0.001000,0.001000,0.001000,0.001000,0.001000
1027.115385,0.047556,0.001000,0.001000,0.001000,0.001000,0.001000
1027.134615,0.047104,0.001000,0.001000,0.001000,0.001000,0.001000
1027.153846,0.046615,0.001000,0.001000,0.001000,0.001000,0.001000
1027.173077,0.046089,0.001000,0.001000,0.001000,0.001000,0.001000
1027.192308,0.045526,0.001000,0.001000,0.001000,0.001000,0.001000
1027.211538,0.044928,0.001000,0.001000,0.001000,0.001000,0.001000
1027.230769,0.044294,0.001000,0.001000,0.001000,0.001000,0.001000
1027.250000,0.043626,0.001000,0.001000,0.001000,0.001000,0.001000
1027.269231,0.042923,0.001000,0.001000,0.001000,0.001000,0.001000
1027.288462,0.042186,0.001000,0.001000,0.001000,0.001000,0.001000
1027.307692,0.041416,0.001000,0.001000,0.001000,0.001000,0.001000
1027.326923,0.040614,0.001000,0.001000,0.001000,0.001000,0.001000
1027.346154,0.039779,0.001000,0.001000,0.001000,0.001000,0.001000
1027.365385,0.038913,0.001000,0.001000,0.001000,0.001000,0.001000
1027.384615,0.038016,0.001000,0.001000,0.001000,0.001000,0.001000
1027.403846,0.037090,0.001000,0.001000,0.001000,0.001000,0.001000
1027.423077,0.036134,0.001000,0.001000,0.001000,0.001000,0.001000
1027.442308,0.035150,0.001000,0.001000,0.001000,0.001000,0.001000
1027.461538,0.034138,0.001000,0.001000,0.001000,0.001000,0.001000
1027.480769,0.033099,0.001000,0.001000,0.001000,0.001000,0.001000
1027.500000,0.032034,0.001000,0.001000,0.001000,0.001000,0.001000
1027.519231,0.030944,0.001000,0.001000,0.001000,0.001000,0.001000
1027.538462,0.029829,0.001000,0.001000,0.001000,0.001000,0.001000
1027.557692,0.028691,0.001000,0.001000,0.001000,0.001000,0.001000
1027.576923,0.027530,0.001000,0.001000,0.001000,0.001000,0.001000
1027.596154,0.026348,0.001000,0.001000,0.001000,0.001000,0.001000
1027.615385,0.025144,0.001000,0.001000,0.001000,0.001000,0.001000
1027.634615,0.023921,0.001000,0.001000,0.001000,0.001000,0.001000
1027.653846,0.022679,0.001000,0.001000,0.001000,0.001000,0.001000
1027.673077,0.021420,0.001000,0.001000,0.001000,0.001000,0.001000
1027.692308,0.020143,0.001000,0.001000,0.001000,0.001000,0.001000
1027.711538,0.018851,0.001000,0.001000,0.001000,0.001000,0.001000
1027.730769,0.017543,0.001000,0.001000,0.001000,0.001000,0.001000
1027.750000,0.016222,0.001000,0.001000,0.001000,0.001000,0.001000
1027.769231,0.014888,0.001000,0.001000,0.001000,0.001000,0.001000
1027.788462,0.013542,0.001000,0.001000,0.001000,0.001000,0.001000
1027.807692,0.012186,0.001000,0.001000,0.001000,0.001000,0.001000
1027.826923,0.010820,0.001000,0.001000,0.001000,0.001000,0.001000
1027.846154,0.009445,0.001000,0.001000,0.001000,0.001000,0.001000
1027.865385,0.008064,0.001000,0.001000,0.001000,0.001000,0.001000
1027.884615,0.006675,0.001000,0.001000,0.001000,0.001000,0.001000
1027.903846,0.005282,0.001000,0.001000,0.001000,0.001000,0.001000
1027.923077,0.003884,0.001000,0.001000,0.001000,0.001000,0.001000
1027.942308,0.002483,0.001000,0.001000,0.001000,0.001000,0.001000
1027.961538,0.001080,0.001000,0.001000,0.001000,0.001000,0.001000
1027.980769,-0.000323,0.001000,0.001000,0.001000,0.001000,0.001000
1028.000000,-0.001727,0.001000,0.001000,0.001000,0.001000,0.001000
1028.019231,-0.003129,0.001000,0.001000,0.001000,0.001000,0.001000
1028.038462,-0.004528,0.001000,0.001000,0.001000,0.001000,0.001000
1028.057692,-0.005924,0.001000,0.001000,0.001000,0.001000,0.001000
1028.076923,-0.007315,0.001000,0.001000,0.001000,0.001000,0.001000
1028.096154,-0.008701,0.001000,0.001000,0.001000,0.001000,0.001000
1028.115385,-0.010079,0.001000,0.001000,0.001000,0.001000,0.001000
1028.134615,-0.011450,0.001000,0.001000,0.001000,0.001000,0.001000
1028.153846,-0.012812,0.001000,0.001000,0.001000,0.001000,0.001000
1028.173077,-0.014163,0.001000,0.001000,0.001000,0.001000,0.001000
1028.192308,-0.015504,0.001000,0.001000,0.001000,0.001000,0.001000
1028.211538,-0.016832,0.001000,0.001000,0.001000,0.001000,0.001000
1028.230769,-0.018147,0.001000,0.001000,0.001000,0.001000,0.001000
1028.250000,-0.019448,0.001000,0.001000,0.001000,0.001000,0.001000
1028.269231,-0.020733,0.001000,0.001000,0.001000,0.001000,0.001000
1028.288462,-0.022002,0.001000,0.001000,0.001000,0.001000,0.001000
1028.307692,-0.023254,0.001000,0.001000,0.001000,0.001000,0.001000
1028.326923,-0.024487,0.001000,0.001000,0.001000,0.001000,0.001000
1028.346154,-0.025701,0.001000,0.001000,0.001000,0.001000,0.001000
1028.365385,-0.026895,0.001000,0.001000,0.001000,0.001000,0.001000
1028.384615,-0.028067,0.001000,0.001000,0.001000,0.001000,0.001000
1028.403846,-0.029218,0.001000,0.001000,0.001000,0.001000,0.001000
1028.423077,-0.030345,0.001000,0.001000,0.001000,0.001000,0.001000
1028.442308,-0.031449,0.001000,0.001000,0.001000,0.001000,0.001000
1028.461538,-0.032527,0.001000,0.001000,0.001000,0.001000,0.001000
1028.480769,-0.033580,0.001000,0.001000,0.001000,0.001000,0.001000
1028.500000,-0.034607,0.001000,0.001000,0.001000,0.001000,0.001000
1028.519231,-0.035606,0.001000,0.001000,0.001000,0.001000,0.001000
1028.538462,-0.036578,0.001000,0.001000,0.001000,0.001000,0.001000
1028.557692,-0.037520,0.001000,0.001000,0.001000,0.001000,0.001000
1028.576923,-0.038433,0.001000,0.001000,0.001000,0.001000,0.001000
1028.596154,-0.039316,0.001000,0.001000,0.001000,0.001000,0.001000
1028.615385,-0.040167,0.001000,0.001000,0.001000,0.001000,0.001000
1028.634615,-0.040987,0.001000,0.001000,0.001000,0.001000,0.001000
1028.653846,-0.041775,0.001000,0.001000,0.001000,0.001000,0.001000
1028.673077,-0.042530,0.001000,0.001000,0.001000,0.001000,0.001000
1028.692308,-0.043251,0.001000,0.001000,0.001000,0.001000,0.001000
1028.711538,-0.043938,0.001000,0.001000,0.001000,0.001000,0.001000
1028.730769,-0.044591,0.001000,0.001000,0.001000,0.001000,0.001000
1028.750000,-0.045208,0.001000,0.001000,0.001000,0.001000,0.001000
1028.769231,-0.045790,0.001000,0.001000,0.001000,0.001000,0.001000
1028.788462,-0.046335,0.001000,0.001000,0.001000,0.001000,0.001000
1028.807692,-0.046845,0.001000,0.001000,0.001000,0.001000,0.001000
1028.826923,-0.047317,0.001000,0.001000,0.001000,0.001000,0.001000
1028.846154,-0.047752,0.001000,0.001000,0.001000,0.001000,0.001000
1028.865385,-0.048149,0.001000,0.001000,0.001000,0.001000,0.001000
1028.884615,-0.048508,0.001000,0.001000,0.001000,0.001000,0.001000
1028.903846,-0.048830,0.001000,0.001000,0.001000,0.001000,0.001000
1028.923077,-0.049112,0.001000,0.001000,0.001000,0.001000,0.001000
1028.942308,-0.049356,0.001000,0.001000,0.001000,0.001000,0.001000
1028.961538,-0.049561,0.001000,0.001000,0.001000,0.001000,0.001000
1028.980769,-0.049727,0.001000,0.001000,0.001000,0.001000,0.001000
1029.000000,-0.049854,0.001000,0.001000,0.001000,0.001000,0.001000
1029.019231,-0.049942,0.001000,0.001000,0.001000,0.001000,0.001000
1029.038462,-0.049990,0.001000,0.001000,0.001000,0.001000,0.001000
1029.057692,-0.049998,0.001000,0.001000,0.001000,0.001000,0.001000
1029.076923,-0.049968,0.001000,0.001000,0.001000,0.001000,0.001000
1029.096154,-0.049898,0.001000,0.001000,0.001000,0.001000,0.001000
1029.115385,-0.049788,0.001000,0.001000,0.001000,0.001000,0.001000
1029.134615,-0.049640,0.001000,0.001000,0.001000,0.001000,0.001000
1029.153846,-0.049452,0.001000,0.001000,0.001000,0.001000,0.001000
1029.173077,-0.049226,0.001000,0.001000,0.001000,0.001000,0.001000
1029.192308,-0.048960,0.001000,0.001000,0.001000,0.001000,0.001000
1029.211538,-0.048656,0.001000,0.001000,0.001000,0.001000,0.001000
1029.230769,-0.048314,0.001000,0.001000,0.001000,0.001000,0.001000
1029.250000,-0.047933,0.001000,0.001000,0.001000,0.001000,0.001000
1029.269231,-0.047515,0.001000,0.001000,0.001000,0.001000,0.001000
1029.288462,-0.047059,0.001000,0.001000,0.001000,0.001000,0.001000
1029.307692,-0.046566,0.001000,0.001000,0.001000,0.001000,0.001000
1029.326923,-0.046037,0.001000,0.001000,0.001000,0.001000,0.001000
1029.346154,-0.045471,0.001000,0.001000,0.001000,0.001000,0.001000
1029.365385,-0.044870,0.001000,0.001000,0.001000,0.001000,0.001000
1029.384615,-0.044233,0.001000,0.001000,0.001000,0.001000,0.001000
1029.403846,-0.043561,0.001000,0.001000,0.001000,0.001000,0.001000
1029.423077,-0.042855,0.001000,0.001000,0.001000,0.001000,0.001000
1029.442308,-0.042115,0.001000,0.001000,0.001000,0.001000,0.001000
1029.461538,-0.041342,0.001000,0.001000,0.001000,0.001000,0.001000
1029.480769,-0.040536,0.001000,0.001000,0.001000,0.001000,0.001000
1029.500000,-0.039698,0.001000,0.001000,0.001000,0.001000,0.001000
1029.519231,-0.038830,0.001000,0.001000,0.001000,0.001000,0.001000
1029.538462,-0.037930,0.001000,0.001000,0.001000,0.001000,0.001000
1029.557692,-0.037001,0.001000,0.001000,0.001000,0.001000,0.001000
1029.576923,-0.036042,0.001000,0.001000,0.001000,0.001000,0.001000
1029.596154,-0.035055,0.001000,0.001000,0.001000,0.001000,0.001000
1029.615385,-0.034040,0.001000,0.001000,0.001000,0.001000,0.001000
1029.634615,-0.032999,0.001000,0.001000,0.001000,0.001000,0.001000
1029.653846,-0.031932,0.001000,0.001000,0.001000,0.001000,0.001000
1029.673077,-0.030839,0.001000,0.001000,0.001000,0.001000,0.001000
1029.692308,-0.029722,0.001000,0.001000,0.001000,0.001000,0.001000
1029.711538,-0.028582,0.001000,0.001000,0.001000,0.001000,0.001000
1029.730769,-0.027419,0.001000,0.001000,0.001000,0.001000,0.001000
1029.750000,-0.026235,0.001000,0.001000,0.001000,0.001000,0.001000
1029.769231,-0.025029,0.001000,0.001000,0.001000,0.001000,0.001000
1029.788462,-0.023805,0.001000,0.001000,0.001000,0.001000,0.001000
1029.807692,-0.022561,0.001000,0.001000,0.001000,0.001000,0.001000
1029.826923,-0.021300,0.001000,0.001000,0.001000,0.001000,0.001000
1029.846154,-0.020021,0.001000,0.001000,0.001000,0.001000,0.001000
1029.865385,-0.018727,0.001000,0.001000,0.001000,0.001000,0.001000
1029.884615,-0.017419,0.001000,0.001000,0.001000,0.001000,0.001000
1029.903846,-0.016096,0.001000,0.001000,0.001000,0.001000,0.001000
1029.923077,-0.014761,0.001000,0.001000,0.001000,0.001000,0.001000
1029.942308,-0.013414,0.001000,0.001000,0.001000,0.001000,0.001000
1029.961538,-0.012057,0.001000,0.001000,0.001000,0.001000,0.001000
1029.980769,-0.010690,0.001000,0.001000,0.001000,0.001000,0.001000
1030.000000,0.000000,0.001000,0.001000,0.001000,0.001000,0.001000
1030.019231,0.001404,0.001000,0.001000,0.001000,0.001000,0.001000
1030.038462,0.002807,0.001000,0.001000,0.001000,0.001000,0.001000
1030.057692,0.004208,0.001000,0.001000,0.001000,0.001000,0.001000
1030.076923,0.005606,0.001000,0.001000,0.001000,0.001000,0.001000
1030.096154,0.006999,0.001000,0.001000,0.001000,0.001000,0.001000
1030.115385,0.008387,0.001000,0.001000,0.001000,0.001000,0.001000
1030.134615,0.009768,0.001000,0.001000,0.001000,0.001000,0.001000
1030.153846,0.011141,0.001000,0.001000,0.001000,0.001000,0.001000
1030.173077,0.012505,0.001000,0.001000,0.001000,0.001000,0.001000
1030.192308,0.013860,0.001000,0.001000,0.001000,0.001000,0.001000
1030.211538,0.015204,0.001000,0.001000,0.001000,0.001000,0.001000
1030.230769,0.016535,0.001000,0.001000,0.001000,0.001000,0.001000
1030.250000,0.017854,0.001000,0.001000,0.001000,0.001000,0.001000
1030.269231,0.019159,0.001000,0.001000,0.001000,0.001000,0.001000
1030.288462,0.020448,0.001000,0.001000,0.001000,0.001000,0.001000
1030.307692,0.021721,0.001000,0.001000,0.001000,0.001000,0.001000
1030.326923,0.022978,0.001000,0.001000,0.001000,0.001000,0.001000
1030.346154,0.024216,0.001000,0.001000,0.001000,0.001000,0.001000
1030.365385,0.025435,0.001000,0.001000,0.001000,0.001000,0.001000
1030.384615,0.026634,0.001000,0.001000,0.001000,0.001000,0.001000
1030.403846,0.027812,0.001000,0.001000,0.001000,0.001000,0.001000
1030.423077,0.028968,0.001000,0.001000,0.001000,0.001000,0.001000
1030.442308,0.030101,0.001000,0.001000,0.001000,0.001000,0.001000
1030.461538,0.031210,0.001000,0.001000,0.001000,0.001000,0.001000
1030.480769,0.032295,0.001000,0.001000,0.001000,0.001000,0.001000
1030.500000,0.033354,0.001000,0.001000,0.001000,0.001000,0.001000
1030.519231,0.034387,0.001000,0.001000,0.001000,0.001000,0.001000
1030.538462,0.035393,0.001000,0.001000,0.001000,0.001000,0.001000
1030.557692,0.036371,0.001000,0.001000,0.001000,0.001000,0.001000
1030.576923,0.037320,0.001000,0.001000,0.001000,0.001000,0.001000
1030.596154,0.038240,0.001000,0.001000,0.001000,0.001000,0.001000
1030.615385,0.039129,0.001000,0.001000,0.001000,0.001000,0.001000
1030.634615,0.039988,0.001000,0.001000,0.001000,0.001000,0.001000
1030.653846,0.040815,0.001000,0.001000,0.001000,0.001000,0.001000
1030.673077,0.041610,0.001000,0.001000,0.001000,0.001000,0.001000
1030.692308,0.042372,0.001000,0.001000,0.001000,0.001000,0.001000
1030.711538,0.043101,0.001000,0.001000,0.001000,0.001000,0.001000
1030.730769,0.043796,0.001000,0.001000,0.001000,0.001000,0.001000
1030.750000,0.044456,0.001000,0.001000,0.001000,0.001000,0.001000
1030.769231,0.045081,0.001000,0.001000,0.001000,0.001000,0.001000
1030.788462,0.045671,0.001000,0.001000,0.001000,0.001000,0.001000
1030.807692,0.046224,0.001000,0.001000,0.001000,0.001000,0.001000
1030.826923,0.046741,0.001000,0.001000,0.001000,0.001000,0.001000
1030.846154,0.047222,0.001000,0.001000,0.001000,0.001000,0.001000
1030.865385,0.047665,0.001000,0.001000,0.001000,0.001000,0.001000
1030.884615,0.048070,0.001000,0.001000,0.001000,0.001000,0.001000
1030.903846,0.048437,0.001000,0.001000,0.001000,0.001000,0.001000
1030.923077,0.048767,0.001000,0.001000,0.001000,0.001000,0.001000
1030.942308,0.049057,0.001000,0.001000,0.001000,0.001000,0.001000
1030.961538,0.049309,0.001000,0.001000,0.001000,0.001000,0.001000
1030.980769,0.049522,0.001000,0.001000,0.001000,0.001000,0.001000
1031.000000,0.049697,0.001000,0.001000,0.001000,0.001000,0.001000
1031.019231,0.049831,0.001000,0.001000,0.001000,0.001000,0.001000
1031.038462,0.049927,0.001000,0.001000,0.001000,0.001000,0.001000
1031.057692,0.049983,0.001000,0.001000,0.001000,0.001000,0.001000
1031.076923,0.050000,0.001000,0.001000,0.001000,0.001000,0.001000
1031.096154,0.049977,0.001000,0.001000,0.001000,0.001000,0.001000
1031.115385,0.049915,0.001000,0.001000,0.001000,0.001000,0.001000
1031.134615,0.049814,0.001000,0.001000,0.001000,0.001000,0.001000
1031.153846,0.049673,0.001000,0.001000,0.001000,0.001000,0.001000
1031.173077,0.049493,0.001000,0.001000,0.001000,0.001000,0.001000
1031.192308,0.049274,0.001000,0.001000,0.001000,0.001000,0.001000
1031.211538,0.049016,0.001000,0.001000,0.001000,0.001000,0.001000
1031.230769,0.048719,0.001000,0.001000,0.001000,0.001000,0.001000
1031.250000,0.048384,0.001000,0.001000,0.001000,0.001000,0.001000
1031.269231,0.048011,0.001000,0.001000,0.001000,0.001000,0.001000
1031.288462,0.047600,0.001000,0.001000,0.001000,0.001000,0.001000
1031.307692,0.047151,0.001000,0.001000,0.001000,0.001000,0.001000
1031.326923,0.046666,0.001000,0.001000,0.001000,0.001000,0.001000
1031.346154,0.046143,0.001000,0.001000,0.001000,0.001000,0.001000
1031.365385,0.045584,0.001000,0.001000,0.001000,0.001000,0.001000
1031.384615,0.044989,0.001000,0.001000,0.001000,0.001000,0.001000
1031.403846,0.044359,0.001000,0.001000,0.001000,0.001000,0.001000
1031.423077,0.043693,0.001000,0.001000,0.001000,0.001000,0.001000
1031.442308,0.042993,0.001000,0.001000,0.001000,0.001000,0.001000
1031.461538,0.042259,0.001000,0.001000,0.001000,0.001000,0.001000
1031.480769,0.041492,0.001000,0.001000,0.001000,0.001000,0.001000
1031.500000,0.040692,0.001000,0.001000,0.001000,0.001000,0.001000
1031.519231,0.039860,0.001000,0.001000,0.001000,0.001000,0.001000
1031.538462,0.038997,0.001000,0.001000,0.001000,0.001000,0.001000
1031.557692,0.038103,0.001000,0.001000,0.001000,0.001000,0.001000
1031.576923,0.037178,0.001000,0.001000,0.001000,0.001000,0.001000
1031.596154,0.036225,0.001000,0.001000,0.001000,0.001000,0.001000
1031.615385,0.035243,0.001000,0.001000,0.001000,0.001000,0.001000
1031.634615,0.034233,0.001000,0.001000,0.001000,0.001000,0.001000
1031.653846,0.033196,0.001000,0.001000,0.001000,0.001000,0.001000
1031.673077,0.032133,0.001000,0.001000,0.001000,0.001000,0.001000
1031.692308,0.031044,0.001000,0.001000,0.001000,0.001000,0.001000
1031.711538,0.029931,0.001000,0.001000,0.001000,0.001000,0.001000
1031.730769,0.028794,0.001000,0.001000,0.001000,0.001000,0.001000
1031.750000,0.027635,0.001000,0.001000,0.001000,0.001000,0.001000
1031.769231,0.026454,0.001000,0.001000,0.001000,0.001000,0.001000
1031.788462,0.025252,0.001000,0.001000,0.001000,0.001000,0.001000
1031.807692,0.024030,0.001000,0.001000,0.001000,0.001000,0.001000
1031.826923,0.022789,0.001000,0.001000,0.001000,0.001000,0.001000
1031.846154,0.021530,0.001000,0.001000,0.001000,0.001000,0.001000
1031.865385,0.020254,0.001000,0.001000,0.001000,0.001000,0.001000
1031.884615,0.018963,0.001000,0.001000,0.001000,0.001000,0.001000
1031.903846,0.017656,0.001000,0.001000,0.001000,0.001000,0.001000
1031.923077,0.016335,0.001000,0.001000,0.001000,0.001000,0.001000
1031.942308,0.015001,0.001000,0.001000,0.001000,0.001000,0.001000
1031.961538,0.013656,0.001000,0.001000,0.001000,0.001000,0.001000
1031.980769,0.012300,0.001000,0.001000,0.001000,0.001000,0.001000
1032.000000,0.010934,0.001000,0.001000,0.001000,0.001000,0.001000
1032.019231,0.009559,0.001000,0.001000,0.001000,0.001000,0.001000
1032.038462,0.008177,0.001000,0.001000,0.001000,0.001000,0.001000
1032.057692,0.006789,0.001000,0.001000,0.001000,0.001000,0.001000
1032.076923,0.005395,0.001000,0.001000,0.001000,0.001000,0.001000
1032.096154,0.003997,0.001000,0.001000,0.001000,0.001000,0.001000
1032.115385,0.002596,0.001000,0.001000,0.001000,0.001000,0.001000
1032.134615,0.001192,0.001000,0.001000,0.001000,0.001000,0.001000
1032.153846,-0.000212,0.001000,0.001000,0.001000,0.001000,0.001000
1032.173077,-0.001616,0.001000,0.001000,0.001000,0.001000,0.001000
1032.192308,-0.003019,0.001000,0.001000,0.001000,0.001000,0.001000
1032.211538,-0.004419,0.001000,0.001000,0.001000,0.001000,0.001000
1032.230769,-0.005816,0.001000,0.001000,0.001000,0.001000,0.001000
1032.250000,-0.007209,0.001000,0.001000,0.001000,0.001000,0.001000
1032.269231,-0.008596,0.001000,0.001000,0.001000,0.001000,0.001000
1032.288462,-0.009975,0.001000,0.001000,0.001000,0.001000,0.001000
1032.307692,-0.011347,0.001000,0.001000,0.001000,0.001000,0.001000
1032.326923,-0.012711,0.001000,0.001000,0.001000,0.001000,0.001000
1032.346154,-0.014064,0.001000,0.001000,0.001000,0.001000,0.001000
1032.365385,-0.015406,0.001000,0.001000,0.001000,0.001000,0.001000
1032.384615,-0.016735,0.001000,0.001000,0.001000,0.001000,0.001000
1032.403846,-0.018052,0.001000,0.001000,0.001000,0.001000,0.001000
1032.423077,-0.019354,0.001000,0.001000,0.001000,0.001000,0.001000
1032.442308,-0.020642,0.001000,0.001000,0.001000,0.001000,0.001000
1032.461538,-0.021912,0.001000,0.001000,0.001000,0.001000,0.001000
1032.480769,-0.023166,0.001000,0.001000,0.001000,0.001000,0.001000
1032.500000,-0.024401,0.001000,0.001000,0.001000,0.001000,0.001000
1032.519231,-0.025617,0.001000,0.001000,0.001000,0.001000,0.001000
1032.538462,-0.026813,0.001000,0.001000,0.001000,0.001000,0.001000
1032.557692,-0.027988,0.001000,0.001000,0.001000,0.001000,0.001000
1032.576923,-0.029140,0.001000,0.001000,0.001000,0.001000,0.001000
1032.596154,-0.030270,0.001000,0.001000,0.001000,0.001000,0.001000
1032.615385,-0.031375,0.001000,0.001000,0.001000,0.001000,0.001000
1032.634615,-0.032456,0.001000,0.001000,0.001000,0.001000,0.001000
1032.653846,-0.033512,0.001000,0.001000,0.001000,0.001000,0.001000
1032.673077,-0.034541,0.001000,0.001000,0.001000,0.001000,0.001000
1032.692308,-0.035542,0.001000,0.001000,0.001000,0.001000,0.001000
1032.711538,-0.036516,0.001000,0.001000,0.001000,0.001000,0.001000
1032.730769,-0.037461,0.001000,0.001000,0.001000,0.001000,0.001000
1032.750000,-0.038376,0.001000,0.001000,0.001000,0.001000,0.001000
1032.769231,-0.039261,0.001000,0.001000,0.001000,0.001000,0.001000
1032.788462,-0.040115,0.001000,0.001000,0.001000,0.001000,0.001000
1032.807692,-0.040937,0.001000,0.001000,0.001000,0.001000,0.001000
1032.826923,-0.041727,0.001000,0.001000,0.001000,0.001000,0.001000
1032.846154,-0.042485,0.001000,0.001000,0.001000,0.001000,0.001000
1032.865385,-0.043208,0.001000,0.001000,0.001000,0.001000,0.001000
1032.884615,-0.043898,0.001000,0.001000,0.001000,0.001000,0.001000
1032.903846,-0.044553,0.001000,0.001000,0.001000,0.001000,0.001000
1032.923077,-0.045173,0.001000,0.001000,0.001000,0.001000,0.001000
1032.942308,-0.045757,0.001000,0.001000,0.001000,0.001000,0.001000
1032.961538,-0.046305,0.001000,0.001000,0.001000,0.001000,0.001000
1032.980769,-0.046816,0.001000,0.001000,0.001000,0.001000,0.001000
1033.000000,-0.047291,0.001000,0.001000,0.001000,0.001000,0.001000
1033.019231,-0.047728,0.001000,0.001000,0.001000,0.001000,0.001000
1033.038462,-0.048128,0.001000,0.001000,0.001000,0.001000,0.001000
1033.057692,-0.048490,0.001000,0.001000,0.001000,0.001000,0.001000
1033.076923,-0.048813,0.001000,0.001000,0.001000,0.001000,0.001000
1033.096154,-0.049098,0.001000,0.001000,0.001000,0.001000,0.001000
1033.115385,-0.049344,0.001000,0.001000,0.001000,0.001000,0.001000
1033.134615,-0.049551,0.001000,0.001000,0.001000,0.001000,0.001000
1033.153846,-0.049719,0.001000,0.001000,0.001000,0.001000,0.001000
1033.173077,-0.049848,0.001000,0.001000,0.001000,0.001000,0.001000
1033.192308,-0.049938,0.001000,0.001000,0.001000,0.001000,0.001000
1033.211538,-0.049988,0.001000,0.001000,0.001000,0.001000,0.001000
1033.230769,-0.049999,0.001000,0.001000,0.001000,0.001000,0.001000
1033.250000,-0.049970,0.001000,0.001000,0.001000,0.001000,0.001000
1033.269231,-0.049902,0.001000,0.001000,0.001000,0.001000,0.001000
1033.288462,-0.049795,0.001000,0.001000,0.001000,0.001000,0.001000
1033.307692,-0.049648,0.001000,0.001000,0.001000,0.001000,0.001000
1033.326923,-0.049462,0.001000,0.001000,0.001000,0.001000,0.001000
1033.346154,-0.049237,0.001000,0.001000,0.001000,0.001000,0.001000
1033.365385,-0.048974,0.001000,0.001000,0.001000,0.001000,0.001000
1033.384615,-0.048671,0.001000,0.001000,0.001000,0.001000,0.001000
1033.403846,-0.048330,0.001000,0.001000,0.001000,0.001000,0.001000
1033.423077,-0.047951,0.001000,0.001000,0.001000,0.001000,0.001000
1033.442308,-0.047535,0.001000,0.001000,0.001000,0.001000,0.001000
1033.461538,-0.047080,0.001000,0.001000,0.001000,0.001000,0.001000
1033.480769,-0.046589,0.001000,0.001000,0.001000,0.001000,0.001000
1033.500000,-0.046061,0.001000,0.001000,0.001000,0.001000,0.001000
1033.519231,-0.045497,0.001000,0.001000,0.001000,0.001000,0.001000
1033.538462,-0.044896,0.001000,0.001000,0.001000,0.001000,0.001000
1033.557692,-0.044260,0.001000,0.001000,0.001000,0.001000,0.001000
1033.576923,-0.043590,0.001000,0.001000,0.001000,0.001000,0.001000
1033.596154,-0.042885,0.001000,0.001000,0.001000,0.001000,0.001000
1033.615385,-0.042146,0.001000,0.001000,0.001000,0.001000,0.001000
1033.634615,-0.041374,0.001000,0.001000,0.001000,0.001000,0.001000
1033.653846,-0.040569,0.001000,0.001000,0.001000,0.001000,0.001000
1033.673077,-0.039732,0.001000,0.001000,0.001000,0.001000,0.001000
1033.692308,-0.038864,0.001000,0.001000,0.001000,0.001000,0.001000
1033.711538,-0.037965,0.001000,0.001000,0.001000,0.001000,0.001000
1033.730769,-0.037036,0.001000,0.001000,0.001000,0.001000,0.001000
1033.750000,-0.036078,0.001000,0.001000,0.001000,0.001000,0.001000
1033.769231,-0.035092,0.001000,0.001000,0.001000,0.001000,0.001000
1033.788462,-0.034078,0.001000,0.001000,0.001000,0.001000,0.001000
1033.807692,-0.033037,0.001000,0.001000,0.001000,0.001000,0.001000
1033.826923,-0.031970,0.001000,0.001000,0.001000,0.001000,0.001000
1033.846154,-0.030877,0.001000,0.001000,0.001000,0.001000,0.001000
1033.865385,-0.029761,0.001000,0.001000,0.001000,0.001000,0.001000
1033.884615,-0.028621,0.001000,0.001000,0.001000,0.001000,0.001000
1033.903846,-0.027458,0.001000,0.001000,0.001000,0.001000,0.001000
1033.923077,-0.026274,0.001000,0.001000,0.001000,0.001000,0.001000
1033.942308,-0.025069,0.001000,0.001000,0.001000,0.001000,0.001000
1033.961538,-0.023844,0.001000,0.001000,0.001000,0.001000,0.001000
1033.980769,-0.022600,0.001000,0.001000,0.001000,0.001000,0.001000
1034.000000,-0.021339,0.001000,0.001000,0.001000,0.001000,0.001000
1034.019231,-0.020060,0.001000,0.001000,0.001000,0.001000,0.001000
1034.038462,-0.018766,0.001000,0.001000,0.001000,0.001000,0.001000
1034.057692,-0.017457,0.001000,0.001000,0.001000,0.001000,0.001000
1034.076923,-0.016134,0.001000,0.001000,0.001000,0.001000,0.001000
1034.096154,-0.014799,0.001000,0.001000,0.001000,0.001000,0.001000
1034.115385,-0.013452,0.001000,0.001000,0.001000,0.001000,0.001000
1034.134615,-0.012094,0.001000,0.001000,0.001000,0.001000,0.001000
1034.153846,-0.010727,0.001000,0.001000,0.001000,0.001000,0.001000
1034.173077,-0.009351,0.001000,0.001000,0.001000,0.001000,0.001000
1034.192308,-0.007968,0.001000,0.001000,0.001000,0.001000,0.001000
1034.211538,-0.006579,0.001000,0.001000,0.001000,0.001000,0.001000
1034.230769,-0.005184,0.001000,0.001000,0.001000,0.001000,0.001000
1034.250000,-0.003785,0.001000,0.001000,0.001000,0.001000,0.001000
1034.269231,-0.002384,0.001000,0.001000,0.001000,0.001000,0.001000
1034.288462,-0.000980,0.001000,0.001000,0.001000,0.001000,0.001000
1034.307692,0.000424,0.001000,0.001000,0.001000,0.001000,0.001000
1034.326923,0.001828,0.001000,0.001000,0.001000,0.001000,0.001000
1034.346154,0.003231,0.001000,0.001000,0.001000,0.001000,0.001000
1034.365385,0.004631,0.001000,0.001000,0.001000,0.001000,0.001000
1034.384615,0.006027,0.001000,0.001000,0.001000,0.001000,0.001000
1034.403846,0.007419,0.001000,0.001000,0.001000,0.001000,0.001000
1034.423077,0.008804,0.001000,0.001000,0.001000,0.001000,0.001000
1034.442308,0.010183,0.001000,0.001000,0.001000,0.001000,0.001000
1034.461538,0.011554,0.001000,0.001000,0.001000,0.001000,0.001000
1034.480769,0.012916,0.001000,0.001000,0.001000,0.001000,0.001000
1034.500000,0.014267,0.001000,0.001000,0.001000,0.001000,0.001000
1034.519231,0.015607,0.001000,0.001000,0.001000,0.001000,0.001000
1034.538462,0.016935,0.001000,0.001000,0.001000,0.001000,0.001000
1034.557692,0.018250,0.001000,0.001000,0.001000,0.001000,0.001000
1034.576923,0.019550,0.001000,0.001000,0.001000,0.001000,0.001000
1034.596154,0.020835,0.001000,0.001000,0.001000,0.001000,0.001000
1034.615385,0.022103,0.001000,0.001000,0.001000,0.001000,0.001000
1034.634615,0.023354,0.001000,0.001000,0.001000,0.001000,0.001000
1034.653846,0.024586,0.001000,0.001000,0.001000,0.001000,0.001000
1034.673077,0.025799,0.001000,0.001000,0.001000,0.001000,0.001000
