timestamp,ax,ay,az,gx,gy,gz
1000.000000,0.000000,0.001000,0.001000,0.001000,0.001000,0.001000
1000.019231,0.001310,0.001000,0.001000,0.001000,0.001000,0.001000
1000.038462,0.002619,0.001000,0.001000,0.001000,0.001000,0.001000
1000.057692,0.003926,0.001000,0.001000,0.001000,0.001000,0.001000
1000.076923,0.005231,0.001000,0.001000,0.001000,0.001000,0.001000
1000.096154,0.006531,0.001000,0.001000,0.001000,0.001000,0.001000
1000.115385,0.007828,0.001000,0.001000,0.001000,0.001000,0.001000
1000.134615,0.009119,0.001000,0.001000,0.001000,0.001000,0.001000
1000.153846,0.010404,0.001000,0.001000,0.001000,0.001000,0.001000
1000.173077,0.011681,0.001000,0.001000,0.001000,0.001000,0.001000
1000.192308,0.012951,0.001000,0.001000,0.001000,0.001000,0.001000
1000.211538,0.014212,0.001000,0.001000,0.001000,0.001000,0.001000
1000.230769,0.015463,0.001000,0.001000,0.001000,0.001000,0.001000
1000.250000,0.016703,0.001000,0.001000,0.001000,0.001000,0.001000
1000.269231,0.017932,0.001000,0.001000,0.001000,0.001000,0.001000
1000.288462,0.019149,0.001000,0.001000,0.001000,0.001000,0.001000
1000.307692,0.020352,0.001000,0.001000,0.001000,0.001000,0.001000
1000.326923,0.021542,0.001000,0.001000,0.001000,0.001000,0.001000
1000.346154,0.022716,0.001000,0.001000,0.001000,0.001000,0.001000
1000.365385,0.023875,0.001000,0.001000,0.001000,0.001000,0.001000
1000.384615,0.025018,0.001000,0.001000,0.001000,0.001000,0.001000
1000.403846,0.026144,0.001000,0.001000,0.001000,0.001000,0.001000
1000.423077,0.027251,0.001000,0.001000,0.001000,0.001000,0.001000
1000.442308,0.028340,0.001000,0.001000,0.001000,0.001000,0.001000
1000.461538,0.029409,0.001000,0.001000,0.001000,0.001000,0.001000
1000.480769,0.030459,0.001000,0.001000,0.001000,0.001000,0.001000
1000.500000,0.031487,0.001000,0.001000,0.001000,0.001000,0.001000
1000.519231,0.032494,0.001000,0.001000,0.001000,0.001000,0.001000
1000.538462,0.033478,0.001000,0.001000,0.001000,0.001000,0.001000
1000.557692,0.034440,0.001000,0.001000,0.001000,0.001000,0.001000
1000.576923,0.035377,0.001000,0.001000,0.001000,0.001000,0.001000
1000.596154,0.036291,0.001000,0.001000,0.001000,0.001000,0.001000
1000.615385,0.037180,0.001000,0.001000,0.001000,0.001000,0.001000
1000.634615,0.038043,0.001000,0.001000,0.001000,0.001000,0.001000
1000.653846,0.038880,0.001000,0.001000,0.001000,0.001000,0.001000
1000.673077,0.039690,0.001000,0.001000,0.001000,0.001000,0.001000
1000.692308,0.040473,0.001000,0.001000,0.001000,0.001000,0.001000
1000.711538,0.041228,0.001000,0.001000,0.001000,0.001000,0.001000
1000.730769,0.041955,0.001000,0.001000,0.001000,0.001000,0.001000
1000.750000,0.042653,0.001000,0.001000,0.001000,0.001000,0.001000
1000.769231,0.043322,0.001000,0.001000,0.001000,0.001000,0.001000
1000.788462,0.043961,0.001000,0.001000,0.001000,0.001000,0.001000
1000.807692,0.044570,0.001000,0.001000,0.001000,0.001000,0.001000
1000.826923,0.045149,0.001000,0.001000,0.001000,0.001000,0.001000
1000.846154,0.045696,0.001000,0.001000,0.001000,0.001000,0.001000
1000.865385,0.046212,0.001000,0.001000,0.001000,0.001000,0.001000
1000.884615,0.046696,0.001000,0.001000,0.001000,0.001000,0.001000
1000.903846,0.047148,0.001000,0.001000,0.001000,0.001000,0.001000
1000.923077,0.047568,0.001000,0.001000,0.001000,0.001000,0.001000
1000.942308,0.047955,0.001000,0.001000,0.001000,0.001000,0.001000
1000.961538,0.048310,0.001000,0.001000,0.001000,0.001000,0.001000
1000.980769,0.048631,0.001000,0.001000,0.001000,0.001000,0.001000
1001.000000,0.048919,0.001000,0.001000,0.001000,0.001000,0.001000
1001.019231,0.049173,0.001000,0.001000,0.001000,0.001000,0.001000
1001.038462,0.049393,0.001000,0.001000,0.001000,0.001000,0.001000
1001.057692,0.049580,0.001000,0.001000,0.001000,0.001000,0.001000
1001.076923,0.049732,0.001000,0.001000,0.001000,0.001000,0.001000
1001.096154,0.049850,0.001000,0.001000,0.001000,0.001000,0.001000
1001.115385,0.049935,0.001000,0.001000,0.001000,0.001000,0.001000
1001.134615,0.049984,0.001000,0.001000,0.001000,0.001000,0.001000
1001.153846,0.050000,0.001000,0.001000,0.001000,0.001000,0.001000
1001.173077,0.049981,0.001000,0.001000,0.001000,0.001000,0.001000
1001.192308,0.049928,0.001000,0.001000,0.001000,0.001000,0.001000
1001.211538,0.049841,0.001000,0.001000,0.001000,0.001000,0.001000
1001.230769,0.049719,0.001000,0.001000,0.001000,0.001000,0.001000
1001.250000,0.049563,0.001000,0.001000,0.001000,0.001000,0.001000
1001.269231,0.049374,0.001000,0.001000,0.001000,0.001000,0.001000
1001.288462,0.049150,0.001000,0.001000,0.001000,0.001000,0.001000
1001.307692,0.048893,0.001000,0.001000,0.001000,0.001000,0.001000
1001.326923,0.048602,0.001000,0.001000,0.001000,0.001000,0.001000
1001.346154,0.048277,0.001000,0.001000,0.001000,0.001000,0.001000
1001.365385,0.047920,0.001000,0.001000,0.001000,0.001000,0.001000
1001.384615,0.047530,0.001000,0.001000,0.001000,0.001000,0.001000
1001.403846,0.047107,0.001000,0.001000,0.001000,0.001000,0.001000
1001.423077,0.046651,0.001000,0.001000,0.001000,0.001000,0.001000
1001.442308,0.046164,0.001000,0.001000,0.001000,0.001000,0.001000
1001.461538,0.045645,0.001000,0.001000,0.001000,0.001000,0.001000
1001.480769,0.045095,0.001000,0.001000,0.001000,0.001000,0.001000
1001.500000,0.044513,0.001000,0.001000,0.001000,0.001000,0.001000
1001.519231,0.043902,0.001000,0.001000,0.001000,0.001000,0.001000
1001.538462,0.043260,0.001000,0.001000,0.001000,0.001000,0.001000
1001.557692,0.042588,0.001000,0.001000,0.001000,0.001000,0.001000
1001.576923,0.041887,0.001000,0.001000,0.001000,0.001000,0.001000
1001.596154,0.041157,0.001000,0.001000,0.001000,0.001000,0.001000
1001.615385,0.040399,0.001000,0.001000,0.001000,0.001000,0.001000
1001.634615,0.039614,0.001000,0.001000,0.001000,0.001000,0.001000
1001.653846,0.038801,0.001000,0.001000,0.001000,0.001000,0.001000
1001.673077,0.037961,0.001000,0.001000,0.001000,0.001000,0.001000
1001.692308,0.037096,0.001000,0.001000,0.001000,0.001000,0.001000
1001.711538,0.036205,0.001000,0.001000,0.001000,0.001000,0.001000
1001.730769,0.035289,0.001000,0.001000,0.001000,0.001000,0.001000
1001.750000,0.034349,0.001000,0.001000,0.001000,0.001000,0.001000
1001.769231,0.033385,0.001000,0.001000,0.001000,0.001000,0.001000
1001.788462,0.032399,0.001000,0.001000,0.001000,0.001000,0.001000
1001.807692,0.031390,0.001000,0.001000,0.001000,0.001000,0.001000
1001.826923,0.030360,0.001000,0.001000,0.001000,0.001000,0.001000
1001.846154,0.029308,0.001000,0.001000,0.001000,0.001000,0.001000
1001.865385,0.028237,0.001000,0.001000,0.001000,0.001000,0.001000
1001.884615,0.027146,0.001000,0.001000,0.001000,0.001000,0.001000
1001.903846,0.026037,0.001000,0.001000,0.001000,0.001000,0.001000
1001.923077,0.024910,0.001000,0.001000,0.001000,0.001000,0.001000
1001.942308,0.023765,0.001000,0.001000,0.001000,0.001000,0.001000
1001.961538,0.022605,0.001000,0.001000,0.001000,0.001000,0.001000
1001.980769,0.021429,0.001000,0.001000,0.001000,0.001000,0.001000
1002.000000,0.020238,0.001000,0.001000,0.001000,0.001000,0.001000
1002.019231,0.019033,0.001000,0.001000,0.001000,0.001000,0.001000
1002.038462,0.017815,0.001000,0.001000,0.001000,0.001000,0.001000
1002.057692,0.016585,0.001000,0.001000,0.001000,0.001000,0.001000
1002.076923,0.015344,0.001000,0.001000,0.001000,0.001000,0.001000
1002.096154,0.014092,0.001000,0.001000,0.001000,0.001000,0.001000
1002.115385,0.012830,0.001000,0.001000,0.001000,0.001000,0.001000
1002.134615,0.011560,0.001000,0.001000,0.001000,0.001000,0.001000
1002.153846,0.010282,0.001000,0.001000,0.001000,0.001000,0.001000
1002.173077,0.008996,0.001000,0.001000,0.001000,0.001000,0.001000
1002.192308,0.007705,0.001000,0.001000,0.001000,0.001000,0.001000
1002.211538,0.006408,0.001000,0.001000,0.001000,0.001000,0.001000
1002.230769,0.005106,0.001000,0.001000,0.001000,0.001000,0.001000
1002.250000,0.003802,0.001000,0.001000,0.001000,0.001000,0.001000
1002.269231,0.002494,0.001000,0.001000,0.001000,0.001000,0.001000
1002.288462,0.001185,0.001000,0.001000,0.001000,0.001000,0.001000
1002.307692,-0.000125,0.001000,0.001000,0.001000,0.001000,0.001000
1002.326923,-0.001435,0.001000,0.001000,0.001000,0.001000,0.001000
1002.346154,-0.002744,0.001000,0.001000,0.001000,0.001000,0.001000
1002.365385,-0.004051,0.001000,0.001000,0.001000,0.001000,0.001000
1002.384615,-0.005355,0.001000,0.001000,0.001000,0.001000,0.001000
1002.403846,-0.006655,0.001000,0.001000,0.001000,0.001000,0.001000
1002.423077,-0.007951,0.001000,0.001000,0.001000,0.001000,0.001000
1002.442308,-0.009242,0.001000,0.001000,0.001000,0.001000,0.001000
1002.461538,-0.010526,0.001000,0.001000,0.001000,0.001000,0.001000
1002.480769,-0.011803,0.001000,0.001000,0.001000,0.001000,0.001000
1002.500000,-0.013072,0.001000,0.001000,0.001000,0.001000,0.001000
1002.519231,-0.014331,0.001000,0.001000,0.001000,0.001000,0.001000
1002.538462,-0.015581,0.001000,0.001000,0.001000,0.001000,0.001000
1002.557692,-0.016821,0.001000,0.001000,0.001000,0.001000,0.001000
1002.576923,-0.018049,0.001000,0.001000,0.001000,0.001000,0.001000
1002.596154,-0.019264,0.001000,0.001000,0.001000,0.001000,0.001000
1002.615385,-0.020466,0.001000,0.001000,0.001000,0.001000,0.001000
1002.634615,-0.021654,0.001000,0.001000,0.001000,0.001000,0.001000
1002.653846,-0.022827,0.001000,0.001000,0.001000,0.001000,0.001000
1002.673077,-0.023985,0.001000,0.001000,0.001000,0.001000,0.001000
1002.692308,-0.025126,0.001000,0.001000,0.001000,0.001000,0.001000
1002.711538,-0.026250,0.001000,0.001000,0.001000,0.001000,0.001000
1002.730769,-0.027356,0.001000,0.001000,0.001000,0.001000,0.001000
1002.750000,-0.028443,0.001000,0.001000,0.001000,0.001000,0.001000
1002.769231,-0.029510,0.001000,0.001000,0.001000,0.001000,0.001000
1002.788462,-0.030558,0.001000,0.001000,0.001000,0.001000,0.001000
1002.807692,-0.031584,0.001000,0.001000,0.001000,0.001000,0.001000
1002.826923,-0.032589,0.001000,0.001000,0.001000,0.001000,0.001000
1002.846154,-0.033571,0.001000,0.001000,0.001000,0.001000,0.001000
1002.865385,-0.034530,0.001000,0.001000,0.001000,0.001000,0.001000
1002.884615,-0.035466,0.001000,0.001000,0.001000,0.001000,0.001000
1002.903846,-0.036377,0.001000,0.001000,0.001000,0.001000,0.001000
1002.923077,-0.037263,0.001000,0.001000,0.001000,0.001000,0.001000
1002.942308,-0.038124,0.001000,0.001000,0.001000,0.001000,0.001000
1002.961538,-0.038958,0.001000,0.001000,0.001000,0.001000,0.001000
1002.980769,-0.039766,0.001000,0.001000,0.001000,0.001000,0.001000
1003.000000,-0.040546,0.001000,0.001000,0.001000,0.001000,0.001000
1003.019231,-0.041299,0.001000,0.001000,0.001000,0.001000,0.001000
1003.038462,-0.042023,0.001000,0.001000,0.001000,0.001000,0.001000
1003.057692,-0.042718,0.001000,0.001000,0.001000,0.001000,0.001000
1003.076923,-0.043384,0.001000,0.001000,0.001000,0.001000,0.001000
1003.096154,-0.044021,0.001000,0.001000,0.001000,0.001000,0.001000
1003.115385,-0.044627,0.001000,0.001000,0.001000,0.001000,0.001000
1003.134615,-0.045202,0.001000,0.001000,0.001000,0.001000,0.001000
1003.153846,-0.045746,0.001000,0.001000,0.001000,0.001000,0.001000
1003.173077,-0.046259,0.001000,0.001000,0.001000,0.001000,0.001000
1003.192308,-0.046741,0.001000,0.001000,0.001000,0.001000,0.001000
1003.211538,-0.047190,0.001000,0.001000,0.001000,0.001000,0.001000
1003.230769,-0.047607,0.001000,0.001000,0.001000,0.001000,0.001000
1003.250000,-0.047991,0.001000,0.001000,0.001000,0.001000,0.001000
1003.269231,-0.048342,0.001000,0.001000,0.001000,0.001000,0.001000
1003.288462,-0.048660,0.001000,0.001000,0.001000,0.001000,0.001000
1003.307692,-0.048944,0.001000,0.001000,0.001000,0.001000,0.001000
1003.326923,-0.049195,0.001000,0.001000,0.001000,0.001000,0.001000
1003.346154,-0.049412,0.001000,0.001000,0.001000,0.001000,0.001000
1003.365385,-0.049596,0.001000,0.001000,0.001000,0.001000,0.001000
1003.384615,-0.049745,0.001000,0.001000,0.001000,0.001000,0.001000
1003.403846,-0.049860,0.001000,0.001000,0.001000,0.001000,0.001000
1003.423077,-0.049941,0.001000,0.001000,0.001000,0.001000,0.001000
1003.442308,-0.049987,0.001000,0.001000,0.001000,0.001000,0.001000
1003.461538,-0.050000,0.001000,0.001000,0.001000,0.001000,0.001000
1003.480769,-0.049978,0.001000,0.001000,0.001000,0.001000,0.001000
1003.500000,-0.049921,0.001000,0.001000,0.001000,0.001000,0.001000
1003.519231,-0.049831,0.001000,0.001000,0.001000,0.001000,0.001000
1003.538462,-0.049706,0.001000,0.001000,0.001000,0.001000,0.001000
1003.557692,-0.049547,0.001000,0.001000,0.001000,0.001000,0.001000
1003.576923,-0.049354,0.001000,0.001000,0.001000,0.001000,0.001000
1003.596154,-0.049127,0.001000,0.001000,0.001000,0.001000,0.001000
1003.615385,-0.048866,0.001000,0.001000,0.001000,0.001000,0.001000
1003.634615,-0.048572,0.001000,0.001000,0.001000,0.001000,0.001000
1003.653846,-0.048245,0.001000,0.001000,0.001000,0.001000,0.001000
1003.673077,-0.047884,0.001000,0.001000,0.001000,0.001000,0.001000
1003.692308,-0.047491,0.001000,0.001000,0.001000,0.001000,0.001000
1003.711538,-0.047065,0.001000,0.001000,0.001000,0.001000,0.001000
1003.730769,-0.046606,0.001000,0.001000,0.001000,0.001000,0.001000
1003.750000,-0.046116,0.001000,0.001000,0.001000,0.001000,0.001000
1003.769231,-0.045594,0.001000,0.001000,0.001000,0.001000,0.001000
1003.788462,-0.045041,0.001000,0.001000,0.001000,0.001000,0.001000
1003.807692,-0.044456,0.001000,0.001000,0.001000,0.001000,0.001000
1003.826923,-0.043842,0.001000,0.001000,0.001000,0.001000,0.001000
1003.846154,-0.043197,0.001000,0.001000,0.001000,0.001000,0.001000
1003.865385,-0.042522,0.001000,0.001000,0.001000,0.001000,0.001000
1003.884615,-0.041819,0.001000,0.001000,0.001000,0.001000,0.001000
1003.903846,-0.041086,0.001000,0.001000,0.001000,0.001000,0.001000
1003.923077,-0.040326,0.001000,0.001000,0.001000,0.001000,0.001000
1003.942308,-0.039537,0.001000,0.001000,0.001000,0.001000,0.001000
1003.961538,-0.038722,0.001000,0.001000,0.001000,0.001000,0.001000
1003.980769,-0.037880,0.001000,0.001000,0.001000,0.001000,0.001000
1004.000000,-0.037012,0.001000,0.001000,0.001000,0.001000,0.001000
1004.019231,-0.036119,0.001000,0.001000,0.001000,0.001000,0.001000
1004.038462,-0.035200,0.001000,0.001000,0.001000,0.001000,0.001000
1004.057692,-0.034258,0.001000,0.001000,0.001000,0.001000,0.001000
1004.076923,-0.033292,0.001000,0.001000,0.001000,0.001000,0.001000
1004.096154,-0.032304,0.001000,0.001000,0.001000,0.001000,0.001000
1004.115385,-0.031293,0.001000,0.001000,0.001000,0.001000,0.001000
1004.134615,-0.030260,0.001000,0.001000,0.001000,0.001000,0.001000
1004.153846,-0.029207,0.001000,0.001000,0.001000,0.001000,0.001000
1004.173077,-0.028134,0.001000,0.001000,0.001000,0.001000,0.001000
1004.192308,-0.027041,0.001000,0.001000,0.001000,0.001000,0.001000
1004.211538,-0.025930,0.001000,0.001000,0.001000,0.001000,0.001000
1004.230769,-0.024801,0.001000,0.001000,0.001000,0.001000,0.001000
1004.250000,-0.023656,0.001000,0.001000,0.001000,0.001000,0.001000
1004.269231,-0.022493,0.001000,0.001000,0.001000,0.001000,0.001000
1004.288462,-0.021316,0.001000,0.001000,0.001000,0.001000,0.001000
1004.307692,-0.020124,0.001000,0.001000,0.001000,0.001000,0.001000
1004.326923,-0.018918,0.001000,0.001000,0.001000,0.001000,0.001000
1004.346154,-0.017699,0.001000,0.001000,0.001000,0.001000,0.001000
1004.365385,-0.016467,0.001000,0.001000,0.001000,0.001000,0.001000
1004.384615,-0.015225,0.001000,0.001000,0.001000,0.001000,0.001000
1004.403846,-0.013972,0.001000,0.001000,0.001000,0.001000,0.001000
1004.423077,-0.012710,0.001000,0.001000,0.001000,0.001000,0.001000
1004.442308,-0.011438,0.001000,0.001000,0.001000,0.001000,0.001000
1004.461538,-0.010159,0.001000,0.001000,0.001000,0.001000,0.001000
1004.480769,-0.008873,0.001000,0.001000,0.001000,0.001000,0.001000
1004.500000,-0.007581,0.001000,0.001000,0.001000,0.001000,0.001000
1004.519231,-0.006284,0.001000,0.001000,0.001000,0.001000,0.001000
1004.538462,-0.004982,0.001000,0.001000,0.001000,0.001000,0.001000
1004.557692,-0.003677,0.001000,0.001000,0.001000,0.001000,0.001000
1004.576923,-0.002369,0.001000,0.001000,0.001000,0.001000,0.001000
1004.596154,-0.001060,0.001000,0.001000,0.001000,0.001000,0.001000
1004.615385,0.000250,0.001000,0.001000,0.001000,0.001000,0.001000
1004.634615,0.001560,0.001000,0.001000,0.001000,0.001000,0.001000
1004.653846,0.002868,0.001000,0.001000,0.001000,0.001000,0.001000
1004.673077,0.004175,0.001000,0.001000,0.001000,0.001000,0.001000
1004.692308,0.005479,0.001000,0.001000,0.001000,0.001000,0.001000
1004.711538,0.006779,0.001000,0.001000,0.001000,0.001000,0.001000
1004.730769,0.008075,0.001000,0.001000,0.001000,0.001000,0.001000
1004.750000,0.009364,0.001000,0.001000,0.001000,0.001000,0.001000
1004.769231,0.010648,0.001000,0.001000,0.001000,0.001000,0.001000
1004.788462,0.011924,0.001000,0.001000,0.001000,0.001000,0.001000
1004.807692,0.013192,0.001000,0.001000,0.001000,0.001000,0.001000
1004.826923,0.014451,0.001000,0.001000,0.001000,0.001000,0.001000
1004.846154,0.015700,0.001000,0.001000,0.001000,0.001000,0.001000
1004.865385,0.016938,0.001000,0.001000,0.001000,0.001000,0.001000
1004.884615,0.018165,0.001000,0.001000,0.001000,0.001000,0.001000
1004.903846,0.019379,0.001000,0.001000,0.001000,0.001000,0.001000
1004.923077,0.020580,0.001000,0.001000,0.001000,0.001000,0.001000
1004.942308,0.021767,0.001000,0.001000,0.001000,0.001000,0.001000
1004.961538,0.022938,0.001000,0.001000,0.001000,0.001000,0.001000
1004.980769,0.024095,0.001000,0.001000,0.001000,0.001000,0.001000
1005.000000,0.025234,0.001000,0.001000,0.001000,0.001000,0.001000
1005.019231,0.026356,0.001000,0.001000,0.001000,0.001000,0.001000
1005.038462,0.027460,0.001000,0.001000,0.001000,0.001000,0.001000
1005.057692,0.028545,0.001000,0.001000,0.001000,0.001000,0.001000
1005.076923,0.029611,0.001000,0.001000,0.001000,0.001000,0.001000
1005.096154,0.030656,0.001000,0.001000,0.001000,0.001000,0.001000
1005.115385,0.031681,0.001000,0.001000,0.001000,0.001000,0.001000
1005.134615,0.032683,0.001000,0.001000,0.001000,0.001000,0.001000
1005.153846,0.033663,0.001000,0.001000,0.001000,0.001000,0.001000
1005.173077,0.034620,0.001000,0.001000,0.001000,0.001000,0.001000
1005.192308,0.035553,0.001000,0.001000,0.001000,0.001000,0.001000
1005.211538,0.036462,0.001000,0.001000,0.001000,0.001000,0.001000
1005.230769,0.037346,0.001000,0.001000,0.001000,0.001000,0.001000
1005.250000,0.038204,0.001000,0.001000,0.001000,0.001000,0.001000
1005.269231,0.039036,0.001000,0.001000,0.001000,0.001000,0.001000
1005.288462,0.039841,0.001000,0.001000,0.001000,0.001000,0.001000
1005.307692,0.040619,0.001000,0.001000,0.001000,0.001000,0.001000
1005.326923,0.041369,0.001000,0.001000,0.001000,0.001000,0.001000
1005.346154,0.042090,0.001000,0.001000,0.001000,0.001000,0.001000
1005.365385,0.042783,0.001000,0.001000,0.001000,0.001000,0.001000
1005.384615,0.043446,0.001000,0.001000,0.001000,0.001000,0.001000
1005.403846,0.044080,0.001000,0.001000,0.001000,0.001000,0.001000
1005.423077,0.044683,0.001000,0.001000,0.001000,0.001000,0.001000
1005.442308,0.045255,0.001000,0.001000,0.001000,0.001000,0.001000
1005.461538,0.045797,0.001000,0.001000,0.001000,0.001000,0.001000
1005.480769,0.046307,0.001000,0.001000,0.001000,0.001000,0.001000
1005.500000,0.046785,0.001000,0.001000,0.001000,0.001000,0.001000
1005.519231,0.047231,0.001000,0.001000,0.001000,0.001000,0.001000
1005.538462,0.047645,0.001000,0.001000,0.001000,0.001000,0.001000
1005.557692,0.048026,0.001000,0.001000,0.001000,0.001000,0.001000
1005.576923,0.048374,0.001000,0.001000,0.001000,0.001000,0.001000
1005.596154,0.048688,0.001000,0.001000,0.001000,0.001000,0.001000
1005.615385,0.048970,0.001000,0.001000,0.001000,0.001000,0.001000
1005.634615,0.049217,0.001000,0.001000,0.001000,0.001000,0.001000
1005.653846,0.049431,0.001000,0.001000,0.001000,0.001000,0.001000
1005.673077,0.049611,0.001000,0.001000,0.001000,0.001000,0.001000
1005.692308,0.049757,0.001000,0.001000,0.001000,0.001000,0.001000
1005.711538,0.049869,0.001000,0.001000,0.001000,0.001000,0.001000
1005.730769,0.049947,0.001000,0.001000,0.001000,0.001000,0.001000
1005.750000,0.049990,0.001000,0.001000,0.001000,0.001000,0.001000
1005.769231,0.049999,0.001000,0.001000,0.001000,0.001000,0.001000
1005.788462,0.049974,0.001000,0.001000,0.001000,0.001000,0.001000
1005.807692,0.049914,0.001000,0.001000,0.001000,0.001000,0.001000
1005.826923,0.049820,0.001000,0.001000,0.001000,0.001000,0.001000
1005.846154,0.049692,0.001000,0.001000,0.001000,0.001000,0.001000
1005.865385,0.049530,0.001000,0.001000,0.001000,0.001000,0.001000
1005.884615,0.049334,0.001000,0.001000,0.001000,0.001000,0.001000
1005.903846,0.049104,0.001000,0.001000,0.001000,0.001000,0.001000
1005.923077,0.048840,0.001000,0.001000,0.001000,0.001000,0.001000
1005.942308,0.048542,0.001000,0.001000,0.001000,0.001000,0.001000
1005.961538,0.048212,0.001000,0.001000,0.001000,0.001000,0.001000
1005.980769,0.047848,0.001000,0.001000,0.001000,0.001000,0.001000
1006.000000,0.047451,0.001000,0.001000,0.001000,0.001000,0.001000
1006.019231,0.047022,0.001000,0.001000,0.001000,0.001000,0.001000
1006.038462,0.046561,0.001000,0.001000,0.001000,0.001000,0.001000
1006.057692,0.046068,0.001000,0.001000,0.001000,0.001000,0.001000
1006.076923,0.045543,0.001000,0.001000,0.001000,0.001000,0.001000
1006.096154,0.044986,0.001000,0.001000,0.001000,0.001000,0.001000
1006.115385,0.044399,0.001000,0.001000,0.001000,0.001000,0.001000
1006.134615,0.043781,0.001000,0.001000,0.001000,0.001000,0.001000
1006.153846,0.043134,0.001000,0.001000,0.001000,0.001000,0.001000
1006.173077,0.042456,0.001000,0.001000,0.001000,0.001000,0.001000
1006.192308,0.041750,0.001000,0.001000,0.001000,0.001000,0.001000
1006.211538,0.041015,0.001000,0.001000,0.001000,0.001000,0.001000
1006.230769,0.040252,0.001000,0.001000,0.001000,0.001000,0.001000
1006.250000,0.039461,0.001000,0.001000,0.001000,0.001000,0.001000
1006.269231,0.038643,0.001000,0.001000,0.001000,0.001000,0.001000
1006.288462,0.037798,0.001000,0.001000,0.001000,0.001000,0.001000
1006.307692,0.036928,0.001000,0.001000,0.001000,0.001000,0.001000
1006.326923,0.036032,0.001000,0.001000,0.001000,0.001000,0.001000
1006.346154,0.035112,0.001000,0.001000,0.001000,0.001000,0.001000
1006.365385,0.034167,0.001000,0.001000,0.001000,0.001000,0.001000
1006.384615,0.033199,0.001000,0.001000,0.001000,0.001000,0.001000
1006.403846,0.032208,0.001000,0.001000,0.001000,0.001000,0.001000
1006.423077,0.031195,0.001000,0.001000,0.001000,0.001000,0.001000
1006.442308,0.030161,0.001000,0.001000,0.001000,0.001000,0.001000
1006.461538,0.029106,0.001000,0.001000,0.001000,0.001000,0.001000
1006.480769,0.028031,0.001000,0.001000,0.001000,0.001000,0.001000
1006.500000,0.026936,0.001000,0.001000,0.001000,0.001000,0.001000
1006.519231,0.025823,0.001000,0.001000,0.001000,0.001000,0.001000
1006.538462,0.024693,0.001000,0.001000,0.001000,0.001000,0.001000
1006.557692,0.023545,0.001000,0.001000,0.001000,0.001000,0.001000
1006.576923,0.022382,0.001000,0.001000,0.001000,0.001000,0.001000
1006.596154,0.021203,0.001000,0.001000,0.001000,0.001000,0.001000
1006.615385,0.020009,0.001000,0.001000,0.001000,0.001000,0.001000
1006.634615,0.018802,0.001000,0.001000,0.001000,0.001000,0.001000
1006.653846,0.017582,0.001000,0.001000,0.001000,0.001000,0.001000
1006.673077,0.016349,0.001000,0.001000,0.001000,0.001000,0.001000
1006.692308,0.015106,0.001000,0.001000,0.001000,0.001000,0.001000
1006.711538,0.013852,0.001000,0.001000,0.001000,0.001000,0.001000
1006.730769,0.012589,0.001000,0.001000,0.001000,0.001000,0.001000
1006.750000,0.011317,0.001000,0.001000,0.001000,0.001000,0.001000
1006.769231,0.010037,0.001000,0.001000,0.001000,0.001000,0.001000
1006.788462,0.008750,0.001000,0.001000,0.001000,0.001000,0.001000
1006.807692,0.007458,0.001000,0.001000,0.001000,0.001000,0.001000
1006.826923,0.006160,0.001000,0.001000,0.001000,0.001000,0.001000
1006.846154,0.004858,0.001000,0.001000,0.001000,0.001000,0.001000
1006.865385,0.003552,0.001000,0.001000,0.001000,0.001000,0.001000
1006.884615,0.002245,0.001000,0.001000,0.001000,0.001000,0.001000
1006.903846,0.000935,0.001000,0.001000,0.001000,0.001000,0.001000
1006.923077,-0.000375,0.001000,0.001000,0.001000,0.001000,0.001000
1006.942308,-0.001684,0.001000,0.001000,0.001000,0.001000,0.001000
1006.961538,-0.002993,0.001000,0.001000,0.001000,0.001000,0.001000
1006.980769,-0.004300,0.001000,0.001000,0.001000,0.001000,0.001000
1007.000000,-0.005603,0.001000,0.001000,0.001000,0.001000,0.001000
1007.019231,-0.006903,0.001000,0.001000,0.001000,0.001000,0.001000
1007.038462,-0.008198,0.001000,0.001000,0.001000,0.001000,0.001000
1007.057692,-0.009487,0.001000,0.001000,0.001000,0.001000,0.001000
1007.076923,-0.010770,0.001000,0.001000,0.001000,0.001000,0.001000
1007.096154,-0.012045,0.001000,0.001000,0.001000,0.001000,0.001000
1007.115385,-0.013313,0.001000,0.001000,0.001000,0.001000,0.001000
1007.134615,-0.014571,0.001000,0.001000,0.001000,0.001000,0.001000
1007.153846,-0.015819,0.001000,0.001000,0.001000,0.001000,0.001000
1007.173077,-0.017056,0.001000,0.001000,0.001000,0.001000,0.001000
1007.192308,-0.018281,0.001000,0.001000,0.001000,0.001000,0.001000
1007.211538,-0.019494,0.001000,0.001000,0.001000,0.001000,0.001000
1007.230769,-0.020694,0.001000,0.001000,0.001000,0.001000,0.001000
1007.250000,-0.021879,0.001000,0.001000,0.001000,0.001000,0.001000
1007.269231,-0.023049,0.001000,0.001000,0.001000,0.001000,0.001000
1007.288462,-0.024204,0.001000,0.001000,0.001000,0.001000,0.001000
1007.307692,-0.025342,0.001000,0.001000,0.001000,0.001000,0.001000
1007.326923,-0.026462,0.001000,0.001000,0.001000,0.001000,0.001000
1007.346154,-0.027565,0.001000,0.001000,0.001000,0.001000,0.001000
1007.365385,-0.028648,0.001000,0.001000,0.001000,0.001000,0.001000
1007.384615,-0.029712,0.001000,0.001000,0.001000,0.001000,0.001000
1007.403846,-0.030755,0.001000,0.001000,0.001000,0.001000,0.001000
1007.423077,-0.031777,0.001000,0.001000,0.001000,0.001000,0.001000
1007.442308,-0.032778,0.001000,0.001000,0.001000,0.001000,0.001000
1007.461538,-0.033756,0.001000,0.001000,0.001000,0.001000,0.001000
1007.480769,-0.034710,0.001000,0.001000,0.001000,0.001000,0.001000
1007.500000,-0.035641,0.001000,0.001000,0.001000,0.001000,0.001000
1007.519231,-0.036548,0.001000,0.001000,0.001000,0.001000,0.001000
1007.538462,-0.037429,0.001000,0.001000,0.001000,0.001000,0.001000
1007.557692,-0.038285,0.001000,0.001000,0.001000,0.001000,0.001000
1007.576923,-0.039114,0.001000,0.001000,0.001000,0.001000,0.001000
1007.596154,-0.039917,0.001000,0.001000,0.001000,0.001000,0.001000
1007.615385,-0.040692,0.001000,0.001000,0.001000,0.001000,0.001000
1007.634615,-0.041439,0.001000,0.001000,0.001000,0.001000,0.001000
1007.653846,-0.042158,0.001000,0.001000,0.001000,0.001000,0.001000
1007.673077,-0.042848,0.001000,0.001000,0.001000,0.001000,0.001000
1007.692308,-0.043508,0.001000,0.001000,0.001000,0.001000,0.001000
1007.711538,-0.044138,0.001000,0.001000,0.001000,0.001000,0.001000
1007.730769,-0.044739,0.001000,0.001000,0.001000,0.001000,0.001000
1007.750000,-0.045308,0.001000,0.001000,0.001000,0.001000,0.001000
1007.769231,-0.045847,0.001000,0.001000,0.001000,0.001000,0.001000
1007.788462,-0.046354,0.001000,0.001000,0.001000,0.001000,0.001000
1007.807692,-0.046829,0.001000,0.001000,0.001000,0.001000,0.001000
1007.826923,-0.047272,0.001000,0.001000,0.001000,0.001000,0.001000
1007.846154,-0.047682,0.001000,0.001000,0.001000,0.001000,0.001000
1007.865385,-0.048060,0.001000,0.001000,0.001000,0.001000,0.001000
1007.884615,-0.048405,0.001000,0.001000,0.001000,0.001000,0.001000
1007.903846,-0.048717,0.001000,0.001000,0.001000,0.001000,0.001000
1007.923077,-0.048995,0.001000,0.001000,0.001000,0.001000,0.001000
1007.942308,-0.049239,0.001000,0.001000,0.001000,0.001000,0.001000
1007.961538,-0.049450,0.001000,0.001000,0.001000,0.001000,0.001000
1007.980769,-0.049627,0.001000,0.001000,0.001000,0.001000,0.001000
1008.000000,-0.049769,0.001000,0.001000,0.001000,0.001000,0.001000
1008.019231,-0.049878,0.001000,0.001000,0.001000,0.001000,0.001000
1008.038462,-0.049952,0.001000,0.001000,0.001000,0.001000,0.001000
1008.057692,-0.049992,0.001000,0.001000,0.001000,0.001000,0.001000
1008.076923,-0.049998,0.001000,0.001000,0.001000,0.001000,0.001000
1008.096154,-0.049969,0.001000,0.001000,0.001000,0.001000,0.001000
1008.115385,-0.049907,0.001000,0.001000,0.001000,0.001000,0.001000
1008.134615,-0.049809,0.001000,0.001000,0.001000,0.001000,0.001000
1008.153846,-0.049678,0.001000,0.001000,0.001000,0.001000,0.001000
1008.173077,-0.049513,0.001000,0.001000,0.001000,0.001000,0.001000
1008.192308,-0.049313,0.001000,0.001000,0.001000,0.001000,0.001000
1008.211538,-0.049080,0.001000,0.001000,0.001000,0.001000,0.001000
1008.230769,-0.048813,0.001000,0.001000,0.001000,0.001000,0.001000
1008.250000,-0.048512,0.001000,0.001000,0.001000,0.001000,0.001000
1008.269231,-0.048179,0.001000,0.001000,0.001000,0.001000,0.001000
1008.288462,-0.047812,0.001000,0.001000,0.001000,0.001000,0.001000
1008.307692,-0.047412,0.001000,0.001000,0.001000,0.001000,0.001000
1008.326923,-0.046980,0.001000,0.001000,0.001000,0.001000,0.001000
1008.346154,-0.046515,0.001000,0.001000,0.001000,0.001000,0.001000
1008.365385,-0.046019,0.001000,0.001000,0.001000,0.001000,0.001000
1008.384615,-0.045491,0.001000,0.001000,0.001000,0.001000,0.001000
1008.403846,-0.044932,0.001000,0.001000,0.001000,0.001000,0.001000
1008.423077,-0.044342,0.001000,0.001000,0.001000,0.001000,0.001000
1008.442308,-0.043721,0.001000,0.001000,0.001000,0.001000,0.001000
1008.461538,-0.043070,0.001000,0.001000,0.001000,0.001000,0.001000
1008.480769,-0.042390,0.001000,0.001000,0.001000,0.001000,0.001000
1008.500000,-0.041681,0.001000,0.001000,0.001000,0.001000,0.001000
1008.519231,-0.040943,0.001000,0.001000,0.001000,0.001000,0.001000
1008.538462,-0.040177,0.001000,0.001000,0.001000,0.001000,0.001000
1008.557692,-0.039384,0.001000,0.001000,0.001000,0.001000,0.001000
1008.576923,-0.038563,0.001000,0.001000,0.001000,0.001000,0.001000
1008.596154,-0.037716,0.001000,0.001000,0.001000,0.001000,0.001000
1008.615385,-0.036844,0.001000,0.001000,0.001000,0.001000,0.001000
1008.634615,-0.035945,0.001000,0.001000,0.001000,0.001000,0.001000
1008.653846,-0.035023,0.001000,0.001000,0.001000,0.001000,0.001000
1008.673077,-0.034076,0.001000,0.001000,0.001000,0.001000,0.001000
1008.692308,-0.033105,0.001000,0.001000,0.001000,0.001000,0.001000
1008.711538,-0.032112,0.001000,0.001000,0.001000,0.001000,0.001000
1008.730769,-0.031097,0.001000,0.001000,0.001000,0.001000,0.001000
1008.750000,-0.030061,0.001000,0.001000,0.001000,0.001000,0.001000
1008.769231,-0.029004,0.001000,0.001000,0.001000,0.001000,0.001000
1008.788462,-0.027927,0.001000,0.001000,0.001000,0.001000,0.001000
1008.807692,-0.026831,0.001000,0.001000,0.001000,0.001000,0.001000
1008.826923,-0.025716,0.001000,0.001000,0.001000,0.001000,0.001000
1008.846154,-0.024584,0.001000,0.001000,0.001000,0.001000,0.001000
1008.865385,-0.023435,0.001000,0.001000,0.001000,0.001000,0.001000
1008.884615,-0.022270,0.001000,0.001000,0.001000,0.001000,0.001000
1008.903846,-0.021090,0.001000,0.001000,0.001000,0.001000,0.001000
1008.923077,-0.019895,0.001000,0.001000,0.001000,0.001000,0.001000
1008.942308,-0.018686,0.001000,0.001000,0.001000,0.001000,0.001000
1008.961538,-0.017465,0.001000,0.001000,0.001000,0.001000,0.001000
1008.980769,-0.016231,0.001000,0.001000,0.001000,0.001000,0.001000
1009.000000,-0.014987,0.001000,0.001000,0.001000,0.001000,0.001000
1009.019231,-0.013732,0.001000,0.001000,0.001000,0.001000,0.001000
1009.038462,-0.012468,0.001000,0.001000,0.001000,0.001000,0.001000
1009.057692,-0.011195,0.001000,0.001000,0.001000,0.001000,0.001000
1009.076923,-0.009915,0.001000,0.001000,0.001000,0.001000,0.001000
1009.096154,-0.008627,0.001000,0.001000,0.001000,0.001000,0.001000
1009.115385,-0.007334,0.001000,0.001000,0.001000,0.001000,0.001000
1009.134615,-0.006036,0.001000,0.001000,0.001000,0.001000,0.001000
1009.153846,-0.004733,0.001000,0.001000,0.001000,0.001000,0.001000
1009.173077,-0.003428,0.001000,0.001000,0.001000,0.001000,0.001000
1009.192308,-0.002120,0.001000,0.001000,0.001000,0.001000,0.001000
1009.211538,-0.000810,0.001000,0.001000,0.001000,0.001000,0.001000
1009.230769,0.000500,0.001000,0.001000,0.001000,0.001000,0.001000
1009.250000,0.001809,0.001000,0.001000,0.001000,0.001000,0.001000
1009.269231,0.003118,0.001000,0.001000,0.001000,0.001000,0.001000
1009.288462,0.004424,0.001000,0.001000,0.001000,0.001000,0.001000
1009.307692,0.005727,0.001000,0.001000,0.001000,0.001000,0.001000
1009.326923,0.007026,0.001000,0.001000,0.001000,0.001000,0.001000
1009.346154,0.008321,0.001000,0.001000,0.001000,0.001000,0.001000
1009.365385,0.009610,0.001000,0.001000,0.001000,0.001000,0.001000
1009.384615,0.010892,0.001000,0.001000,0.001000,0.001000,0.001000
1009.403846,0.012167,0.001000,0.001000,0.001000,0.001000,0.001000
1009.423077,0.013433,0.001000,0.001000,0.001000,0.001000,0.001000
1009.442308,0.014690,0.001000,0.001000,0.001000,0.001000,0.001000
1009.461538,0.015937,0.001000,0.001000,0.001000,0.001000,0.001000
1009.480769,0.017173,0.001000,0.001000,0.001000,0.001000,0.001000
1009.500000,0.018397,0.001000,0.001000,0.001000,0.001000,0.001000
1009.519231,0.019609,0.001000,0.001000,0.001000,0.001000,0.001000
1009.538462,0.020807,0.001000,0.001000,0.001000,0.001000,0.001000
1009.557692,0.021991,0.001000,0.001000,0.001000,0.001000,0.001000
1009.576923,0.023160,0.001000,0.001000,0.001000,0.001000,0.001000
1009.596154,0.024313,0.001000,0.001000,0.001000,0.001000,0.001000
1009.615385,0.025449,0.001000,0.001000,0.001000,0.001000,0.001000
1009.634615,0.026568,0.001000,0.001000,0.001000,0.001000,0.001000
1009.653846,0.027669,0.001000,0.001000,0.001000,0.001000,0.001000
1009.673077,0.028750,0.001000,0.001000,0.001000,0.001000,0.001000
1009.692308,0.029812,0.001000,0.001000,0.001000,0.001000,0.001000
1009.711538,0.030853,0.001000,0.001000,0.001000,0.001000,0.001000
1009.730769,0.031874,0.001000,0.001000,0.001000,0.001000,0.001000
1009.750000,0.032872,0.001000,0.001000,0.001000,0.001000,0.001000
1009.769231,0.033848,0.001000,0.001000,0.001000,0.001000,0.001000
1009.788462,0.034800,0.001000,0.001000,0.001000,0.001000,0.001000
1009.807692,0.035729,0.001000,0.001000,0.001000,0.001000,0.001000
1009.826923,0.036633,0.001000,0.001000,0.001000,0.001000,0.001000
1009.846154,0.037512,0.001000,0.001000,0.001000,0.001000,0.001000
1009.865385,0.038365,0.001000,0.001000,0.001000,0.001000,0.001000
1009.884615,0.039192,0.001000,0.001000,0.001000,0.001000,0.001000
1009.903846,0.039992,0.001000,0.001000,0.001000,0.001000,0.001000
1009.923077,0.040764,0.001000,0.001000,0.001000,0.001000,0.001000
1009.942308,0.041509,0.001000,0.001000,0.001000,0.001000,0.001000
1009.961538,0.042225,0.001000,0.001000,0.001000,0.001000,0.001000
1009.980769,0.042912,0.001000,0.001000,0.001000,0.001000,0.001000
1010.000000,0.043569,0.001000,0.001000,0.001000,0.001000,0.001000
1010.019231,0.044197,0.001000,0.001000,0.001000,0.001000,0.001000
1010.038462,0.044794,0.001000,0.001000,0.001000,0.001000,0.001000
1010.057692,0.045361,0.001000,0.001000,0.001000,0.001000,0.001000
1010.076923,0.045896,0.001000,0.001000,0.001000,0.001000,0.001000
1010.096154,0.046400,0.001000,0.001000,0.001000,0.001000,0.001000
1010.115385,0.046872,0.001000,0.001000,0.001000,0.001000,0.001000
1010.134615,0.047312,0.001000,0.001000,0.001000,0.001000,0.001000
1010.153846,0.047720,0.001000,0.001000,0.001000,0.001000,0.001000
1010.173077,0.048094,0.001000,0.001000,0.001000,0.001000,0.001000
1010.192308,0.048436,0.001000,0.001000,0.001000,0.001000,0.001000
1010.211538,0.048745,0.001000,0.001000,0.001000,0.001000,0.001000
1010.230769,0.049020,0.001000,0.001000,0.001000,0.001000,0.001000
1010.250000,0.049261,0.001000,0.001000,0.001000,0.001000,0.001000
1010.269231,0.049468,0.001000,0.001000,0.001000,0.001000,0.001000
1010.288462,0.049642,0.001000,0.001000,0.001000,0.001000,0.001000
1010.307692,0.049781,0.001000,0.001000,0.001000,0.001000,0.001000
1010.326923,0.049887,0.001000,0.001000,0.001000,0.001000,0.001000
1010.346154,0.049958,0.001000,0.001000,0.001000,0.001000,0.001000
1010.365385,0.049994,0.001000,0.001000,0.001000,0.001000,0.001000
1010.384615,0.049997,0.001000,0.001000,0.001000,0.001000,0.001000
1010.403846,0.049965,0.001000,0.001000,0.001000,0.001000,0.001000
1010.423077,0.049899,0.001000,0.001000,0.001000,0.001000,0.001000
1010.442308,0.049798,0.001000,0.001000,0.001000,0.001000,0.001000
1010.461538,0.049664,0.001000,0.001000,0.001000,0.001000,0.001000
1010.480769,0.049495,0.001000,0.001000,0.001000,0.001000,0.001000
1010.500000,0.049292,0.001000,0.001000,0.001000,0.001000,0.001000
1010.519231,0.049056,0.001000,0.001000,0.001000,0.001000,0.001000
1010.538462,0.048786,0.001000,0.001000,0.001000,0.001000,0.001000
1010.557692,0.048482,0.001000,0.001000,0.001000,0.001000,0.001000
1010.576923,0.048145,0.001000,0.001000,0.001000,0.001000,0.001000
1010.596154,0.047775,0.001000,0.001000,0.001000,0.001000,0.001000
1010.615385,0.047372,0.001000,0.001000,0.001000,0.001000,0.001000
1010.634615,0.046937,0.001000,0.001000,0.001000,0.001000,0.001000
1010.653846,0.046469,0.001000,0.001000,0.001000,0.001000,0.001000
1010.673077,0.045970,0.001000,0.001000,0.001000,0.001000,0.001000
1010.692308,0.045439,0.001000,0.001000,0.001000,0.001000,0.001000
1010.711538,0.044877,0.001000,0.001000,0.001000,0.001000,0.001000
1010.730769,0.044284,0.001000,0.001000,0.001000,0.001000,0.001000
1010.750000,0.043660,0.001000,0.001000,0.001000,0.001000,0.001000
1010.769231,0.043007,0.001000,0.001000,0.001000,0.001000,0.001000
1010.788462,0.042324,0.001000,0.001000,0.001000,0.001000,0.001000
1010.807692,0.041612,0.001000,0.001000,0.001000,0.001000,0.001000
1010.826923,0.040872,0.001000,0.001000,0.001000,0.001000,0.001000
1010.846154,0.040103,0.001000,0.001000,0.001000,0.001000,0.001000
1010.865385,0.039307,0.001000,0.001000,0.001000,0.001000,0.001000
1010.884615,0.038484,0.001000,0.001000,0.001000,0.001000,0.001000
1010.903846,0.037634,0.001000,0.001000,0.001000,0.001000,0.001000
1010.923077,0.036759,0.001000,0.001000,0.001000,0.001000,0.001000
1010.942308,0.035859,0.001000,0.001000,0.001000,0.001000,0.001000
1010.961538,0.034933,0.001000,0.001000,0.001000,0.001000,0.001000
1010.980769,0.033984,0.001000,0.001000,0.001000,0.001000,0.001000
1011.000000,0.033012,0.001000,0.001000,0.001000,0.001000,0.001000
1011.019231,0.032017,0.001000,0.001000,0.001000,0.001000,0.001000
1011.038462,0.030999,0.001000,0.001000,0.001000,0.001000,0.001000
1011.057692,0.029961,0.001000,0.001000,0.001000,0.001000,0.001000
1011.076923,0.028902,0.001000,0.001000,0.001000,0.001000,0.001000
1011.096154,0.027823,0.001000,0.001000,0.001000,0.001000,0.001000
1011.115385,0.026725,0.001000,0.001000,0.001000,0.001000,0.001000
1011.134615,0.025609,0.001000,0.001000,0.001000,0.001000,0.001000
1011.153846,0.024475,0.001000,0.001000,0.001000,0.001000,0.001000
1011.173077,0.023325,0.001000,0.001000,0.001000,0.001000,0.001000
1011.192308,0.022158,0.001000,0.001000,0.001000,0.001000,0.001000
1011.211538,0.020976,0.001000,0.001000,0.001000,0.001000,0.001000
1011.230769,0.019780,0.001000,0.001000,0.001000,0.001000,0.001000
1011.250000,0.018570,0.001000,0.001000,0.001000,0.001000,0.001000
1011.269231,0.017348,0.001000,0.001000,0.001000,0.001000,0.001000
1011.288462,0.016113,0.001000,0.001000,0.001000,0.001000,0.001000
1011.307692,0.014868,0.001000,0.001000,0.001000,0.001000,0.001000
1011.326923,0.013612,0.001000,0.001000,0.001000,0.001000,0.001000
1011.346154,0.012347,0.001000,0.001000,0.001000,0.001000,0.001000
1011.365385,0.011073,0.001000,0.001000,0.001000,0.001000,0.001000
1011.384615,0.009792,0.001000,0.001000,0.001000,0.001000,0.001000
1011.403846,0.008504,0.001000,0.001000,0.001000,0.001000,0.001000
1011.423077,0.007210,0.001000,0.001000,0.001000,0.001000,0.001000
1011.442308,0.005912,0.001000,0.001000,0.001000,0.001000,0.001000
1011.461538,0.004609,0.001000,0.001000,0.001000,0.001000,0.001000
1011.480769,0.003303,0.001000,0.001000,0.001000,0.001000,0.001000
1011.500000,0.001995,0.001000,0.001000,0.001000,0.001000,0.001000
1011.519231,0.000686,0.001000,0.001000,0.001000,0.001000,0.001000
1011.538462,-0.000624,0.001000,0.001000,0.001000,0.001000,0.001000
1011.557692,-0.001934,0.001000,0.001000,0.001000,0.001000,0.001000
1011.576923,-0.003242,0.001000,0.001000,0.001000,0.001000,0.001000
1011.596154,-0.004548,0.001000,0.001000,0.001000,0.001000,0.001000
1011.615385,-0.005851,0.001000,0.001000,0.001000,0.001000,0.001000
1011.634615,-0.007150,0.001000,0.001000,0.001000,0.001000,0.001000
1011.653846,-0.008444,0.001000,0.001000,0.001000,0.001000,0.001000
1011.673077,-0.009732,0.001000,0.001000,0.001000,0.001000,0.001000
1011.692308,-0.011014,0.001000,0.001000,0.001000,0.001000,0.001000
1011.711538,-0.012288,0.001000,0.001000,0.001000,0.001000,0.001000
1011.730769,-0.013553,0.001000,0.001000,0.001000,0.001000,0.001000
1011.750000,-0.014809,0.001000,0.001000,0.001000,0.001000,0.001000
1011.769231,-0.016055,0.001000,0.001000,0.001000,0.001000,0.001000
1011.788462,-0.017290,0.001000,0.001000,0.001000,0.001000,0.001000
1011.807692,-0.018514,0.001000,0.001000,0.001000,0.001000,0.001000
1011.826923,-0.019724,0.001000,0.001000,0.001000,0.001000,0.001000
1011.846154,-0.020921,0.001000,0.001000,0.001000,0.001000,0.001000
1011.865385,-0.022103,0.001000,0.001000,0.001000,0.001000,0.001000
1011.884615,-0.023271,0.001000,0.001000,0.001000,0.001000,0.001000
1011.903846,-0.024422,0.001000,0.001000,0.001000,0.001000,0.001000
1011.923077,-0.025557,0.001000,0.001000,0.001000,0.001000,0.001000
1011.942308,-0.026674,0.001000,0.001000,0.001000,0.001000,0.001000
1011.961538,-0.027773,0.001000,0.001000,0.001000,0.001000,0.001000
1011.980769,-0.028852,0.001000,0.001000,0.001000,0.001000,0.001000
1012.000000,-0.029912,0.001000,0.001000,0.001000,0.001000,0.001000
1012.019231,-0.030952,0.001000,0.001000,0.001000,0.001000,0.001000
1012.038462,-0.031970,0.001000,0.001000,0.001000,0.001000,0.001000
1012.057692,-0.032966,0.001000,0.001000,0.001000,0.001000,0.001000
1012.076923,-0.033939,0.001000,0.001000,0.001000,0.001000,0.001000
1012.096154,-0.034890,0.001000,0.001000,0.001000,0.001000,0.001000
1012.115385,-0.035816,0.001000,0.001000,0.001000,0.001000,0.001000
1012.134615,-0.036718,0.001000,0.001000,0.001000,0.001000,0.001000
1012.153846,-0.037594,0.001000,0.001000,0.001000,0.001000,0.001000
1012.173077,-0.038445,0.001000,0.001000,0.001000,0.001000,0.001000
1012.192308,-0.039269,0.001000,0.001000,0.001000,0.001000,0.001000
1012.211538,-0.040067,0.001000,0.001000,0.001000,0.001000,0.001000
1012.230769,-0.040836,0.001000,0.001000,0.001000,0.001000,0.001000
1012.250000,-0.041578,0.001000,0.001000,0.001000,0.001000,0.001000
1012.269231,-0.042291,0.001000,0.001000,0.001000,0.001000,0.001000
1012.288462,-0.042976,0.001000,0.001000,0.001000,0.001000,0.001000
1012.307692,-0.043630,0.001000,0.001000,0.001000,0.001000,0.001000
1012.326923,-0.044255,0.001000,0.001000,0.001000,0.001000,0.001000
1012.346154,-0.044850,0.001000,0.001000,0.001000,0.001000,0.001000
1012.365385,-0.045413,0.001000,0.001000,0.001000,0.001000,0.001000
1012.384615,-0.045946,0.001000,0.001000,0.001000,0.001000,0.001000
1012.403846,-0.046447,0.001000,0.001000,0.001000,0.001000,0.001000
1012.423077,-0.046916,0.001000,0.001000,0.001000,0.001000,0.001000
1012.442308,-0.047353,0.001000,0.001000,0.001000,0.001000,0.001000
1012.461538,-0.047757,0.001000,0.001000,0.001000,0.001000,0.001000
1012.480769,-0.048128,0.001000,0.001000,0.001000,0.001000,0.001000
1012.500000,-0.048467,0.001000,0.001000,0.001000,0.001000,0.001000
1012.519231,-0.048772,0.001000,0.001000,0.001000,0.001000,0.001000
1012.538462,-0.049044,0.001000,0.001000,0.001000,0.001000,0.001000
1012.557692,-0.049282,0.001000,0.001000,0.001000,0.001000,0.001000
1012.576923,-0.049486,0.001000,0.001000,0.001000,0.001000,0.001000
1012.596154,-0.049657,0.001000,0.001000,0.001000,0.001000,0.001000
1012.615385,-0.049793,0.001000,0.001000,0.001000,0.001000,0.001000
1012.634615,-0.049895,0.001000,0.001000,0.001000,0.001000,0.001000
1012.653846,-0.049963,0.001000,0.001000,0.001000,0.001000,0.001000
1012.673077,-0.049996,0.001000,0.001000,0.001000,0.001000,0.001000
1012.692308,-0.049995,0.001000,0.001000,0.001000,0.001000,0.001000
1012.711538,-0.049960,0.001000,0.001000,0.001000,0.001000,0.001000
1012.730769,-0.049891,0.001000,0.001000,0.001000,0.001000,0.001000
1012.750000,-0.049787,0.001000,0.001000,0.001000,0.001000,0.001000
1012.769231,-0.049649,0.001000,0.001000,0.001000,0.001000,0.001000
1012.788462,-0.049477,0.001000,0.001000,0.001000,0.001000,0.001000
1012.807692,-0.049271,0.001000,0.001000,0.001000,0.001000,0.001000
1012.826923,-0.049031,0.001000,0.001000,0.001000,0.001000,0.001000
1012.846154,-0.048758,0.001000,0.001000,0.001000,0.001000,0.001000
1012.865385,-0.048451,0.001000,0.001000,0.001000,0.001000,0.001000
1012.884615,-0.048111,0.001000,0.001000,0.001000,0.001000,0.001000
1012.903846,-0.047738,0.001000,0.001000,0.001000,0.001000,0.001000
1012.923077,-0.047332,0.001000,0.001000,0.001000,0.001000,0.001000
1012.942308,-0.046894,0.001000,0.001000,0.001000,0.001000,0.001000
1012.961538,-0.046423,0.001000,0.001000,0.001000,0.001000,0.001000
1012.980769,-0.045921,0.001000,0.001000,0.001000,0.001000,0.001000
1013.000000,-0.045387,0.001000,0.001000,0.001000,0.001000,0.001000
1013.019231,-0.044821,0.001000,0.001000,0.001000,0.001000,0.001000
1013.038462,-0.044226,0.001000,0.001000,0.001000,0.001000,0.001000
1013.057692,-0.043599,0.001000,0.001000,0.001000,0.001000,0.001000
1013.076923,-0.042943,0.001000,0.001000,0.001000,0.001000,0.001000
1013.096154,-0.042257,0.001000,0.001000,0.001000,0.001000,0.001000
1013.115385,-0.041543,0.001000,0.001000,0.001000,0.001000,0.001000
1013.134615,-0.040799,0.001000,0.001000,0.001000,0.001000,0.001000
1013.153846,-0.040028,0.001000,0.001000,0.001000,0.001000,0.001000
1013.173077,-0.039230,0.001000,0.001000,0.001000,0.001000,0.001000
1013.192308,-0.038404,0.001000,0.001000,0.001000,0.001000,0.001000
1013.211538,-0.037552,0.001000,0.001000,0.001000,0.001000,0.001000
1013.230769,-0.036674,0.001000,0.001000,0.001000,0.001000,0.001000
1013.250000,-0.035771,0.001000,0.001000,0.001000,0.001000,0.001000
1013.269231,-0.034844,0.001000,0.001000,0.001000,0.001000,0.001000
1013.288462,-0.033892,0.001000,0.001000,0.001000,0.001000,0.001000
1013.307692,-0.032918,0.001000,0.001000,0.001000,0.001000,0.001000
1013.326923,-0.031921,0.001000,0.001000,0.001000,0.001000,0.001000
1013.346154,-0.030901,0.001000,0.001000,0.001000,0.001000,0.001000
1013.365385,-0.029861,0.001000,0.001000,0.001000,0.001000,0.001000
1013.384615,-0.028800,0.001000,0.001000,0.001000,0.001000,0.001000
1013.403846,-0.027719,0.001000,0.001000,0.001000,0.001000,0.001000
1013.423077,-0.026620,0.001000,0.001000,0.001000,0.001000,0.001000
1013.442308,-0.025502,0.001000,0.001000,0.001000,0.001000,0.001000
1013.461538,-0.024366,0.001000,0.001000,0.001000,0.001000,0.001000
1013.480769,-0.023214,0.001000,0.001000,0.001000,0.001000,0.001000
1013.500000,-0.022046,0.001000,0.001000,0.001000,0.001000,0.001000
1013.519231,-0.020863,0.001000,0.001000,0.001000,0.001000,0.001000
1013.538462,-0.019665,0.001000,0.001000,0.001000,0.001000,0.001000
1013.557692,-0.018454,0.001000,0.001000,0.001000,0.001000,0.001000
1013.576923,-0.017230,0.001000,0.001000,0.001000,0.001000,0.001000
1013.596154,-0.015995,0.001000,0.001000,0.001000,0.001000,0.001000
1013.615385,-0.014748,0.001000,0.001000,0.001000,0.001000,0.001000
1013.634615,-0.013492,0.001000,0.001000,0.001000,0.001000,0.001000
1013.653846,-0.012226,0.001000,0.001000,0.001000,0.001000,0.001000
1013.673077,-0.010951,0.001000,0.001000,0.001000,0.001000,0.001000
1013.692308,-0.009670,0.001000,0.001000,0.001000,0.001000,0.001000
1013.711538,-0.008381,0.001000,0.001000,0.001000,0.001000,0.001000
1013.730769,-0.007087,0.001000,0.001000,0.001000,0.001000,0.001000
1013.750000,-0.005788,0.001000,0.001000,0.001000,0.001000,0.001000
1013.769231,-0.004485,0.001000,0.001000,0.001000,0.001000,0.001000
1013.788462,-0.003179,0.001000,0.001000,0.001000,0.001000,0.001000
1013.807692,-0.001870,0.001000,0.001000,0.001000,0.001000,0.001000
1013.826923,-0.000561,0.001000,0.001000,0.001000,0.001000,0.001000
1013.846154,0.000749,0.001000,0.001000,0.001000,0.001000,0.001000
1013.865385,0.002059,0.001000,0.001000,0.001000,0.001000,0.001000
1013.884615,0.003367,0.001000,0.001000,0.001000,0.001000,0.001000
1013.903846,0.004673,0.001000,0.001000,0.001000,0.001000,0.001000
1013.923077,0.005975,0.001000,0.001000,0.001000,0.001000,0.001000
1013.942308,0.007274,0.001000,0.001000,0.001000,0.001000,0.001000
1013.961538,0.008567,0.001000,0.001000,0.001000,0.001000,0.001000
1013.980769,0.009855,0.001000,0.001000,0.001000,0.001000,0.001000
1014.000000,0.011136,0.001000,0.001000,0.001000,0.001000,0.001000
1014.019231,0.012409,0.001000,0.001000,0.001000,0.001000,0.001000
1014.038462,0.013673,0.001000,0.001000,0.001000,0.001000,0.001000
1014.057692,0.014929,0.001000,0.001000,0.001000,0.001000,0.001000
1014.076923,0.016174,0.001000,0.001000,0.001000,0.001000,0.001000
1014.096154,0.017408,0.001000,0.001000,0.001000,0.001000,0.001000
1014.115385,0.018630,0.001000,0.001000,0.001000,0.001000,0.001000
1014.134615,0.019839,0.001000,0.001000,0.001000,0.001000,0.001000
1014.153846,0.021034,0.001000,0.001000,0.001000,0.001000,0.001000
1014.173077,0.022215,0.001000,0.001000,0.001000,0.001000,0.001000
1014.192308,0.023381,0.001000,0.001000,0.001000,0.001000,0.001000
1014.211538,0.024531,0.001000,0.001000,0.001000,0.001000,0.001000
1014.230769,0.025664,0.001000,0.001000,0.001000,0.001000,0.001000
1014.250000,0.026779,0.001000,0.001000,0.001000,0.001000,0.001000
1014.269231,0.027876,0.001000,0.001000,0.001000,0.001000,0.001000
1014.288462,0.028954,0.001000,0.001000,0.001000,0.001000,0.001000
1014.307692,0.030012,0.001000,0.001000,0.001000,0.001000,0.001000
1014.326923,0.031050,0.001000,0.001000,0.001000,0.001000,0.001000
1014.346154,0.032066,0.001000,0.001000,0.001000,0.001000,0.001000
1014.365385,0.033060,0.001000,0.001000,0.001000,0.001000,0.001000
1014.384615,0.034031,0.001000,0.001000,0.001000,0.001000,0.001000
1014.403846,0.034979,0.001000,0.001000,0.001000,0.001000,0.001000
1014.423077,0.035903,0.001000,0.001000,0.001000,0.001000,0.001000
1014.442308,0.036802,0.001000,0.001000,0.001000,0.001000,0.001000
1014.461538,0.037676,0.001000,0.001000,0.001000,0.001000,0.001000
1014.480769,0.038525,0.001000,0.001000,0.001000,0.001000,0.001000
1014.500000,0.039346,0.001000,0.001000,0.001000,0.001000,0.001000
1014.519231,0.040141,0.001000,0.001000,0.001000,0.001000,0.001000
1014.538462,0.040908,0.001000,0.001000,0.001000,0.001000,0.001000
1014.557692,0.041647,0.001000,0.001000,0.001000,0.001000,0.001000
1014.576923,0.042358,0.001000,0.001000,0.001000,0.001000,0.001000
1014.596154,0.043039,0.001000,0.001000,0.001000,0.001000,0.001000
1014.615385,0.043691,0.001000,0.001000,0.001000,0.001000,0.001000
1014.634615,0.044313,0.001000,0.001000,0.001000,0.001000,0.001000
1014.653846,0.044905,0.001000,0.001000,0.001000,0.001000,0.001000
1014.673077,0.045465,0.001000,0.001000,0.001000,0.001000,0.001000
1014.692308,0.045995,0.001000,0.001000,0.001000,0.001000,0.001000
1014.711538,0.046493,0.001000,0.001000,0.001000,0.001000,0.001000
1014.730769,0.046959,0.001000,0.001000,0.001000,0.001000,0.001000
1014.750000,0.047393,0.001000,0.001000,0.001000,0.001000,0.001000
1014.769231,0.047794,0.001000,0.001000,0.001000,0.001000,0.001000
1014.788462,0.048162,0.001000,0.001000,0.001000,0.001000,0.001000
1014.807692,0.048498,0.001000,0.001000,0.001000,0.001000,0.001000
1014.826923,0.048800,0.001000,0.001000,0.001000,0.001000,0.001000
1014.846154,0.049068,0.001000,0.001000,0.001000,0.001000,0.001000
1014.865385,0.049303,0.001000,0.001000,0.001000,0.001000,0.001000
1014.884615,0.049504,0.001000,0.001000,0.001000,0.001000,0.001000
1014.903846,0.049671,0.001000,0.001000,0.001000,0.001000,0.001000
1014.923077,0.049804,0.001000,0.001000,0.001000,0.001000,0.001000
1014.942308,0.049903,0.001000,0.001000,0.001000,0.001000,0.001000
1014.961538,0.049967,0.001000,0.001000,0.001000,0.001000,0.001000
1014.980769,0.049998,0.001000,0.001000,0.001000,0.001000,0.001000
1015.000000,0.049993,0.001000,0.001000,0.001000,0.001000,0.001000
1015.019231,0.049955,0.001000,0.001000,0.001000,0.001000,0.001000
1015.038462,0.049882,0.001000,0.001000,0.001000,0.001000,0.001000
1015.057692,0.049775,0.001000,0.001000,0.001000,0.001000,0.001000
1015.076923,0.049634,0.001000,0.001000,0.001000,0.001000,0.001000
1015.096154,0.049459,0.001000,0.001000,0.001000,0.001000,0.001000
1015.115385,0.049250,0.001000,0.001000,0.001000,0.001000,0.001000
1015.134615,0.049007,0.001000,0.001000,0.001000,0.001000,0.001000
1015.153846,0.048730,0.001000,0.001000,0.001000,0.001000,0.001000
1015.173077,0.048420,0.001000,0.001000,0.001000,0.001000,0.001000
1015.192308,0.048077,0.001000,0.001000,0.001000,0.001000,0.001000
1015.211538,0.047701,0.001000,0.001000,0.001000,0.001000,0.001000
1015.230769,0.047292,0.001000,0.001000,0.001000,0.001000,0.001000
1015.250000,0.046850,0.001000,0.001000,0.001000,0.001000,0.001000
1015.269231,0.046376,0.001000,0.001000,0.001000,0.001000,0.001000
1015.288462,0.045871,0.001000,0.001000,0.001000,0.001000,0.001000
1015.307692,0.045334,0.001000,0.001000,0.001000,0.001000,0.001000
1015.326923,0.044766,0.001000,0.001000,0.001000,0.001000,0.001000
1015.346154,0.044167,0.001000,0.001000,0.001000,0.001000,0.001000
1015.365385,0.043538,0.001000,0.001000,0.001000,0.001000,0.001000
1015.384615,0.042879,0.001000,0.001000,0.001000,0.001000,0.001000
1015.403846,0.042190,0.001000,0.001000,0.001000,0.001000,0.001000
1015.423077,0.041473,0.001000,0.001000,0.001000,0.001000,0.001000
1015.442308,0.040727,0.001000,0.001000,0.001000,0.001000,0.001000
1015.461538,0.039953,0.001000,0.001000,0.001000,0.001000,0.001000
1015.480769,0.039152,0.001000,0.001000,0.001000,0.001000,0.001000
1015.500000,0.038324,0.001000,0.001000,0.001000,0.001000,0.001000
1015.519231,0.037469,0.001000,0.001000,0.001000,0.001000,0.001000
1015.538462,0.036589,0.001000,0.001000,0.001000,0.001000,0.001000
1015.557692,0.035684,0.001000,0.001000,0.001000,0.001000,0.001000
1015.576923,0.034754,0.001000,0.001000,0.001000,0.001000,0.001000
1015.596154,0.033801,0.001000,0.001000,0.001000,0.001000,0.001000
1015.615385,0.032824,0.001000,0.001000,0.001000,0.001000,0.001000
1015.634615,0.031824,0.001000,0.001000,0.001000,0.001000,0.001000
1015.653846,0.030803,0.001000,0.001000,0.001000,0.001000,0.001000
1015.673077,0.029761,0.001000,0.001000,0.001000,0.001000,0.001000
1015.692308,0.028698,0.001000,0.001000,0.001000,0.001000,0.001000
1015.711538,0.027615,0.001000,0.001000,0.001000,0.001000,0.001000
1015.730769,0.026514,0.001000,0.001000,0.001000,0.001000,0.001000
1015.750000,0.025394,0.001000,0.001000,0.001000,0.001000,0.001000
1015.769231,0.024257,0.001000,0.001000,0.001000,0.001000,0.001000
1015.788462,0.023104,0.001000,0.001000,0.001000,0.001000,0.001000
1015.807692,0.021934,0.001000,0.001000,0.001000,0.001000,0.001000
1015.826923,0.020749,0.001000,0.001000,0.001000,0.001000,0.001000
1015.846154,0.019550,0.001000,0.001000,0.001000,0.001000,0.001000
1015.865385,0.018338,0.001000,0.001000,0.001000,0.001000,0.001000
1015.884615,0.017113,0.001000,0.001000,0.001000,0.001000,0.001000
1015.903846,0.015876,0.001000,0.001000,0.001000,0.001000,0.001000
1015.923077,0.014629,0.001000,0.001000,0.001000,0.001000,0.001000
1015.942308,0.013371,0.001000,0.001000,0.001000,0.001000,0.001000
1015.961538,0.012105,0.001000,0.001000,0.001000,0.001000,0.001000
1015.980769,0.010830,0.001000,0.001000,0.001000,0.001000,0.001000
1016.000000,0.009547,0.001000,0.001000,0.001000,0.001000,0.001000
1016.019231,0.008258,0.001000,0.001000,0.001000,0.001000,0.001000
1016.038462,0.006963,0.001000,0.001000,0.001000,0.001000,0.001000
1016.057692,0.005664,0.001000,0.001000,0.001000,0.001000,0.001000
1016.076923,0.004360,0.001000,0.001000,0.001000,0.001000,0.001000
1016.096154,0.003054,0.001000,0.001000,0.001000,0.001000,0.001000
1016.115385,0.001745,0.001000,0.001000,0.001000,0.001000,0.001000
1016.134615,0.000436,0.001000,0.001000,0.001000,0.001000,0.001000
1016.153846,-0.000874,0.001000,0.001000,0.001000,0.001000,0.001000
1016.173077,-0.002184,0.001000,0.001000,0.001000,0.001000,0.001000
1016.192308,-0.003492,0.001000,0.001000,0.001000,0.001000,0.001000
1016.211538,-0.004797,0.001000,0.001000,0.001000,0.001000,0.001000
1016.230769,-0.006099,0.001000,0.001000,0.001000,0.001000,0.001000
1016.250000,-0.007397,0.001000,0.001000,0.001000,0.001000,0.001000
1016.269231,-0.008690,0.001000,0.001000,0.001000,0.001000,0.001000
1016.288462,-0.009977,0.001000,0.001000,0.001000,0.001000,0.001000
1016.307692,-0.011257,0.001000,0.001000,0.001000,0.001000,0.001000
1016.326923,-0.012530,0.001000,0.001000,0.001000,0.001000,0.001000
1016.346154,-0.013793,0.001000,0.001000,0.001000,0.001000,0.001000
1016.365385,-0.015048,0.001000,0.001000,0.001000,0.001000,0.001000
1016.384615,-0.016292,0.001000,0.001000,0.001000,0.001000,0.001000
1016.403846,-0.017525,0.001000,0.001000,0.001000,0.001000,0.001000
1016.423077,-0.018745,0.001000,0.001000,0.001000,0.001000,0.001000
1016.442308,-0.019953,0.001000,0.001000,0.001000,0.001000,0.001000
1016.461538,-0.021148,0.001000,0.001000,0.001000,0.001000,0.001000
1016.480769,-0.022327,0.001000,0.001000,0.001000,0.001000,0.001000
1016.500000,-0.023492,0.001000,0.001000,0.001000,0.001000,0.001000
1016.519231,-0.024640,0.001000,0.001000,0.001000,0.001000,0.001000
1016.538462,-0.025771,0.001000,0.001000,0.001000,0.001000,0.001000
1016.557692,-0.026885,0.001000,0.001000,0.001000,0.001000,0.001000
1016.576923,-0.027980,0.001000,0.001000,0.001000,0.001000,0.001000
1016.596154,-0.029056,0.001000,0.001000,0.001000,0.001000,0.001000
1016.615385,-0.030112,0.001000,0.001000,0.001000,0.001000,0.001000
1016.634615,-0.031147,0.001000,0.001000,0.001000,0.001000,0.001000
1016.653846,-0.032161,0.001000,0.001000,0.001000,0.001000,0.001000
1016.673077,-0.033153,0.001000,0.001000,0.001000,0.001000,0.001000
1016.692308,-0.034122,0.001000,0.001000,0.001000,0.001000,0.001000
1016.711538,-0.035068,0.001000,0.001000,0.001000,0.001000,0.001000
1016.730769,-0.035990,0.001000,0.001000,0.001000,0.001000,0.001000
1016.750000,-0.036887,0.001000,0.001000,0.001000,0.001000,0.001000
1016.769231,-0.037758,0.001000,0.001000,0.001000,0.001000,0.001000
1016.788462,-0.038604,0.001000,0.001000,0.001000,0.001000,0.001000
1016.807692,-0.039423,0.001000,0.001000,0.001000,0.001000,0.001000
1016.826923,-0.040215,0.001000,0.001000,0.001000,0.001000,0.001000
1016.846154,-0.040980,0.001000,0.001000,0.001000,0.001000,0.001000
1016.865385,-0.041716,0.001000,0.001000,0.001000,0.001000,0.001000
1016.884615,-0.042424,0.001000,0.001000,0.001000,0.001000,0.001000
1016.903846,-0.043103,0.001000,0.001000,0.001000,0.001000,0.001000
1016.923077,-0.043752,0.001000,0.001000,0.001000,0.001000,0.001000
1016.942308,-0.044371,0.001000,0.001000,0.001000,0.001000,0.001000
1016.961538,-0.044960,0.001000,0.001000,0.001000,0.001000,0.001000
1016.980769,-0.045517,0.001000,0.001000,0.001000,0.001000,0.001000
1017.000000,-0.046044,0.001000,0.001000,0.001000,0.001000,0.001000
1017.019231,-0.046539,0.001000,0.001000,0.001000,0.001000,0.001000
1017.038462,-0.047002,0.001000,0.001000,0.001000,0.001000,0.001000
1017.057692,-0.047432,0.001000,0.001000,0.001000,0.001000,0.001000
1017.076923,-0.047830,0.001000,0.001000,0.001000,0.001000,0.001000
1017.096154,-0.048196,0.001000,0.001000,0.001000,0.001000,0.001000
1017.115385,-0.048528,0.001000,0.001000,0.001000,0.001000,0.001000
1017.134615,-0.048827,0.001000,0.001000,0.001000,0.001000,0.001000
1017.153846,-0.049092,0.001000,0.001000,0.001000,0.001000,0.001000
1017.173077,-0.049324,0.001000,0.001000,0.001000,0.001000,0.001000
1017.192308,-0.049521,0.001000,0.001000,0.001000,0.001000,0.001000
1017.211538,-0.049685,0.001000,0.001000,0.001000,0.001000,0.001000
1017.230769,-0.049815,0.001000,0.001000,0.001000,0.001000,0.001000
1017.250000,-0.049910,0.001000,0.001000,0.001000,0.001000,0.001000
1017.269231,-0.049972,0.001000,0.001000,0.001000,0.001000,0.001000
1017.288462,-0.049999,0.001000,0.001000,0.001000,0.001000,0.001000
1017.307692,-0.049991,0.001000,0.001000,0.001000,0.001000,0.001000
1017.326923,-0.049950,0.001000,0.001000,0.001000,0.001000,0.001000
1017.346154,-0.049874,0.001000,0.001000,0.001000,0.001000,0.001000
1017.365385,-0.049763,0.001000,0.001000,0.001000,0.001000,0.001000
1017.384615,-0.049619,0.001000,0.001000,0.001000,0.001000,0.001000
1017.403846,-0.049441,0.001000,0.001000,0.001000,0.001000,0.001000
1017.423077,-0.049228,0.001000,0.001000,0.001000,0.001000,0.001000
1017.442308,-0.048982,0.001000,0.001000,0.001000,0.001000,0.001000
1017.461538,-0.048702,0.001000,0.001000,0.001000,0.001000,0.001000
1017.480769,-0.048389,0.001000,0.001000,0.001000,0.001000,0.001000
1017.500000,-0.048042,0.001000,0.001000,0.001000,0.001000,0.001000
1017.519231,-0.047663,0.001000,0.001000,0.001000,0.001000,0.001000
1017.538462,-0.047251,0.001000,0.001000,0.001000,0.001000,0.001000
1017.557692,-0.046806,0.001000,0.001000,0.001000,0.001000,0.001000
1017.576923,-0.046330,0.001000,0.001000,0.001000,0.001000,0.001000
1017.596154,-0.045821,0.001000,0.001000,0.001000,0.001000,0.001000
1017.615385,-0.045281,0.001000,0.001000,0.001000,0.001000,0.001000
1017.634615,-0.044710,0.001000,0.001000,0.001000,0.001000,0.001000
1017.653846,-0.044108,0.001000,0.001000,0.001000,0.001000,0.001000
1017.673077,-0.043476,0.001000,0.001000,0.001000,0.001000,0.001000
1017.692308,-0.042815,0.001000,0.001000,0.001000,0.001000,0.001000
1017.711538,-0.042123,0.001000,0.001000,0.001000,0.001000,0.001000
1017.730769,-0.041403,0.001000,0.001000,0.001000,0.001000,0.001000
1017.750000,-0.040655,0.001000,0.001000,0.001000,0.001000,0.001000
1017.769231,-0.039878,0.001000,0.001000,0.001000,0.001000,0.001000
1017.788462,-0.039074,0.001000,0.001000,0.001000,0.001000,0.001000
1017.807692,-0.038244,0.001000,0.001000,0.001000,0.001000,0.001000
1017.826923,-0.037387,0.001000,0.001000,0.001000,0.001000,0.001000
1017.846154,-0.036504,0.001000,0.001000,0.001000,0.001000,0.001000
1017.865385,-0.035596,0.001000,0.001000,0.001000,0.001000,0.001000
1017.884615,-0.034664,0.001000,0.001000,0.001000,0.001000,0.001000
1017.903846,-0.033708,0.001000,0.001000,0.001000,0.001000,0.001000
1017.923077,-0.032729,0.001000,0.001000,0.001000,0.001000,0.001000
1017.942308,-0.031728,0.001000,0.001000,0.001000,0.001000,0.001000
1017.961538,-0.030705,0.001000,0.001000,0.001000,0.001000,0.001000
1017.980769,-0.029660,0.001000,0.001000,0.001000,0.001000,0.001000
1018.000000,-0.028596,0.001000,0.001000,0.001000,0.001000,0.001000
1018.019231,-0.027511,0.001000,0.001000,0.001000,0.001000,0.001000
1018.038462,-0.026408,0.001000,0.001000,0.001000,0.001000,0.001000
1018.057692,-0.025287,0.001000,0.001000,0.001000,0.001000,0.001000
1018.076923,-0.024148,0.001000,0.001000,0.001000,0.001000,0.001000
1018.096154,-0.022993,0.001000,0.001000,0.001000,0.001000,0.001000
1018.115385,-0.021822,0.001000,0.001000,0.001000,0.001000,0.001000
1018.134615,-0.020636,0.001000,0.001000,0.001000,0.001000,0.001000
1018.153846,-0.019435,0.001000,0.001000,0.001000,0.001000,0.001000
1018.173077,-0.018222,0.001000,0.001000,0.001000,0.001000,0.001000
1018.192308,-0.016996,0.001000,0.001000,0.001000,0.001000,0.001000
1018.211538,-0.015758,0.001000,0.001000,0.001000,0.001000,0.001000
1018.230769,-0.014509,0.001000,0.001000,0.001000,0.001000,0.001000
1018.250000,-0.013251,0.001000,0.001000,0.001000,0.001000,0.001000
1018.269231,-0.011983,0.001000,0.001000,0.001000,0.001000,0.001000
1018.288462,-0.010708,0.001000,0.001000,0.001000,0.001000,0.001000
1018.307692,-0.009424,0.001000,0.001000,0.001000,0.001000,0.001000
1018.326923,-0.008135,0.001000,0.001000,0.001000,0.001000,0.001000
1018.346154,-0.006839,0.001000,0.001000,0.001000,0.001000,0.001000
1018.365385,-0.005540,0.001000,0.001000,0.001000,0.001000,0.001000
1018.384615,-0.004236,0.001000,0.001000,0.001000,0.001000,0.001000
1018.403846,-0.002929,0.001000,0.001000,0.001000,0.001000,0.001000
1018.423077,-0.001621,0.001000,0.001000,0.001000,0.001000,0.001000
1018.442308,-0.000311,0.001000,0.001000,0.001000,0.001000,0.001000
1018.461538,0.000999,0.001000,0.001000,0.001000,0.001000,0.001000
1018.480769,0.002308,0.001000,0.001000,0.001000,0.001000,0.001000
1018.500000,0.003616,0.001000,0.001000,0.001000,0.001000,0.001000
1018.519231,0.004921,0.001000,0.001000,0.001000,0.001000,0.001000
1018.538462,0.006223,0.001000,0.001000,0.001000,0.001000,0.001000
1018.557692,0.007521,0.001000,0.001000,0.001000,0.001000,0.001000
1018.576923,0.008813,0.001000,0.001000,0.001000,0.001000,0.001000
1018.596154,0.010100,0.001000,0.001000,0.001000,0.001000,0.001000
1018.615385,0.011379,0.001000,0.001000,0.001000,0.001000,0.001000
1018.634615,0.012651,0.001000,0.001000,0.001000,0.001000,0.001000
1018.653846,0.013913,0.001000,0.001000,0.001000,0.001000,0.001000
1018.673077,0.015167,0.001000,0.001000,0.001000,0.001000,0.001000
1018.692308,0.016410,0.001000,0.001000,0.001000,0.001000,0.001000
1018.711538,0.017642,0.001000,0.001000,0.001000,0.001000,0.001000
1018.730769,0.018861,0.001000,0.001000,0.001000,0.001000,0.001000
1018.750000,0.020068,0.001000,0.001000,0.001000,0.001000,0.001000
1018.769231,0.021261,0.001000,0.001000,0.001000,0.001000,0.001000
1018.788462,0.022439,0.001000,0.001000,0.001000,0.001000,0.001000
1018.807692,0.023602,0.001000,0.001000,0.001000,0.001000,0.001000
1018.826923,0.024748,0.001000,0.001000,0.001000,0.001000,0.001000
1018.846154,0.025878,0.001000,0.001000,0.001000,0.001000,0.001000
1018.865385,0.026990,0.001000,0.001000,0.001000,0.001000,0.001000
1018.884615,0.028083,0.001000,0.001000,0.001000,0.001000,0.001000
1018.903846,0.029158,0.001000,0.001000,0.001000,0.001000,0.001000
1018.923077,0.030212,0.001000,0.001000,0.001000,0.001000,0.001000
1018.942308,0.031245,0.001000,0.001000,0.001000,0.001000,0.001000
1018.961538,0.032257,0.001000,0.001000,0.001000,0.001000,0.001000
1018.980769,0.033247,0.001000,0.001000,0.001000,0.001000,0.001000
1019.000000,0.034214,0.001000,0.001000,0.001000,0.001000,0.001000
1019.019231,0.035157,0.001000,0.001000,0.001000,0.001000,0.001000
1019.038462,0.036076,0.001000,0.001000,0.001000,0.001000,0.001000
1019.057692,0.036971,0.001000,0.001000,0.001000,0.001000,0.001000
1019.076923,0.037840,0.001000,0.001000,0.001000,0.001000,0.001000
1019.096154,0.038683,0.001000,0.001000,0.001000,0.001000,0.001000
1019.115385,0.039500,0.001000,0.001000,0.001000,0.001000,0.001000
1019.134615,0.040290,0.001000,0.001000,0.001000,0.001000,0.001000
1019.153846,0.041051,0.001000,0.001000,0.001000,0.001000,0.001000
1019.173077,0.041785,0.001000,0.001000,0.001000,0.001000,0.001000
1019.192308,0.042490,0.001000,0.001000,0.001000,0.001000,0.001000
1019.211538,0.043166,0.001000,0.001000,0.001000,0.001000,0.001000
1019.230769,0.043812,0.001000,0.001000,0.001000,0.001000,0.001000
1019.250000,0.044428,0.001000,0.001000,0.001000,0.001000,0.001000
1019.269231,0.045014,0.001000,0.001000,0.001000,0.001000,0.001000
1019.288462,0.045569,0.001000,0.001000,0.001000,0.001000,0.001000
1019.307692,0.046092,0.001000,0.001000,0.001000,0.001000,0.001000
1019.326923,0.046584,0.001000,0.001000,0.001000,0.001000,0.001000
1019.346154,0.047044,0.001000,0.001000,0.001000,0.001000,0.001000
1019.365385,0.047472,0.001000,0.001000,0.001000,0.001000,0.001000
1019.384615,0.047867,0.001000,0.001000,0.001000,0.001000,0.001000
1019.403846,0.048229,0.001000,0.001000,0.001000,0.001000,0.001000
1019.423077,0.048558,0.001000,0.001000,0.001000,0.001000,0.001000
1019.442308,0.048853,0.001000,0.001000,0.001000,0.001000,0.001000
1019.461538,0.049116,0.001000,0.001000,0.001000,0.001000,0.001000
1019.480769,0.049344,0.001000,0.001000,0.001000,0.001000,0.001000
1019.500000,0.049539,0.001000,0.001000,0.001000,0.001000,0.001000
1019.519231,0.049699,0.001000,0.001000,0.001000,0.001000,0.001000
1019.538462,0.049826,0.001000,0.001000,0.001000,0.001000,0.001000
1019.557692,0.049918,0.001000,0.001000,0.001000,0.001000,0.001000
1019.576923,0.049976,0.001000,0.001000,0.001000,0.001000,0.001000
1019.596154,0.049999,0.001000,0.001000,0.001000,0.001000,0.001000
1019.615385,0.049989,0.001000,0.001000,0.001000,0.001000,0.001000
1019.634615,0.049944,0.001000,0.001000,0.001000,0.001000,0.001000
1019.653846,0.049865,0.001000,0.001000,0.001000,0.001000,0.001000
1019.673077,0.049751,0.001000,0.001000,0.001000,0.001000,0.001000
1019.692308,0.049603,0.001000,0.001000,0.001000,0.001000,0.001000
1019.711538,0.049422,0.001000,0.001000,0.001000,0.001000,0.001000
1019.730769,0.049206,0.001000,0.001000,0.001000,0.001000,0.001000
1019.750000,0.048957,0.001000,0.001000,0.001000,0.001000,0.001000
1019.769231,0.048674,0.001000,0.001000,0.001000,0.001000,0.001000
1019.788462,0.048357,0.001000,0.001000,0.001000,0.001000,0.001000
1019.807692,0.048008,0.001000,0.001000,0.001000,0.001000,0.001000
1019.826923,0.047625,0.001000,0.001000,0.001000,0.001000,0.001000
1019.846154,0.047210,0.001000,0.001000,0.001000,0.001000,0.001000
1019.865385,0.046762,0.001000,0.001000,0.001000,0.001000,0.001000
1019.884615,0.046283,0.001000,0.001000,0.001000,0.001000,0.001000
1019.903846,0.045771,0.001000,0.001000,0.001000,0.001000,0.001000
1019.923077,0.045228,0.001000,0.001000,0.001000,0.001000,0.001000
1019.942308,0.044654,0.001000,0.001000,0.001000,0.001000,0.001000
1019.961538,0.044049,0.001000,0.001000,0.001000,0.001000,0.001000
1019.980769,0.043415,0.001000,0.001000,0.001000,0.001000,0.001000
1020.000000,0.042750,0.001000,0.001000,0.001000,0.001000,0.001000
1020.019231,0.042056,0.001000,0.001000,0.001000,0.001000,0.001000
1020.038462,0.041333,0.001000,0.001000,0.001000,0.001000,0.001000
1020.057692,0.040582,0.001000,0.001000,0.001000,0.001000,0.001000
1020.076923,0.039803,0.001000,0.001000,0.001000,0.001000,0.001000
1020.096154,0.038996,0.001000,0.001000,0.001000,0.001000,0.001000
1020.115385,0.038163,0.001000,0.001000,0.001000,0.001000,0.001000
1020.134615,0.037304,0.001000,0.001000,0.001000,0.001000,0.001000
1020.153846,0.036419,0.001000,0.001000,0.001000,0.001000,0.001000
1020.173077,0.035509,0.001000,0.001000,0.001000,0.001000,0.001000
1020.192308,0.034574,0.001000,0.001000,0.001000,0.001000,0.001000
1020.211538,0.033616,0.001000,0.001000,0.001000,0.001000,0.001000
1020.230769,0.032635,0.001000,0.001000,0.001000,0.001000,0.001000
1020.250000,0.031631,0.001000,0.001000,0.001000,0.001000,0.001000
1020.269231,0.030606,0.001000,0.001000,0.001000,0.001000,0.001000
1020.288462,0.029560,0.001000,0.001000,0.001000,0.001000,0.001000
1020.307692,0.028493,0.001000,0.001000,0.001000,0.001000,0.001000
1020.326923,0.027407,0.001000,0.001000,0.001000,0.001000,0.001000
1020.346154,0.026302,0.001000,0.001000,0.001000,0.001000,0.001000
1020.365385,0.025179,0.001000,0.001000,0.001000,0.001000,0.001000
1020.384615,0.024039,0.001000,0.001000,0.001000,0.001000,0.001000
1020.403846,0.022882,0.001000,0.001000,0.001000,0.001000,0.001000
1020.423077,0.021709,0.001000,0.001000,0.001000,0.001000,0.001000
1020.442308,0.020522,0.001000,0.001000,0.001000,0.001000,0.001000
1020.461538,0.019320,0.001000,0.001000,0.001000,0.001000,0.001000
1020.480769,0.018105,0.001000,0.001000,0.001000,0.001000,0.001000
1020.500000,0.016878,0.001000,0.001000,0.001000,0.001000,0.001000
1020.519231,0.015639,0.001000,0.001000,0.001000,0.001000,0.001000
1020.538462,0.014390,0.001000,0.001000,0.001000,0.001000,0.001000
1020.557692,0.013130,0.001000,0.001000,0.001000,0.001000,0.001000
1020.576923,0.011862,0.001000,0.001000,0.001000,0.001000,0.001000
1020.596154,0.010586,0.001000,0.001000,0.001000,0.001000,0.001000
1020.615385,0.009302,0.001000,0.001000,0.001000,0.001000,0.001000
1020.634615,0.008011,0.001000,0.001000,0.001000,0.001000,0.001000
1020.653846,0.006716,0.001000,0.001000,0.001000,0.001000,0.001000
1020.673077,0.005415,0.001000,0.001000,0.001000,0.001000,0.001000
1020.692308,0.004111,0.001000,0.001000,0.001000,0.001000,0.001000
1020.711538,0.002805,0.001000,0.001000,0.001000,0.001000,0.001000
1020.730769,0.001496,0.001000,0.001000,0.001000,0.001000,0.001000
1020.750000,0.000186,0.001000,0.001000,0.001000,0.001000,0.001000
1020.769231,-0.001124,0.001000,0.001000,0.001000,0.001000,0.001000
1020.788462,-0.002433,0.001000,0.001000,0.001000,0.001000,0.001000
1020.807692,-0.003741,0.001000,0.001000,0.001000,0.001000,0.001000
1020.826923,-0.005046,0.001000,0.001000,0.001000,0.001000,0.001000
1020.846154,-0.006347,0.001000,0.001000,0.001000,0.001000,0.001000
1020.865385,-0.007644,0.001000,0.001000,0.001000,0.001000,0.001000
1020.884615,-0.008936,0.001000,0.001000,0.001000,0.001000,0.001000
1020.903846,-0.010222,0.001000,0.001000,0.001000,0.001000,0.001000
1020.923077,-0.011501,0.001000,0.001000,0.001000,0.001000,0.001000
1020.942308,-0.012771,0.001000,0.001000,0.001000,0.001000,0.001000
1020.961538,-0.014033,0.001000,0.001000,0.001000,0.001000,0.001000
1020.980769,-0.015286,0.001000,0.001000,0.001000,0.001000,0.001000
1021.000000,-0.016528,0.001000,0.001000,0.001000,0.001000,0.001000
1021.019231,-0.017758,0.001000,0.001000,0.001000,0.001000,0.001000
1021.038462,-0.018977,0.001000,0.001000,0.001000,0.001000,0.001000
1021.057692,-0.020182,0.001000,0.001000,0.001000,0.001000,0.001000
1021.076923,-0.021374,0.001000,0.001000,0.001000,0.001000,0.001000
1021.096154,-0.022550,0.001000,0.001000,0.001000,0.001000,0.001000
1021.115385,-0.023712,0.001000,0.001000,0.001000,0.001000,0.001000
1021.134615,-0.024857,0.001000,0.001000,0.001000,0.001000,0.001000
1021.153846,-0.025985,0.001000,0.001000,0.001000,0.001000,0.001000
1021.173077,-0.027095,0.001000,0.001000,0.001000,0.001000,0.001000
1021.192308,-0.028187,0.001000,0.001000,0.001000,0.001000,0.001000
1021.211538,-0.029259,0.001000,0.001000,0.001000,0.001000,0.001000
1021.230769,-0.030311,0.001000,0.001000,0.001000,0.001000,0.001000
1021.250000,-0.031342,0.001000,0.001000,0.001000,0.001000,0.001000
1021.269231,-0.032352,0.001000,0.001000,0.001000,0.001000,0.001000
1021.288462,-0.033340,0.001000,0.001000,0.001000,0.001000,0.001000
1021.307692,-0.034305,0.001000,0.001000,0.001000,0.001000,0.001000
1021.326923,-0.035246,0.001000,0.001000,0.001000,0.001000,0.001000
1021.346154,-0.036163,0.001000,0.001000,0.001000,0.001000,0.001000
1021.365385,-0.037055,0.001000,0.001000,0.001000,0.001000,0.001000
1021.384615,-0.037922,0.001000,0.001000,0.001000,0.001000,0.001000
1021.403846,-0.038762,0.001000,0.001000,0.001000,0.001000,0.001000
1021.423077,-0.039576,0.001000,0.001000,0.001000,0.001000,0.001000
1021.442308,-0.040363,0.001000,0.001000,0.001000,0.001000,0.001000
1021.461538,-0.041123,0.001000,0.001000,0.001000,0.001000,0.001000
1021.480769,-0.041854,0.001000,0.001000,0.001000,0.001000,0.001000
1021.500000,-0.042556,0.001000,0.001000,0.001000,0.001000,0.001000
1021.519231,-0.043229,0.001000,0.001000,0.001000,0.001000,0.001000
1021.538462,-0.043872,0.001000,0.001000,0.001000,0.001000,0.001000
1021.557692,-0.044486,0.001000,0.001000,0.001000,0.001000,0.001000
1021.576923,-0.045068,0.001000,0.001000,0.001000,0.001000,0.001000
1021.596154,-0.045620,0.001000,0.001000,0.001000,0.001000,0.001000
1021.615385,-0.046141,0.001000,0.001000,0.001000,0.001000,0.001000
1021.634615,-0.046629,0.001000,0.001000,0.001000,0.001000,0.001000
1021.653846,-0.047086,0.001000,0.001000,0.001000,0.001000,0.001000
1021.673077,-0.047511,0.001000,0.001000,0.001000,0.001000,0.001000
1021.692308,-0.047902,0.001000,0.001000,0.001000,0.001000,0.001000
1021.711538,-0.048261,0.001000,0.001000,0.001000,0.001000,0.001000
1021.730769,-0.048587,0.001000,0.001000,0.001000,0.001000,0.001000
1021.750000,-0.048880,0.001000,0.001000,0.001000,0.001000,0.001000
1021.769231,-0.049139,0.001000,0.001000,0.001000,0.001000,0.001000
1021.788462,-0.049364,0.001000,0.001000,0.001000,0.001000,0.001000
1021.807692,-0.049555,0.001000,0.001000,0.001000,0.001000,0.001000
1021.826923,-0.049713,0.001000,0.001000,0.001000,0.001000,0.001000
1021.846154,-0.049836,0.001000,0.001000,0.001000,0.001000,0.001000
1021.865385,-0.049925,0.001000,0.001000,0.001000,0.001000,0.001000
1021.884615,-0.049979,0.001000,0.001000,0.001000,0.001000,0.001000
1021.903846,-0.050000,0.001000,0.001000,0.001000,0.001000,0.001000
1021.923077,-0.049986,0.001000,0.001000,0.001000,0.001000,0.001000
1021.942308,-0.049938,0.001000,0.001000,0.001000,0.001000,0.001000
1021.961538,-0.049855,0.001000,0.001000,0.001000,0.001000,0.001000
1021.980769,-0.049738,0.001000,0.001000,0.001000,0.001000,0.001000
1022.000000,-0.049588,0.001000,0.001000,0.001000,0.001000,0.001000
1022.019231,-0.049403,0.001000,0.001000,0.001000,0.001000,0.001000
1022.038462,-0.049184,0.001000,0.001000,0.001000,0.001000,0.001000
1022.057692,-0.048931,0.001000,0.001000,0.001000,0.001000,0.001000
1022.076923,-0.048645,0.001000,0.001000,0.001000,0.001000,0.001000
1022.096154,-0.048325,0.001000,0.001000,0.001000,0.001000,0.001000
1022.115385,-0.047973,0.001000,0.001000,0.001000,0.001000,0.001000
1022.134615,-0.047587,0.001000,0.001000,0.001000,0.001000,0.001000
1022.153846,-0.047169,0.001000,0.001000,0.001000,0.001000,0.001000
1022.173077,-0.046718,0.001000,0.001000,0.001000,0.001000,0.001000
1022.192308,-0.046235,0.001000,0.001000,0.001000,0.001000,0.001000
1022.211538,-0.045721,0.001000,0.001000,0.001000,0.001000,0.001000
1022.230769,-0.045175,0.001000,0.001000,0.001000,0.001000,0.001000
1022.250000,-0.044598,0.001000,0.001000,0.001000,0.001000,0.001000
1022.269231,-0.043990,0.001000,0.001000,0.001000,0.001000,0.001000
1022.288462,-0.043353,0.001000,0.001000,0.001000,0.001000,0.001000
1022.307692,-0.042685,0.001000,0.001000,0.001000,0.001000,0.001000
1022.326923,-0.041988,0.001000,0.001000,0.001000,0.001000,0.001000
1022.346154,-0.041263,0.001000,0.001000,0.001000,0.001000,0.001000
1022.365385,-0.040509,0.001000,0.001000,0.001000,0.001000,0.001000
1022.384615,-0.039727,0.001000,0.001000,0.001000,0.001000,0.001000
1022.403846,-0.038918,0.001000,0.001000,0.001000,0.001000,0.001000
1022.423077,-0.038082,0.001000,0.001000,0.001000,0.001000,0.001000
1022.442308,-0.037220,0.001000,0.001000,0.001000,0.001000,0.001000
1022.461538,-0.036333,0.001000,0.001000,0.001000,0.001000,0.001000
1022.480769,-0.035421,0.001000,0.001000,0.001000,0.001000,0.001000
1022.500000,-0.034484,0.001000,0.001000,0.001000,0.001000,0.001000
1022.519231,-0.033523,0.001000,0.001000,0.001000,0.001000,0.001000
1022.538462,-0.032540,0.001000,0.001000,0.001000,0.001000,0.001000
1022.557692,-0.031534,0.001000,0.001000,0.001000,0.001000,0.001000
1022.576923,-0.030507,0.001000,0.001000,0.001000,0.001000,0.001000
1022.596154,-0.029459,0.001000,0.001000,0.001000,0.001000,0.001000
1022.615385,-0.028390,0.001000,0.001000,0.001000,0.001000,0.001000
1022.634615,-0.027302,0.001000,0.001000,0.001000,0.001000,0.001000
1022.653846,-0.026196,0.001000,0.001000,0.001000,0.001000,0.001000
1022.673077,-0.025071,0.001000,0.001000,0.001000,0.001000,0.001000
1022.692308,-0.023929,0.001000,0.001000,0.001000,0.001000,0.001000
1022.711538,-0.022771,0.001000,0.001000,0.001000,0.001000,0.001000
1022.730769,-0.021597,0.001000,0.001000,0.001000,0.001000,0.001000
1022.750000,-0.020408,0.001000,0.001000,0.001000,0.001000,0.001000
1022.769231,-0.019205,0.001000,0.001000,0.001000,0.001000,0.001000
1022.788462,-0.017989,0.001000,0.001000,0.001000,0.001000,0.001000
1022.807692,-0.016761,0.001000,0.001000,0.001000,0.001000,0.001000
1022.826923,-0.015521,0.001000,0.001000,0.001000,0.001000,0.001000
1022.846154,-0.014270,0.001000,0.001000,0.001000,0.001000,0.001000
1022.865385,-0.013010,0.001000,0.001000,0.001000,0.001000,0.001000
1022.884615,-0.011741,0.001000,0.001000,0.001000,0.001000,0.001000
1022.903846,-0.010463,0.001000,0.001000,0.001000,0.001000,0.001000
1022.923077,-0.009179,0.001000,0.001000,0.001000,0.001000,0.001000
1022.942308,-0.007888,0.001000,0.001000,0.001000,0.001000,0.001000
1022.961538,-0.006592,0.001000,0.001000,0.001000,0.001000,0.001000
1022.980769,-0.005291,0.001000,0.001000,0.001000,0.001000,0.001000
1023.000000,-0.003987,0.001000,0.001000,0.001000,0.001000,0.001000
1023.019231,-0.002680,0.001000,0.001000,0.001000,0.001000,0.001000
1023.038462,-0.001371,0.001000,0.001000,0.001000,0.001000,0.001000
1023.057692,-0.000061,0.001000,0.001000,0.001000,0.001000,0.001000
1023.076923,0.001249,0.001000,0.001000,0.001000,0.001000,0.001000
1023.096154,0.002558,0.001000,0.001000,0.001000,0.001000,0.001000
1023.115385,0.003865,0.001000,0.001000,0.001000,0.001000,0.001000
1023.134615,0.005170,0.001000,0.001000,0.001000,0.001000,0.001000
1023.153846,0.006471,0.001000,0.001000,0.001000,0.001000,0.001000
1023.173077,0.007768,0.001000,0.001000,0.001000,0.001000,0.001000
1023.192308,0.009059,0.001000,0.001000,0.001000,0.001000,0.001000
1023.211538,0.010344,0.001000,0.001000,0.001000,0.001000,0.001000
1023.230769,0.011622,0.001000,0.001000,0.001000,0.001000,0.001000
1023.250000,0.012892,0.001000,0.001000,0.001000,0.001000,0.001000
1023.269231,0.014153,0.001000,0.001000,0.001000,0.001000,0.001000
1023.288462,0.015405,0.001000,0.001000,0.001000,0.001000,0.001000
1023.307692,0.016646,0.001000,0.001000,0.001000,0.001000,0.001000
1023.326923,0.017875,0.001000,0.001000,0.001000,0.001000,0.001000
1023.346154,0.019092,0.001000,0.001000,0.001000,0.001000,0.001000
1023.365385,0.020296,0.001000,0.001000,0.001000,0.001000,0.001000
1023.384615,0.021486,0.001000,0.001000,0.001000,0.001000,0.001000
1023.403846,0.022662,0.001000,0.001000,0.001000,0.001000,0.001000
1023.423077,0.023822,0.001000,0.001000,0.001000,0.001000,0.001000
1023.442308,0.024965,0.001000,0.001000,0.001000,0.001000,0.001000
1023.461538,0.026092,0.001000,0.001000,0.001000,0.001000,0.001000
1023.480769,0.027200,0.001000,0.001000,0.001000,0.001000,0.001000
1023.500000,0.028290,0.001000,0.001000,0.001000,0.001000,0.001000
1023.519231,0.029360,0.001000,0.001000,0.001000,0.001000,0.001000
1023.538462,0.030410,0.001000,0.001000,0.001000,0.001000,0.001000
1023.557692,0.031440,0.001000,0.001000,0.001000,0.001000,0.001000
1023.576923,0.032447,0.001000,0.001000,0.001000,0.001000,0.001000
1023.596154,0.033433,0.001000,0.001000,0.001000,0.001000,0.001000
1023.615385,0.034395,0.001000,0.001000,0.001000,0.001000,0.001000
1023.634615,0.035334,0.001000,0.001000,0.001000,0.001000,0.001000
1023.653846,0.036249,0.001000,0.001000,0.001000,0.001000,0.001000
1023.673077,0.037139,0.001000,0.001000,0.001000,0.001000,0.001000
1023.692308,0.038003,0.001000,0.001000,0.001000,0.001000,0.001000
1023.711538,0.038841,0.001000,0.001000,0.001000,0.001000,0.001000
1023.730769,0.039653,0.001000,0.001000,0.001000,0.001000,0.001000
1023.750000,0.040437,0.001000,0.001000,0.001000,0.001000,0.001000
1023.769231,0.041194,0.001000,0.001000,0.001000,0.001000,0.001000
1023.788462,0.041922,0.001000,0.001000,0.001000,0.001000,0.001000
1023.807692,0.042621,0.001000,0.001000,0.001000,0.001000,0.001000
1023.826923,0.043292,0.001000,0.001000,0.001000,0.001000,0.001000
1023.846154,0.043932,0.001000,0.001000,0.001000,0.001000,0.001000
1023.865385,0.044542,0.001000,0.001000,0.001000,0.001000,0.001000
1023.884615,0.045122,0.001000,0.001000,0.001000,0.001000,0.001000
1023.903846,0.045671,0.001000,0.001000,0.001000,0.001000,0.001000
1023.923077,0.046189,0.001000,0.001000,0.001000,0.001000,0.001000
1023.942308,0.046674,0.001000,0.001000,0.001000,0.001000,0.001000
1023.961538,0.047128,0.001000,0.001000,0.001000,0.001000,0.001000
1023.980769,0.047549,0.001000,0.001000,0.001000,0.001000,0.001000
1024.000000,0.047938,0.001000,0.001000,0.001000,0.001000,0.001000
1024.019231,0.048294,0.001000,0.001000,0.001000,0.001000,0.001000
1024.038462,0.048617,0.001000,0.001000,0.001000,0.001000,0.001000
1024.057692,0.048906,0.001000,0.001000,0.001000,0.001000,0.001000
1024.076923,0.049162,0.001000,0.001000,0.001000,0.001000,0.001000
1024.096154,0.049384,0.001000,0.001000,0.001000,0.001000,0.001000
1024.115385,0.049572,0.001000,0.001000,0.001000,0.001000,0.001000
1024.134615,0.049726,0.001000,0.001000,0.001000,0.001000,0.001000
1024.153846,0.049846,0.001000,0.001000,0.001000,0.001000,0.001000
1024.173077,0.049931,0.001000,0.001000,0.001000,0.001000,0.001000
1024.192308,0.049983,0.001000,0.001000,0.001000,0.001000,0.001000
1024.211538,0.050000,0.001000,0.001000,0.001000,0.001000,0.001000
1024.230769,0.049983,0.001000,0.001000,0.001000,0.001000,0.001000
1024.250000,0.049931,0.001000,0.001000,0.001000,0.001000,0.001000
1024.269231,0.049846,0.001000,0.001000,0.001000,0.001000,0.001000
1024.288462,0.049726,0.001000,0.001000,0.001000,0.001000,0.001000
1024.307692,0.049571,0.001000,0.001000,0.001000,0.001000,0.001000
1024.326923,0.049383,0.001000,0.001000,0.001000,0.001000,0.001000
1024.346154,0.049161,0.001000,0.001000,0.001000,0.001000,0.001000
1024.365385,0.048905,0.001000,0.001000,0.001000,0.001000,0.001000
1024.384615,0.048616,0.001000,0.001000,0.001000,0.001000,0.001000
1024.403846,0.048293,0.001000,0.001000,0.001000,0.001000,0.001000
1024.423077,0.047937,0.001000,0.001000,0.001000,0.001000,0.001000
1024.442308,0.047549,0.001000,0.001000,0.001000,0.001000,0.001000
1024.461538,0.047127,0.001000,0.001000,0.001000,0.001000,0.001000
1024.480769,0.046673,0.001000,0.001000,0.001000,0.001000,0.001000
1024.500000,0.046187,0.001000,0.001000,0.001000,0.001000,0.001000
1024.519231,0.045670,0.001000,0.001000,0.001000,0.001000,0.001000
1024.538462,0.045121,0.001000,0.001000,0.001000,0.001000,0.001000
1024.557692,0.044541,0.001000,0.001000,0.001000,0.001000,0.001000
1024.576923,0.043931,0.001000,0.001000,0.001000,0.001000,0.001000
1024.596154,0.043290,0.001000,0.001000,0.001000,0.001000,0.001000
1024.615385,0.042620,0.001000,0.001000,0.001000,0.001000,0.001000
1024.634615,0.041920,0.001000,0.001000,0.001000,0.001000,0.001000
1024.653846,0.041192,0.001000,0.001000,0.001000,0.001000,0.001000
1024.673077,0.040435,0.001000,0.001000,0.001000,0.001000,0.001000
1024.692308,0.039651,0.001000,0.001000,0.001000,0.001000,0.001000
1024.711538,0.038839,0.001000,0.001000,0.001000,0.001000,0.001000
1024.730769,0.038001,0.001000,0.001000,0.001000,0.001000,0.001000
1024.750000,0.037137,0.001000,0.001000,0.001000,0.001000,0.001000
1024.769231,0.036247,0.001000,0.001000,0.001000,0.001000,0.001000
1024.788462,0.035332,0.001000,0.001000,0.001000,0.001000,0.001000
1024.807692,0.034393,0.001000,0.001000,0.001000,0.001000,0.001000
1024.826923,0.033431,0.001000,0.001000,0.001000,0.001000,0.001000
1024.846154,0.032445,0.001000,0.001000,0.001000,0.001000,0.001000
1024.865385,0.031437,0.001000,0.001000,0.001000,0.001000,0.001000
1024.884615,0.030408,0.001000,0.001000,0.001000,0.001000,0.001000
1024.903846,0.029358,0.001000,0.001000,0.001000,0.001000,0.001000
1024.923077,0.028287,0.001000,0.001000,0.001000,0.001000,0.001000
1024.942308,0.027198,0.001000,0.001000,0.001000,0.001000,0.001000
1024.961538,0.026089,0.001000,0.001000,0.001000,0.001000,0.001000
1024.980769,0.024963,0.001000,0.001000,0.001000,0.001000,0.001000
1025.000000,0.023819,0.001000,0.001000,0.001000,0.001000,0.001000
1025.019231,0.022659,0.001000,0.001000,0.001000,0.001000,0.001000
1025.038462,0.021484,0.001000,0.001000,0.001000,0.001000,0.001000
1025.057692,0.020294,0.001000,0.001000,0.001000,0.001000,0.001000
1025.076923,0.019090,0.001000,0.001000,0.001000,0.001000,0.001000
1025.096154,0.017872,0.001000,0.001000,0.001000,0.001000,0.001000
1025.115385,0.016643,0.001000,0.001000,0.001000,0.001000,0.001000
1025.134615,0.015402,0.001000,0.001000,0.001000,0.001000,0.001000
1025.153846,0.014150,0.001000,0.001000,0.001000,0.001000,0.001000
1025.173077,0.012889,0.001000,0.001000,0.001000,0.001000,0.001000
1025.192308,0.011619,0.001000,0.001000,0.001000,0.001000,0.001000
1025.211538,0.010341,0.001000,0.001000,0.001000,0.001000,0.001000
1025.230769,0.009056,0.001000,0.001000,0.001000,0.001000,0.001000
1025.250000,0.007765,0.001000,0.001000,0.001000,0.001000,0.001000
1025.269231,0.006468,0.001000,0.001000,0.001000,0.001000,0.001000
1025.288462,0.005167,0.001000,0.001000,0.001000,0.001000,0.001000
1025.307692,0.003862,0.001000,0.001000,0.001000,0.001000,0.001000
1025.326923,0.002555,0.001000,0.001000,0.001000,0.001000,0.001000
1025.346154,0.001246,0.001000,0.001000,0.001000,0.001000,0.001000
1025.365385,-0.000064,0.001000,0.001000,0.001000,0.001000,0.001000
1025.384615,-0.001374,0.001000,0.001000,0.001000,0.001000,0.001000
1025.403846,-0.002683,0.001000,0.001000,0.001000,0.001000,0.001000
1025.423077,-0.003990,0.001000,0.001000,0.001000,0.001000,0.001000
1025.442308,-0.005294,0.001000,0.001000,0.001000,0.001000,0.001000
1025.461538,-0.006595,0.001000,0.001000,0.001000,0.001000,0.001000
1025.480769,-0.007891,0.001000,0.001000,0.001000,0.001000,0.001000
1025.500000,-0.009182,0.001000,0.001000,0.001000,0.001000,0.001000
1025.519231,-0.010466,0.001000,0.001000,0.001000,0.001000,0.001000
1025.538462,-0.011743,0.001000,0.001000,0.001000,0.001000,0.001000
1025.557692,-0.013013,0.001000,0.001000,0.001000,0.001000,0.001000
1025.576923,-0.014273,0.001000,0.001000,0.001000,0.001000,0.001000
1025.596154,-0.015523,0.001000,0.001000,0.001000,0.001000,0.001000
1025.615385,-0.016763,0.001000,0.001000,0.001000,0.001000,0.001000
1025.634615,-0.017992,0.001000,0.001000,0.001000,0.001000,0.001000
1025.653846,-0.019208,0.001000,0.001000,0.001000,0.001000,0.001000
1025.673077,-0.020410,0.001000,0.001000,0.001000,0.001000,0.001000
1025.692308,-0.021599,0.001000,0.001000,0.001000,0.001000,0.001000
1025.711538,-0.022773,0.001000,0.001000,0.001000,0.001000,0.001000
1025.730769,-0.023931,0.001000,0.001000,0.001000,0.001000,0.001000
1025.750000,-0.025073,0.001000,0.001000,0.001000,0.001000,0.001000
1025.769231,-0.026198,0.001000,0.001000,0.001000,0.001000,0.001000
1025.788462,-0.027305,0.001000,0.001000,0.001000,0.001000,0.001000
1025.807692,-0.028393,0.001000,0.001000,0.001000,0.001000,0.001000
1025.826923,-0.029461,0.001000,0.001000,0.001000,0.001000,0.001000
1025.846154,-0.030509,0.001000,0.001000,0.001000,0.001000,0.001000
1025.865385,-0.031537,0.001000,0.001000,0.001000,0.001000,0.001000
1025.884615,-0.032542,0.001000,0.001000,0.001000,0.001000,0.001000
1025.903846,-0.033526,0.001000,0.001000,0.001000,0.001000,0.001000
1025.923077,-0.034486,0.001000,0.001000,0.001000,0.001000,0.001000
1025.942308,-0.035423,0.001000,0.001000,0.001000,0.001000,0.001000
1025.961538,-0.036335,0.001000,0.001000,0.001000,0.001000,0.001000
1025.980769,-0.037222,0.001000,0.001000,0.001000,0.001000,0.001000
1026.000000,-0.038084,0.001000,0.001000,0.001000,0.001000,0.001000
1026.019231,-0.038920,0.001000,0.001000,0.001000,0.001000,0.001000
1026.038462,-0.039729,0.001000,0.001000,0.001000,0.001000,0.001000
1026.057692,-0.040510,0.001000,0.001000,0.001000,0.001000,0.001000
1026.076923,-0.041264,0.001000,0.001000,0.001000,0.001000,0.001000
1026.096154,-0.041990,0.001000,0.001000,0.001000,0.001000,0.001000
1026.115385,-0.042687,0.001000,0.001000,0.001000,0.001000,0.001000
1026.134615,-0.043354,0.001000,0.001000,0.001000,0.001000,0.001000
1026.153846,-0.043992,0.001000,0.001000,0.001000,0.001000,0.001000
1026.173077,-0.044599,0.001000,0.001000,0.001000,0.001000,0.001000
1026.192308,-0.045176,0.001000,0.001000,0.001000,0.001000,0.001000
1026.211538,-0.045722,0.001000,0.001000,0.001000,0.001000,0.001000
1026.230769,-0.046236,0.001000,0.001000,0.001000,0.001000,0.001000
1026.250000,-0.046719,0.001000,0.001000,0.001000,0.001000,0.001000
1026.269231,-0.047170,0.001000,0.001000,0.001000,0.001000,0.001000
1026.288462,-0.047588,0.001000,0.001000,0.001000,0.001000,0.001000
1026.307692,-0.047973,0.001000,0.001000,0.001000,0.001000,0.001000
1026.326923,-0.048326,0.001000,0.001000,0.001000,0.001000,0.001000
1026.346154,-0.048646,0.001000,0.001000,0.001000,0.001000,0.001000
1026.365385,-0.048932,0.001000,0.001000,0.001000,0.001000,0.001000
1026.384615,-0.049184,0.001000,0.001000,0.001000,0.001000,0.001000
1026.403846,-0.049403,0.001000,0.001000,0.001000,0.001000,0.001000
1026.423077,-0.049588,0.001000,0.001000,0.001000,0.001000,0.001000
1026.442308,-0.049739,0.001000,0.001000,0.001000,0.001000,0.001000
1026.461538,-0.049855,0.001000,0.001000,0.001000,0.001000,0.001000
1026.480769,-0.049938,0.001000,0.001000,0.001000,0.001000,0.001000
1026.500000,-0.049986,0.001000,0.001000,0.001000,0.001000,0.001000
1026.519231,-0.050000,0.001000,0.001000,0.001000,0.001000,0.001000
1026.538462,-0.049979,0.001000,0.001000,0.001000,0.001000,0.001000
1026.557692,-0.049925,0.001000,0.001000,0.001000,0.001000,0.001000
1026.576923,-0.049836,0.001000,0.001000,0.001000,0.001000,0.001000
1026.596154,-0.049712,0.001000,0.001000,0.001000,0.001000,0.001000
1026.615385,-0.049555,0.001000,0.001000,0.001000,0.001000,0.001000
1026.634615,-0.049364,0.001000,0.001000,0.001000,0.001000,0.001000
1026.653846,-0.049138,0.001000,0.001000,0.001000,0.001000,0.001000
1026.673077,-0.048879,0.001000,0.001000,0.001000,0.001000,0.001000
1026.692308,-0.048587,0.001000,0.001000,0.001000,0.001000,0.001000
1026.711538,-0.048261,0.001000,0.001000,0.001000,0.001000,0.001000
1026.730769,-0.047902,0.001000,0.001000,0.001000,0.001000,0.001000
1026.750000,-0.047510,0.001000,0.001000,0.001000,0.001000,0.001000
1026.769231,-0.047085,0.001000,0.001000,0.001000,0.001000,0.001000
1026.788462,-0.046628,0.001000,0.001000,0.001000,0.001000,0.001000
1026.807692,-0.046139,0.001000,0.001000,0.001000,0.001000,0.001000
1026.826923,-0.045619,0.001000,0.001000,0.001000,0.001000,0.001000
1026.846154,-0.045067,0.001000,0.001000,0.001000,0.001000,0.001000
1026.865385,-0.044484,0.001000,0.001000,0.001000,0.001000,0.001000
1026.884615,-0.043871,0.001000,0.001000,0.001000,0.001000,0.001000
1026.903846,-0.043228,0.001000,0.001000,0.001000,0.001000,0.001000
1026.923077,-0.042554,0.001000,0.001000,0.001000,0.001000,0.001000
1026.942308,-0.041852,0.001000,0.001000,0.001000,0.001000,0.001000
1026.961538,-0.041121,0.001000,0.001000,0.001000,0.001000,0.001000
1026.980769,-0.040362,0.001000,0.001000,0.001000,0.001000,0.001000
1027.000000,-0.039575,0.001000,0.001000,0.001000,0.001000,0.001000
1027.019231,-0.038761,0.001000,0.001000,0.001000,0.001000,0.001000
1027.038462,-0.037920,0.001000,0.001000,0.001000,0.001000,0.001000
1027.057692,-0.037053,0.001000,0.001000,0.001000,0.001000,0.001000
1027.076923,-0.036161,0.001000,0.001000,0.001000,0.001000,0.001000
1027.096154,-0.035244,0.001000,0.001000,0.001000,0.001000,0.001000
1027.115385,-0.034303,0.001000,0.001000,0.001000,0.001000,0.001000
1027.134615,-0.033338,0.001000,0.001000,0.001000,0.001000,0.001000
1027.153846,-0.032350,0.001000,0.001000,0.001000,0.001000,0.001000
1027.173077,-0.031340,0.001000,0.001000,0.001000,0.001000,0.001000
1027.192308,-0.030309,0.001000,0.001000,0.001000,0.001000,0.001000
1027.211538,-0.029257,0.001000,0.001000,0.001000,0.001000,0.001000
1027.230769,-0.028184,0.001000,0.001000,0.001000,0.001000,0.001000
1027.250000,-0.027093,0.001000,0.001000,0.001000,0.001000,0.001000
1027.269231,-0.025982,0.001000,0.001000,0.001000,0.001000,0.001000
1027.288462,-0.024854,0.001000,0.001000,0.001000,0.001000,0.001000
1027.307692,-0.023709,0.001000,0.001000,0.001000,0.001000,0.001000
1027.326923,-0.022548,0.001000,0.001000,0.001000,0.001000,0.001000
1027.346154,-0.021371,0.001000,0.001000,0.001000,0.001000,0.001000
1027.365385,-0.020179,0.001000,0.001000,0.001000,0.001000,0.001000
1027.384615,-0.018974,0.001000,0.001000,0.001000,0.001000,0.001000
1027.403846,-0.017756,0.001000,0.001000,0.001000,0.001000,0.001000
1027.423077,-0.016525,0.001000,0.001000,0.001000,0.001000,0.001000
1027.442308,-0.015283,0.001000,0.001000,0.001000,0.001000,0.001000
1027.461538,-0.014031,0.001000,0.001000,0.001000,0.001000,0.001000
1027.480769,-0.012769,0.001000,0.001000,0.001000,0.001000,0.001000
1027.500000,-0.011498,0.001000,0.001000,0.001000,0.001000,0.001000
1027.519231,-0.010219,0.001000,0.001000,0.001000,0.001000,0.001000
1027.538462,-0.008933,0.001000,0.001000,0.001000,0.001000,0.001000
1027.557692,-0.007641,0.001000,0.001000,0.001000,0.001000,0.001000
1027.576923,-0.006344,0.001000,0.001000,0.001000,0.001000,0.001000
1027.596154,-0.005043,0.001000,0.001000,0.001000,0.001000,0.001000
1027.615385,-0.003738,0.001000,0.001000,0.001000,0.001000,0.001000
1027.634615,-0.002430,0.001000,0.001000,0.001000,0.001000,0.001000
1027.653846,-0.001121,0.001000,0.001000,0.001000,0.001000,0.001000
1027.673077,0.000189,0.001000,0.001000,0.001000,0.001000,0.001000
1027.692308,0.001499,0.001000,0.001000,0.001000,0.001000,0.001000
1027.711538,0.002807,0.001000,0.001000,0.001000,0.001000,0.001000
1027.730769,0.004114,0.001000,0.001000,0.001000,0.001000,0.001000
1027.750000,0.005418,0.001000,0.001000,0.001000,0.001000,0.001000
1027.769231,0.006719,0.001000,0.001000,0.001000,0.001000,0.001000
1027.788462,0.008014,0.001000,0.001000,0.001000,0.001000,0.001000
1027.807692,0.009305,0.001000,0.001000,0.001000,0.001000,0.001000
1027.826923,0.010588,0.001000,0.001000,0.001000,0.001000,0.001000
1027.846154,0.011865,0.001000,0.001000,0.001000,0.001000,0.001000
1027.865385,0.013133,0.001000,0.001000,0.001000,0.001000,0.001000
1027.884615,0.014393,0.001000,0.001000,0.001000,0.001000,0.001000
1027.903846,0.015642,0.001000,0.001000,0.001000,0.001000,0.001000
1027.923077,0.016881,0.001000,0.001000,0.001000,0.001000,0.001000
1027.942308,0.018108,0.001000,0.001000,0.001000,0.001000,0.001000
1027.961538,0.019323,0.001000,0.001000,0.001000,0.001000,0.001000
1027.980769,0.020524,0.001000,0.001000,0.001000,0.001000,0.001000
1028.000000,0.021712,0.001000,0.001000,0.001000,0.001000,0.001000
1028.019231,0.022884,0.001000,0.001000,0.001000,0.001000,0.001000
1028.038462,0.024041,0.001000,0.001000,0.001000,0.001000,0.001000
1028.057692,0.025181,0.001000,0.001000,0.001000,0.001000,0.001000
1028.076923,0.026304,0.001000,0.001000,0.001000,0.001000,0.001000
1028.096154,0.027409,0.001000,0.001000,0.001000,0.001000,0.001000
1028.115385,0.028495,0.001000,0.001000,0.001000,0.001000,0.001000
1028.134615,0.029562,0.001000,0.001000,0.001000,0.001000,0.001000
1028.153846,0.030608,0.001000,0.001000,0.001000,0.001000,0.001000
1028.173077,0.031633,0.001000,0.001000,0.001000,0.001000,0.001000
1028.192308,0.032637,0.001000,0.001000,0.001000,0.001000,0.001000
1028.211538,0.033618,0.001000,0.001000,0.001000,0.001000,0.001000
1028.230769,0.034576,0.001000,0.001000,0.001000,0.001000,0.001000
1028.250000,0.035511,0.001000,0.001000,0.001000,0.001000,0.001000
1028.269231,0.036421,0.001000,0.001000,0.001000,0.001000,0.001000
1028.288462,0.037305,0.001000,0.001000,0.001000,0.001000,0.001000
1028.307692,0.038165,0.001000,0.001000,0.001000,0.001000,0.001000
1028.326923,0.038998,0.001000,0.001000,0.001000,0.001000,0.001000
1028.346154,0.039804,0.001000,0.001000,0.001000,0.001000,0.001000
1028.365385,0.040583,0.001000,0.001000,0.001000,0.001000,0.001000
1028.384615,0.041335,0.001000,0.001000,0.001000,0.001000,0.001000
1028.403846,0.042057,0.001000,0.001000,0.001000,0.001000,0.001000
1028.423077,0.042751,0.001000,0.001000,0.001000,0.001000,0.001000
1028.442308,0.043416,0.001000,0.001000,0.001000,0.001000,0.001000
1028.461538,0.044051,0.001000,0.001000,0.001000,0.001000,0.001000
1028.480769,0.044655,0.001000,0.001000,0.001000,0.001000,0.001000
1028.500000,0.045229,0.001000,0.001000,0.001000,0.001000,0.001000
1028.519231,0.045772,0.001000,0.001000,0.001000,0.001000,0.001000
1028.538462,0.046284,0.001000,0.001000,0.001000,0.001000,0.001000
1028.557692,0.046763,0.001000,0.001000,0.001000,0.001000,0.001000
1028.576923,0.047211,0.001000,0.001000,0.001000,0.001000,0.001000
1028.596154,0.047626,0.001000,0.001000,0.001000,0.001000,0.001000
1028.615385,0.048009,0.001000,0.001000,0.001000,0.001000,0.001000
1028.634615,0.048358,0.001000,0.001000,0.001000,0.001000,0.001000
1028.653846,0.048674,0.001000,0.001000,0.001000,0.001000,0.001000
1028.673077,0.048957,0.001000,0.001000,0.001000,0.001000,0.001000
1028.692308,0.049207,0.001000,0.001000,0.001000,0.001000,0.001000
1028.711538,0.049422,0.001000,0.001000,0.001000,0.001000,0.001000
1028.730769,0.049604,0.001000,0.001000,0.001000,0.001000,0.001000
1028.750000,0.049751,0.001000,0.001000,0.001000,0.001000,0.001000
1028.769231,0.049865,0.001000,0.001000,0.001000,0.001000,0.001000
1028.788462,0.049944,0.001000,0.001000,0.001000,0.001000,0.001000
1028.807692,0.049989,0.001000,0.001000,0.001000,0.001000,0.001000
1028.826923,0.049999,0.001000,0.001000,0.001000,0.001000,0.001000
1028.846154,0.049976,0.001000,0.001000,0.001000,0.001000,0.001000
1028.865385,0.049918,0.001000,0.001000,0.001000,0.001000,0.001000
1028.884615,0.049825,0.001000,0.001000,0.001000,0.001000,0.001000
1028.903846,0.049699,0.001000,0.001000,0.001000,0.001000,0.001000
1028.923077,0.049538,0.001000,0.001000,0.001000,0.001000,0.001000
1028.942308,0.049343,0.001000,0.001000,0.001000,0.001000,0.001000
1028.961538,0.049115,0.001000,0.001000,0.001000,0.001000,0.001000
1028.980769,0.048853,0.001000,0.001000,0.001000,0.001000,0.001000
1029.000000,0.048557,0.001000,0.001000,0.001000,0.001000,0.001000
1029.019231,0.048228,0.001000,0.001000,0.001000,0.001000,0.001000
1029.038462,0.047866,0.001000,0.001000,0.001000,0.001000,0.001000
1029.057692,0.047471,0.001000,0.001000,0.001000,0.001000,0.001000
1029.076923,0.047043,0.001000,0.001000,0.001000,0.001000,0.001000
1029.096154,0.046583,0.001000,0.001000,0.001000,0.001000,0.001000
1029.115385,0.046091,0.001000,0.001000,0.001000,0.001000,0.001000
1029.134615,0.045568,0.001000,0.001000,0.001000,0.001000,0.001000
1029.153846,0.045013,0.001000,0.001000,0.001000,0.001000,0.001000
1029.173077,0.044427,0.001000,0.001000,0.001000,0.001000,0.001000
1029.192308,0.043811,0.001000,0.001000,0.001000,0.001000,0.001000
1029.211538,0.043165,0.001000,0.001000,0.001000,0.001000,0.001000
1029.230769,0.042489,0.001000,0.001000,0.001000,0.001000,0.001000
1029.250000,0.041784,0.001000,0.001000,0.001000,0.001000,0.001000
1029.269231,0.041050,0.001000,0.001000,0.001000,0.001000,0.001000
1029.288462,0.040288,0.001000,0.001000,0.001000,0.001000,0.001000
1029.307692,0.039498,0.001000,0.001000,0.001000,0.001000,0.001000
1029.326923,0.038682,0.001000,0.001000,0.001000,0.001000,0.001000
1029.346154,0.037838,0.001000,0.001000,0.001000,0.001000,0.001000
1029.365385,0.036969,0.001000,0.001000,0.001000,0.001000,0.001000
1029.384615,0.036074,0.001000,0.001000,0.001000,0.001000,0.001000
1029.403846,0.035155,0.001000,0.001000,0.001000,0.001000,0.001000
1029.423077,0.034212,0.001000,0.001000,0.001000,0.001000,0.001000
1029.442308,0.033245,0.001000,0.001000,0.001000,0.001000,0.001000
1029.461538,0.032255,0.001000,0.001000,0.001000,0.001000,0.001000
1029.480769,0.031243,0.001000,0.001000,0.001000,0.001000,0.001000
1029.500000,0.030209,0.001000,0.001000,0.001000,0.001000,0.001000
1029.519231,0.029155,0.001000,0.001000,0.001000,0.001000,0.001000
1029.538462,0.028081,0.001000,0.001000,0.001000,0.001000,0.001000
1029.557692,0.026988,0.001000,0.001000,0.001000,0.001000,0.001000
1029.576923,0.025876,0.001000,0.001000,0.001000,0.001000,0.001000
1029.596154,0.024746,0.001000,0.001000,0.001000,0.001000,0.001000
1029.615385,0.023599,0.001000,0.001000,0.001000,0.001000,0.001000
1029.634615,0.022436,0.001000,0.001000,0.001000,0.001000,0.001000
1029.653846,0.021258,0.001000,0.001000,0.001000,0.001000,0.001000
1029.673077,0.020065,0.001000,0.001000,0.001000,0.001000,0.001000
1029.692308,0.018858,0.001000,0.001000,0.001000,0.001000,0.001000
1029.711538,0.017639,0.001000,0.001000,0.001000,0.001000,0.001000
1029.730769,0.016407,0.001000,0.001000,0.001000,0.001000,0.001000
1029.750000,0.015164,0.001000,0.001000,0.001000,0.001000,0.001000
1029.769231,0.013911,0.001000,0.001000,0.001000,0.001000,0.001000
1029.788462,0.012648,0.001000,0.001000,0.001000,0.001000,0.001000
1029.807692,0.011376,0.001000,0.001000,0.001000,0.001000,0.001000
1029.826923,0.010097,0.001000,0.001000,0.001000,0.001000,0.001000
1029.846154,0.008810,0.001000,0.001000,0.001000,0.001000,0.001000
1029.865385,0.007518,0.001000,0.001000,0.001000,0.001000,0.001000
1029.884615,0.006220,0.001000,0.001000,0.001000,0.001000,0.001000
1029.903846,0.004918,0.001000,0.001000,0.001000,0.001000,0.001000
1029.923077,0.003613,0.001000,0.001000,0.001000,0.001000,0.001000
1029.942308,0.002306,0.001000,0.001000,0.001000,0.001000,0.001000
1029.961538,0.000996,0.001000,0.001000,0.001000,0.001000,0.001000
1029.980769,-0.000314,0.001000,0.001000,0.001000,0.001000,0.001000
1030.000000,0.000000,0.001000,0.001000,0.001000,0.001000,0.001000
1030.019231,0.001363,0.001000,0.001000,0.001000,0.001000,0.001000
1030.038462,0.002725,0.001000,0.001000,0.001000,0.001000,0.001000
1030.057692,0.004085,0.001000,0.001000,0.001000,0.001000,0.001000
1030.076923,0.005442,0.001000,0.001000,0.001000,0.001000,0.001000
1030.096154,0.006795,0.001000,0.001000,0.001000,0.001000,0.001000
1030.115385,0.008143,0.001000,0.001000,0.001000,0.001000,0.001000
1030.134615,0.009484,0.001000,0.001000,0.001000,0.001000,0.001000
1030.153846,0.010819,0.001000,0.001000,0.001000,0.001000,0.001000
1030.173077,0.012146,0.001000,0.001000,0.001000,0.001000,0.001000
1030.192308,0.013464,0.001000,0.001000,0.001000,0.001000,0.001000
1030.211538,0.014771,0.001000,0.001000,0.001000,0.001000,0.001000
1030.230769,0.016068,0.001000,0.001000,0.001000,0.001000,0.001000
1030.250000,0.017353,0.001000,0.001000,0.001000,0.001000,0.001000
1030.269231,0.018625,0.001000,0.001000,0.001000,0.001000,0.001000
1030.288462,0.019883,0.001000,0.001000,0.001000,0.001000,0.001000
1030.307692,0.021126,0.001000,0.001000,0.001000,0.001000,0.001000
1030.326923,0.022353,0.001000,0.001000,0.001000,0.001000,0.001000
1030.346154,0.023564,0.001000,0.001000,0.001000,0.001000,0.001000
1030.365385,0.024758,0.001000,0.001000,0.001000,0.001000,0.001000
1030.384615,0.025933,0.001000,0.001000,0.001000,0.001000,0.001000
1030.403846,0.027088,0.001000,0.001000,0.001000,0.001000,0.001000
1030.423077,0.028224,0.001000,0.001000,0.001000,0.001000,0.001000
1030.442308,0.029339,0.001000,0.001000,0.001000,0.001000,0.001000
1030.461538,0.030431,0.001000,0.001000,0.001000,0.001000,0.001000
1030.480769,0.031502,0.001000,0.001000,0.001000,0.001000,0.001000
1030.500000,0.032548,0.001000,0.001000,0.001000,0.001000,0.001000
1030.519231,0.033571,0.001000,0.001000,0.001000,0.001000,0.001000
1030.538462,0.034569,0.001000,0.001000,0.001000,0.001000,0.001000
1030.557692,0.035540,0.001000,0.001000,0.001000,0.001000,0.001000
1030.576923,0.036486,0.001000,0.001000,0.001000,0.001000,0.001000
1030.596154,0.037404,0.001000,0.001000,0.001000,0.001000,0.001000
1030.615385,0.038295,0.001000,0.001000,0.001000,0.001000,0.001000
1030.634615,0.039157,0.001000,0.001000,0.001000,0.001000,0.001000
1030.653846,0.039990,0.001000,0.001000,0.001000,0.001000,0.001000
1030.673077,0.040793,0.001000,0.001000,0.001000,0.001000,0.001000
1030.692308,0.041566,0.001000,0.001000,0.001000,0.001000,0.001000
1030.711538,0.042309,0.001000,0.001000,0.001000,0.001000,0.001000
1030.730769,0.043019,0.001000,0.001000,0.001000,0.001000,0.001000
1030.750000,0.043698,0.001000,0.001000,0.001000,0.001000,0.001000
1030.769231,0.044344,0.001000,0.001000,0.001000,0.001000,0.001000
1030.788462,0.044957,0.001000,0.001000,0.001000,0.001000,0.001000
1030.807692,0.045537,0.001000,0.001000,0.001000,0.001000,0.001000
1030.826923,0.046083,0.001000,0.001000,0.001000,0.001000,0.001000
1030.846154,0.046595,0.001000,0.001000,0.001000,0.001000,0.001000
1030.865385,0.047072,0.001000,0.001000,0.001000,0.001000,0.001000
1030.884615,0.047514,0.001000,0.001000,0.001000,0.001000,0.001000
1030.903846,0.047921,0.001000,0.001000,0.001000,0.001000,0.001000
1030.923077,0.048292,0.001000,0.001000,0.001000,0.001000,0.001000
1030.942308,0.048627,0.001000,0.001000,0.001000,0.001000,0.001000
1030.961538,0.048926,0.001000,0.001000,0.001000,0.001000,0.001000
1030.980769,0.049189,0.001000,0.001000,0.001000,0.001000,0.001000
1031.000000,0.049415,0.001000,0.001000,0.001000,0.001000,0.001000
1031.019231,0.049605,0.001000,0.001000,0.001000,0.001000,0.001000
1031.038462,0.049757,0.001000,0.001000,0.001000,0.001000,0.001000
1031.057692,0.049873,0.001000,0.001000,0.001000,0.001000,0.001000
1031.076923,0.049952,0.001000,0.001000,0.001000,0.001000,0.001000
1031.096154,0.049993,0.001000,0.001000,0.001000,0.001000,0.001000
1031.115385,0.049997,0.001000,0.001000,0.001000,0.001000,0.001000
1031.134615,0.049964,0.001000,0.001000,0.001000,0.001000,0.001000
1031.153846,0.049894,0.001000,0.001000,0.001000,0.001000,0.001000
1031.173077,0.049787,0.001000,0.001000,0.001000,0.001000,0.001000
1031.192308,0.049643,0.001000,0.001000,0.001000,0.001000,0.001000
1031.211538,0.049462,0.001000,0.001000,0.001000,0.001000,0.001000
1031.230769,0.049244,0.001000,0.001000,0.001000,0.001000,0.001000
1031.250000,0.048990,0.001000,0.001000,0.001000,0.001000,0.001000
1031.269231,0.048699,0.001000,0.001000,0.001000,0.001000,0.001000
1031.288462,0.048372,0.001000,0.001000,0.001000,0.001000,0.001000
1031.307692,0.048009,0.001000,0.001000,0.001000,0.001000,0.001000
1031.326923,0.047611,0.001000,0.001000,0.001000,0.001000,0.001000
1031.346154,0.047177,0.001000,0.001000,0.001000,0.001000,0.001000
1031.365385,0.046707,0.001000,0.001000,0.001000,0.001000,0.001000
1031.384615,0.046204,0.001000,0.001000,0.001000,0.001000,0.001000
1031.403846,0.045666,0.001000,0.001000,0.001000,0.001000,0.001000
1031.423077,0.045093,0.001000,0.001000,0.001000,0.001000,0.001000
1031.442308,0.044488,0.001000,0.001000,0.001000,0.001000,0.001000
1031.461538,0.043849,0.001000,0.001000,0.001000,0.001000,0.001000
1031.480769,0.043178,0.001000,0.001000,0.001000,0.001000,0.001000
1031.500000,0.042475,0.001000,0.001000,0.001000,0.001000,0.001000
1031.519231,0.041740,0.001000,0.001000,0.001000,0.001000,0.001000
1031.538462,0.040974,0.001000,0.001000,0.001000,0.001000,0.001000
1031.557692,0.040177,0.001000,0.001000,0.001000,0.001000,0.001000
1031.576923,0.039351,0.001000,0.001000,0.001000,0.001000,0.001000
1031.596154,0.038496,0.001000,0.001000,0.001000,0.001000,0.001000
1031.615385,0.037612,0.001000,0.001000,0.001000,0.001000,0.001000
1031.634615,0.036699,0.001000,0.001000,0.001000,0.001000,0.001000
1031.653846,0.035760,0.001000,0.001000,0.001000,0.001000,0.001000
1031.673077,0.034794,0.001000,0.001000,0.001000,0.001000,0.001000
1031.692308,0.033802,0.001000,0.001000,0.001000,0.001000,0.001000
1031.711538,0.032786,0.001000,0.001000,0.001000,0.001000,0.001000
1031.730769,0.031744,0.001000,0.001000,0.001000,0.001000,0.001000
1031.750000,0.030679,0.001000,0.001000,0.001000,0.001000,0.001000
1031.769231,0.029592,0.001000,0.001000,0.001000,0.001000,0.001000
1031.788462,0.028482,0.001000,0.001000,0.001000,0.001000,0.001000
1031.807692,0.027351,0.001000,0.001000,0.001000,0.001000,0.001000
1031.826923,0.026200,0.001000,0.001000,0.001000,0.001000,0.001000
1031.846154,0.025029,0.001000,0.001000,0.001000,0.001000,0.001000
1031.865385,0.023840,0.001000,0.001000,0.001000,0.001000,0.001000
1031.884615,0.022633,0.001000,0.001000,0.001000,0.001000,0.001000
1031.903846,0.021409,0.001000,0.001000,0.001000,0.001000,0.001000
1031.923077,0.020170,0.001000,0.001000,0.001000,0.001000,0.001000
1031.942308,0.018915,0.001000,0.001000,0.001000,0.001000,0.001000
1031.961538,0.017646,0.001000,0.001000,0.001000,0.001000,0.001000
1031.980769,0.016364,0.001000,0.001000,0.001000,0.001000,0.001000
1032.000000,0.015070,0.001000,0.001000,0.001000,0.001000,0.001000
1032.019231,0.013765,0.001000,0.001000,0.001000,0.001000,0.001000
1032.038462,0.012450,0.001000,0.001000,0.001000,0.001000,0.001000
1032.057692,0.011125,0.001000,0.001000,0.001000,0.001000,0.001000
1032.076923,0.009792,0.001000,0.001000,0.001000,0.001000,0.001000
1032.096154,0.008452,0.001000,0.001000,0.001000,0.001000,0.001000
1032.115385,0.007105,0.001000,0.001000,0.001000,0.001000,0.001000
1032.134615,0.005753,0.001000,0.001000,0.001000,0.001000,0.001000
1032.153846,0.004397,0.001000,0.001000,0.001000,0.001000,0.001000
1032.173077,0.003038,0.001000,0.001000,0.001000,0.001000,0.001000
1032.192308,0.001676,0.001000,0.001000,0.001000,0.001000,0.001000
1032.211538,0.000313,0.001000,0.001000,0.001000,0.001000,0.001000
1032.230769,-0.001050,0.001000,0.001000,0.001000,0.001000,0.001000
1032.250000,-0.002412,0.001000,0.001000,0.001000,0.001000,0.001000
1032.269231,-0.003773,0.001000,0.001000,0.001000,0.001000,0.001000
1032.288462,-0.005130,0.001000,0.001000,0.001000,0.001000,0.001000
1032.307692,-0.006484,0.001000,0.001000,0.001000,0.001000,0.001000
1032.326923,-0.007833,0.001000,0.001000,0.001000,0.001000,0.001000
1032.346154,-0.009177,0.001000,0.001000,0.001000,0.001000,0.001000
1032.365385,-0.010513,0.001000,0.001000,0.001000,0.001000,0.001000
1032.384615,-0.011842,0.001000,0.001000,0.001000,0.001000,0.001000
1032.403846,-0.013162,0.001000,0.001000,0.001000,0.001000,0.001000
1032.423077,-0.014472,0.001000,0.001000,0.001000,0.001000,0.001000
1032.442308,-0.015771,0.001000,0.001000,0.001000,0.001000,0.001000
1032.461538,-0.017059,0.001000,0.001000,0.001000,0.001000,0.001000
1032.480769,-0.018333,0.001000,0.001000,0.001000,0.001000,0.001000
1032.500000,-0.019595,0.001000,0.001000,0.001000,0.001000,0.001000
1032.519231,-0.020841,0.001000,0.001000,0.001000,0.001000,0.001000
1032.538462,-0.022073,0.001000,0.001000,0.001000,0.001000,0.001000
1032.557692,-0.023287,0.001000,0.001000,0.001000,0.001000,0.001000
1032.576923,-0.024485,0.001000,0.001000,0.001000,0.001000,0.001000
1032.596154,-0.025664,0.001000,0.001000,0.001000,0.001000,0.001000
1032.615385,-0.026824,0.001000,0.001000,0.001000,0.001000,0.001000
1032.634615,-0.027965,0.001000,0.001000,0.001000,0.001000,0.001000
1032.653846,-0.029084,0.001000,0.001000,0.001000,0.001000,0.001000
1032.673077,-0.030182,0.001000,0.001000,0.001000,0.001000,0.001000
1032.692308,-0.031258,0.001000,0.001000,0.001000,0.001000,0.001000
1032.711538,-0.032310,0.001000,0.001000,0.001000,0.001000,0.001000
1032.730769,-0.033338,0.001000,0.001000,0.001000,0.001000,0.001000
1032.750000,-0.034341,0.001000,0.001000,0.001000,0.001000,0.001000
1032.769231,-0.035319,0.001000,0.001000,0.001000,0.001000,0.001000
1032.788462,-0.036271,0.001000,0.001000,0.001000,0.001000,0.001000
1032.807692,-0.037196,0.001000,0.001000,0.001000,0.001000,0.001000
1032.826923,-0.038093,0.001000,0.001000,0.001000,0.001000,0.001000
1032.846154,-0.038961,0.001000,0.001000,0.001000,0.001000,0.001000
1032.865385,-0.039801,0.001000,0.001000,0.001000,0.001000,0.001000
1032.884615,-0.040611,0.001000,0.001000,0.001000,0.001000,0.001000
1032.903846,-0.041391,0.001000,0.001000,0.001000,0.001000,0.001000
1032.923077,-0.042141,0.001000,0.001000,0.001000,0.001000,0.001000
1032.942308,-0.042859,0.001000,0.001000,0.001000,0.001000,0.001000
1032.961538,-0.043545,0.001000,0.001000,0.001000,0.001000,0.001000
1032.980769,-0.044198,0.001000,0.001000,0.001000,0.001000,0.001000
1033.000000,-0.044819,0.001000,0.001000,0.001000,0.001000,0.001000
1033.019231,-0.045407,0.001000,0.001000,0.001000,0.001000,0.001000
1033.038462,-0.045961,0.001000,0.001000,0.001000,0.001000,0.001000
1033.057692,-0.046480,0.001000,0.001000,0.001000,0.001000,0.001000
1033.076923,-0.046965,0.001000,0.001000,0.001000,0.001000,0.001000
1033.096154,-0.047415,0.001000,0.001000,0.001000,0.001000,0.001000
1033.115385,-0.047830,0.001000,0.001000,0.001000,0.001000,0.001000
1033.134615,-0.048210,0.001000,0.001000,0.001000,0.001000,0.001000
1033.153846,-0.048553,0.001000,0.001000,0.001000,0.001000,0.001000
1033.173077,-0.048861,0.001000,0.001000,0.001000,0.001000,0.001000
1033.192308,-0.049132,0.001000,0.001000,0.001000,0.001000,0.001000
1033.211538,-0.049367,0.001000,0.001000,0.001000,0.001000,0.001000
1033.230769,-0.049564,0.001000,0.001000,0.001000,0.001000,0.001000
1033.250000,-0.049726,0.001000,0.001000,0.001000,0.001000,0.001000
1033.269231,-0.049850,0.001000,0.001000,0.001000,0.001000,0.001000
1033.288462,-0.049937,0.001000,0.001000,0.001000,0.001000,0.001000
1033.307692,-0.049987,0.001000,0.001000,0.001000,0.001000,0.001000
1033.326923,-0.050000,0.001000,0.001000,0.001000,0.001000,0.001000
1033.346154,-0.049975,0.001000,0.001000,0.001000,0.001000,0.001000
1033.365385,-0.049914,0.001000,0.001000,0.001000,0.001000,0.001000
1033.384615,-0.049815,0.001000,0.001000,0.001000,0.001000,0.001000
1033.403846,-0.049679,0.001000,0.001000,0.001000,0.001000,0.001000
1033.423077,-0.049507,0.001000,0.001000,0.001000,0.001000,0.001000
1033.442308,-0.049298,0.001000,0.001000,0.001000,0.001000,0.001000
1033.461538,-0.049052,0.001000,0.001000,0.001000,0.001000,0.001000
1033.480769,-0.048769,0.001000,0.001000,0.001000,0.001000,0.001000
1033.500000,-0.048450,0.001000,0.001000,0.001000,0.001000,0.001000
1033.519231,-0.048096,0.001000,0.001000,0.001000,0.001000,0.001000
1033.538462,-0.047705,0.001000,0.001000,0.001000,0.001000,0.001000
1033.557692,-0.047279,0.001000,0.001000,0.001000,0.001000,0.001000
1033.576923,-0.046818,0.001000,0.001000,0.001000,0.001000,0.001000
1033.596154,-0.046323,0.001000,0.001000,0.001000,0.001000,0.001000
1033.615385,-0.045792,0.001000,0.001000,0.001000,0.001000,0.001000
1033.634615,-0.045228,0.001000,0.001000,0.001000,0.001000,0.001000
1033.653846,-0.044630,0.001000,0.001000,0.001000,0.001000,0.001000
1033.673077,-0.043999,0.001000,0.001000,0.001000,0.001000,0.001000
1033.692308,-0.043335,0.001000,0.001000,0.001000,0.001000,0.001000
1033.711538,-0.042639,0.001000,0.001000,0.001000,0.001000,0.001000
1033.730769,-0.041911,0.001000,0.001000,0.001000,0.001000,0.001000
1033.750000,-0.041153,0.001000,0.001000,0.001000,0.001000,0.001000
1033.769231,-0.040363,0.001000,0.001000,0.001000,0.001000,0.001000
1033.788462,-0.039544,0.001000,0.001000,0.001000,0.001000,0.001000
1033.807692,-0.038695,0.001000,0.001000,0.001000,0.001000,0.001000
1033.826923,-0.037817,0.001000,0.001000,0.001000,0.001000,0.001000
1033.846154,-0.036912,0.001000,0.001000,0.001000,0.001000,0.001000
1033.865385,-0.035978,0.001000,0.001000,0.001000,0.001000,0.001000
1033.884615,-0.035019,0.001000,0.001000,0.001000,0.001000,0.001000
1033.903846,-0.034033,0.001000,0.001000,0.001000,0.001000,0.001000
1033.923077,-0.033021,0.001000,0.001000,0.001000,0.001000,0.001000
1033.942308,-0.031986,0.001000,0.001000,0.001000,0.001000,0.001000
1033.961538,-0.030926,0.001000,0.001000,0.001000,0.001000,0.001000
1033.980769,-0.029844,0.001000,0.001000,0.001000,0.001000,0.001000
1034.000000,-0.028739,0.001000,0.001000,0.001000,0.001000,0.001000
1034.019231,-0.027613,0.001000,0.001000,0.001000,0.001000,0.001000
1034.038462,-0.026466,0.001000,0.001000,0.001000,0.001000,0.001000
1034.057692,-0.025300,0.001000,0.001000,0.001000,0.001000,0.001000
1034.076923,-0.024115,0.001000,0.001000,0.001000,0.001000,0.001000
1034.096154,-0.022912,0.001000,0.001000,0.001000,0.001000,0.001000
1034.115385,-0.021692,0.001000,0.001000,0.001000,0.001000,0.001000
1034.134615,-0.020456,0.001000,0.001000,0.001000,0.001000,0.001000
1034.153846,-0.019205,0.001000,0.001000,0.001000,0.001000,0.001000
1034.173077,-0.017939,0.001000,0.001000,0.001000,0.001000,0.001000
1034.192308,-0.016660,0.001000,0.001000,0.001000,0.001000,0.001000
1034.211538,-0.015369,0.001000,0.001000,0.001000,0.001000,0.001000
1034.230769,-0.014066,0.001000,0.001000,0.001000,0.001000,0.001000
1034.250000,-0.012753,0.001000,0.001000,0.001000,0.001000,0.001000
1034.269231,-0.011430,0.001000,0.001000,0.001000,0.001000,0.001000
1034.288462,-0.010099,0.001000,0.001000,0.001000,0.001000,0.001000
1034.307692,-0.008760,0.001000,0.001000,0.001000,0.001000,0.001000
1034.326923,-0.007415,0.001000,0.001000,0.001000,0.001000,0.001000
1034.346154,-0.006064,0.001000,0.001000,0.001000,0.001000,0.001000
1034.365385,-0.004709,0.001000,0.001000,0.001000,0.001000,0.001000
1034.384615,-0.003350,0.001000,0.001000,0.001000,0.001000,0.001000
1034.403846,-0.001989,0.001000,0.001000,0.001000,0.001000,0.001000
1034.423077,-0.000627,0.001000,0.001000,0.001000,0.001000,0.001000
1034.442308,0.000737,0.001000,0.001000,0.001000,0.001000,0.001000
1034.461538,0.002099,0.001000,0.001000,0.001000,0.001000,0.001000
1034.480769,0.003460,0.001000,0.001000,0.001000,0.001000,0.001000
1034.500000,0.004819,0.001000,0.001000,0.001000,0.001000,0.001000
1034.519231,0.006174,0.001000,0.001000,0.001000,0.001000,0.001000
1034.538462,0.007524,0.001000,0.001000,0.001000,0.001000,0.001000
1034.557692,0.008869,0.001000,0.001000,0.001000,0.001000,0.001000
1034.576923,0.010207,0.001000,0.001000,0.001000,0.001000,0.001000
1034.596154,0.011537,0.001000,0.001000,0.001000,0.001000,0.001000
1034.615385,0.012859,0.001000,0.001000,0.001000,0.001000,0.001000
1034.634615,0.014171,0.001000,0.001000,0.001000,0.001000,0.001000
1034.653846,0.015473,0.001000,0.001000,0.001000,0.001000,0.001000
1034.673077,0.016764,0.001000,0.001000,0.001000,0.001000,0.001000
1034.692308,0.018042,0.001000,0.001000,0.001000,0.001000,0.001000
